Time_interval,Time,Acceleration_x,Acceleration_z,Acceleration_y
-1,-0.001138874999,-5.363496552,4.951104126,6.396947479
0,0.24954998724432653,-3.160665118134694,3.8042166417551018,8.303615196469387
1,0.745914735,-1.6654277252338,5.2897359375,8.5570275696
2,1.24729278,-0.9657347443016,6.87856195676,5.94342059326
3,1.7486707849999998,-1.877258221444,7.75965371734,4.612804623384
4,2.25004813,3.844458407778,9.0318342038,0.36405195021000003
5,2.751425395,4.93974873962,7.90930351838,-2.493397952272
6,3.2528020375,0.9690249023859999,8.88598948984,-3.6160753326600004
7,3.7541785,2.719969793824,7.65791628122,-5.202165042100001
8,4.250540591836734,0.9418200466122448,8.249693653285714,-4.649145317877551
9,4.746901882,-1.09416766658,7.0184939665,-6.30408658448
10,5.24827703366,-3.504254864516,6.499074105596001,-6.468193322498
11,5.749651685,-3.6620746765299996,7.61586273212,-5.192878353935999
12,6.2510266275,-3.3975507568239998,5.968230001839999,-7.102535201984
13,6.75240121,-3.6183835327200002,6.40374334722,-6.789751638599999
14,7.25377537084,-3.64150744626,6.89547678218,-5.3540661621000005
15,7.750135516489796,-3.234449438,6.099097473795918,-7.240324280387755
16,8.246495172,-3.5215139740400003,6.51919526364,-6.627557922319999
17,8.747868105,-2.757748233072,7.35013531488,-5.60721074524
18,9.249240905,-2.908203359936,6.4078537994,-6.903224670439999
19,9.75061399,-3.53824318544,6.44394674378,-6.752365383699999
20,10.2519861726,-3.1063074005200004,7.3581197113,-5.672531909220001
21,10.7533600942,-3.4929324096800003,6.08689723206,-6.82471892398
22,11.249717874897959,-3.924514440367347,6.34039569155102,-6.505343496938776
23,11.74607304,-2.9457842102000003,7.45011540538,-5.45278287964
24,12.24744392,-3.152166037,6.3167682129000005,-6.99075964052
25,12.748816934399999,-3.15311805726,6.86585039056,-6.64365245366
26,13.250187174,-2.82717086794,7.45704299928,-5.41236692506
27,13.75155453,-2.95463081364,6.366111602759999,-7.13944245302
28,14.252924190000002,-3.5301989135999996,6.6850533599999995,-6.52761974462
29,14.7542934042,-3.0945807861000003,7.266914373780001,-5.4850288238200005
30,15.250648777755101,-3.124477106285714,6.057056327408163,-7.215610367122449
31,15.7470037224,-3.92870621336,6.554186499,-6.20585485844
32,16.24837214,-3.5648758026,7.149570391859999,-5.76117158214
33,16.74974099,-2.90244633188,6.30183825982,-6.9849247742800005
34,17.25110891,-3.88941292422,6.44576396488,-5.89343653568
35,17.75247651,-3.53377348026,7.089685922239999,-6.5123904147
36,18.25384381,-3.11060047298,6.48642241516,-6.55729104308
37,18.75019870102041,-3.7903658528163264,6.717883151326531,-5.843279450142856
38,19.2465517142,-3.8679236114399997,6.915217730739999,-6.185164883600001
39,19.7479189542,-3.2336745391800004,6.55465053398,-6.66431249084
40,20.24928505,-3.8546013153399996,6.3541394988599995,-6.0638990569999995
41,20.75064856,-2.92503435972,6.89932378238,-6.7150629547000005
42,21.2520140542,-3.20808974306,6.298572052,-6.86273087768
43,21.753379026799998,-3.32379313654,6.493745187220001,-5.92279648134
44,22.24973033591837,-2.6460994486775506,7.000168584693878,-6.865317376387755
45,22.7460815658,-2.998315969926,6.525149881,-6.791676635799999
46,23.247445990000003,-3.48082857974,6.57822650748,-5.9535156006
47,23.7488103122,-2.77801309202,6.4317531006,-7.05194640184
48,24.2501741746,-2.9033085388744,6.548701904316,-6.9535500183
49,24.751536819,-4.363551946908,6.01142118506,-5.631415411256
50,25.25290016,-4.348442367502,5.8908918274,-6.8079657621
51,25.7542637054,-2.8852860167760004,6.31194224862,-7.16734443034
52,26.250613068571425,-4.075593127857143,6.305463231918368,-5.781977336632653
53,26.746962114600002,-3.34720145866,6.64547266848,-6.6076493224
54,27.2483245754,-3.3349599151000002,5.8795244659399994,-7.25617869882
55,27.749686838,-3.7228273408000003,6.33307829588,-5.9536203827400005
56,28.25104888,-3.121057727004,7.081399154660001,-6.4839615326
57,28.752410084799997,-3.4001283966,5.8815722075600005,-6.8620303345
58,29.2537716754,-3.37161269526,6.07895474854,-6.62809380808
59,29.75012028306122,-3.374600848795918,7.571011103408163,-5.799298459959183
60,30.24646781,-3.4437776276800003,5.529094189459999,-7.18942950454
61,30.747831633199997,-3.5800572326399998,6.0278480256,-6.976934390379999
62,31.249192509999997,-3.4622791534,7.7042748779400005,-5.15982409058
63,31.750549686200003,-3.4204830689,5.4508638703,-7.35094363408
64,32.2519099038,-3.42560541682,6.22275770846,-7.05349717714
65,32.7532704848,-3.3373788849099997,7.34392323308,-5.51295175786
66,33.24961684693877,-3.4743179756734697,5.607834366836734,-7.255729999285714
67,33.7459629632,-3.6069083953799996,6.27140654302,-6.88860008212
68,34.24732252,-3.37449570004,6.8510222260399996,-5.56310047304
69,34.7486824168,-4.04010455936,6.41881700124,-6.5099924012
70,35.25004166,-2.72526278688,6.10668608088,-7.0225146058200005
71,35.751400079999996,-3.1907258514519996,6.6439338683799996,-6.554851116879999
72,36.2527588,-3.8982954528800002,6.74678199464,-5.88191050418
73,36.7541168784,-3.08912014156,5.9841479004,-6.825081170780001
74,37.250461509387755,-3.256792770671429,6.86626744177551,-6.716520678469388
75,37.7468067074,-4.08945992424,6.81871341252,-5.38484216306
76,38.24816463,-3.20071008908,6.25548265688,-6.99531915892
77,38.7495216848,-3.6644607147,6.508414682080001,-6.58873764972
78,39.25087913,-4.50739981388,6.2460642425,-5.715426709019999
79,39.7522364468,-3.19654574878,6.47091466372,-6.74844054546
80,40.25359351,-3.7193545623,5.9811182006,-6.9637677705800005
81,40.749937180204086,-3.6666618721020408,6.41477265655102,-5.87133233832653
82,41.2462803444,-3.5659116484999998,7.31258140872,-6.28430372304
83,41.747636140000004,-3.8568975402400003,5.31341968688,-6.9177145385
84,42.24899251,-3.9818277466,5.94225900872,-6.5403732238400005
85,42.7503486924,-3.95763206174,7.224735085999999,-6.00009573672
86,43.25170469,-3.7114988983400004,5.09565552984,-7.26093879982
87,43.753060725,-3.55264324034,5.94075613408,-6.58350752564
88,44.24940285714286,-4.037975435795919,7.30313550055102,-5.901401441959184
89,44.74574524,-3.65326399832,5.463521548459999,-7.11429175428
90,45.247100579999994,-3.81530802614,5.973145779359999,-6.86240156258
91,45.7484555026,-4.01738779902,7.12560822144,-5.5569662293199995
92,46.24981041,-3.76500064092,5.424827014060001,-7.118944079479999
93,46.751165347400004,-3.9224791625799997,6.014474835260001,-6.74984462572
94,47.25251994,-3.7022990295,7.354856497220001,-5.50896105652
95,47.7538741226,-3.76684480588,5.369361355600001,-7.2183583466200005
96,48.25021486142857,-3.5503903944897957,6.236988279244898,-6.673731088489796
97,48.746554927999995,-3.6437587647200003,7.54331160272,-5.49454902652
98,49.247908674600005,-3.5273039336400003,5.191758682260001,-7.45494136956
99,49.7492629244,-3.69077299802,6.2525008575,-6.908691302459999
100,50.2506164444,-3.92641298206,7.131745459059999,-5.36774172364
101,50.751968977,-3.65637453,5.78566963806,-7.083222363260001
102,51.25332211,-3.68490819394,6.41652975768,-6.64840956118
103,51.749662058571424,-3.9994993248979593,7.279289170857143,-5.0684356440816325
104,52.24600145,-3.56404353336,5.992305935639999,-7.005569842480001
105,52.74735434,-3.75189689022,6.51197428008,-6.46413077092
106,53.248706940000005,-3.693958374,7.253915405300001,-5.4002241761
107,53.7500592264,-3.7351826477,5.5583283967,-7.363364804200001
108,54.25141162,-3.95344676516,6.24665401614,-6.5317511534
109,54.7527661504,-3.81958313602,7.1116632202200005,-5.3023187713599995
110,55.25411838,-3.72727309568,5.70764888308,-7.24464967346
111,55.75045490122449,-3.347354446755102,6.337301106346938,-6.814010803734694
112,56.24679302,-3.64223493346,7.4230067779599995,-5.30181881112
113,56.748144121,-3.2267738891800004,5.76881468812,-7.39899970088
114,57.24949549,-3.82504677438,6.325408245879999,-6.53928349004
115,57.7508473032,-3.99063243714,6.75136845702,-5.82855246272
116,58.25219856,-4.67607505186,5.70615498966,-6.488365374600001
117,58.75354951,-3.56742649834,6.03398825686,-6.62225594796
118,59.24988712755102,-3.7828478132040817,6.946937442714285,-6.425867951020408
119,59.7462242522,-3.4632132110600002,5.6377741882,-7.04008207398
120,60.247575094599995,-4.1787821777800005,6.40783583678,-5.985288528480001
121,60.7489266944,-3.6247932038,6.56287742614,-6.87422397746
122,61.2502773746,-3.6023099578,5.915036618059999,-6.8589048339800005
123,61.751627604599996,-4.060144885220001,6.18992797862,-6.16866619262
124,62.2529778746,-3.26047780154,6.713158914099999,-6.733953671399999
125,62.754328324199996,-3.71129831544,6.12204713746,-6.838023257500001
126,63.25066489489796,-3.9990227648163263,6.313020984857143,-5.8765103461224495
127,63.747000968399995,-3.2588731384800003,6.1153829956,-7.12484780268
128,64.24835079,-3.7831459076,6.6114214783,-6.509318801739999
129,64.749702779,-4.11898153378,6.516902032519999,-5.59651398922
130,65.251053,-2.98335308536,6.195780807459999,-6.96958168028
131,65.752399918,-3.9689694854999997,6.34725381778,-6.69229530022
132,66.25374942,-4.14467709962,6.3732547485,-5.82909134218
133,66.75008579734694,-3.2816044398530613,5.823508319530613,-7.141383090897959
134,67.24642171420001,-3.92329346918,6.2768132996,-6.6825834961199995
135,67.74777065500001,-4.4753125397,6.22477850644,-6.07397909546
136,68.2491196642,-3.07695643614,5.892894662480001,-7.00517466416
137,68.7504686374,-3.71779779964,6.5666136567,-6.492017779499999
138,69.25181755,-4.21587504272,6.39043901366,-6.203887948599999
139,69.7531656866,-3.45803098758,5.69691021426,-6.9852451081
140,70.24950071653062,-3.761677551265306,6.601819405061224,-6.3467101116122455
141,70.74583569,-4.2533541045800005,6.40568331294,-6.5175067749
142,71.24718404000001,-3.5183764984,5.697817327919999,-6.96095661606
143,71.7485325142,-3.7496485657,6.4394590759599994,-6.3021106932999995
144,72.249880714,-4.52734433898,6.30385307006,-6.50211578072
145,72.751228865,-3.56843839412,5.6778877716,-6.98378115236
146,73.25257682,-3.812125644,6.6066494018399995,-5.7879808319
147,73.7539243294,-4.3276476105,6.01715725722,-6.9410540039
148,74.25025843020408,-3.528428920857143,6.070503873183674,-6.816408878306122
149,74.7465929702,-3.64662081294,6.78930556642,-5.5125865173
150,75.24794057999999,-3.59486444094,6.2285446747,-7.00402804866
151,75.7492882248,-3.8789287261800003,6.13792611696,-6.8128755523999995
152,76.25063569,-3.64591428224,7.0127070008,-5.457713626099999
153,76.7519825992,-3.77553872684,5.82456176142,-7.12939833964
154,77.25332978440001,-3.76519822996,6.2316701751200005,-6.54943537904
155,77.74966380081634,-3.9141462053265306,7.537153958795919,-4.997776458081632
156,78.2459975,-4.09242675478,6.016208230339999,-6.96953378008
157,78.7473445,-3.5293905945199997,5.71607635806,-6.77852498484
158,79.2486914,-3.4799424225,6.5021337432,-6.620118392839999
159,79.75003787,-4.42127191776,6.4503564149,-5.72433917546
160,80.25138458,-2.9693242584,5.99560507508,-7.15639619784
161,80.7527320752,-3.72470743092,6.5702989927,-6.574313644479999
162,81.25407876,-3.90449256592,6.4443958097,-5.7608781921
163,81.75041097938775,-3.340334351244898,6.127242008102041,-6.910501986204081
164,82.24674375000001,-3.78938792722,5.8752433685200005,-6.93161163934
165,82.74809015659999,-3.9866177856399996,6.152748293979999,-5.98132177732
166,83.24943635460001,-3.96851742556,7.20757477128,-6.05116653424
167,83.75078243440001,-3.62407170406,4.9365543823,-7.512760134960001
168,84.252128474,-3.80727572934,6.21258486308,-6.73652831718
169,84.75347495919999,-4.08442140194,7.36119132384,-5.181148745760001
170,85.24980743,-4.084861608979591,5.2795608925102036,-7.173731128938776
171,85.7461385634,-4.11713437498,6.06154295656,-6.6918671908
172,86.24748389,-4.0819545319,6.733031588779999,-5.5124368287
173,86.74883004760001,-4.13148353572,6.31241526498,-6.547276867440001
174,87.2501755246,-3.5371833893,5.75677372742,-6.72204443688
175,87.75152011899999,-3.5665732726800004,6.631889913999999,-6.3407603212
176,88.25286517459999,-4.6011199218000005,6.71313197028,-5.39839797352
177,88.75421040859999,-3.69491638188,5.76347978212,-6.89056100472
178,89.25054182306123,-3.8750896688163268,5.981319944408163,-6.82664880867347
179,89.7468735514,-4.4655258911599995,6.12368772592,-5.7227704375799995
180,90.24821822419999,-3.555936392222,6.77108844912,-6.611675948979999
181,90.7495622638,-3.7489360473480002,5.53837189638,-6.87806798382
182,91.2509065038,-3.9823486634,5.95508134466,-6.18120711344
183,91.75225132999999,-4.31532523496,7.42699448546,-5.378995321600001
184,92.25359553,-4.17010023196,5.47029346616,-7.08544374372
185,92.74992594795918,-4.179449606128571,6.125103597795919,-6.564366676326531
186,93.2462562842,-4.03218003846,7.14665744938,-5.07061859434
187,93.74760021440001,-4.1046982361,6.28200151076,-6.6183400911
188,94.24894383479999,-3.725985772696,5.583694647160001,-6.87646032718
189,94.7502867498,-3.6362084655799998,6.64359257812,-6.408509436199999
190,95.25162990999999,-4.5220214080800005,6.5027295043399995,-5.4783018127
191,95.752973194,-3.27644360046,5.73749980772,-7.1599078949
192,96.2543162348,-3.89704704896,6.4282683471799995,-6.533472574
193,96.75064605020408,-4.636843348836734,6.339445626448979,-5.406417501
194,97.24697549000001,-3.52286416626,6.2606828429400005,-6.82681157236
195,97.7483178216,-3.81374527586,5.8362554443,-6.84539093628
196,98.24966033439999,-4.08756187132,6.0752005553799995,-5.70020336606
197,98.75100302979999,-4.107730929500001,7.61985942066,-5.777565490760001
198,99.25234529,-3.91135429686,5.081324331679999,-7.14355290536
199,99.7536875728,-4.06921302788,5.909827450520001,-6.89909625526
200,100.25001610408164,-4.229561724,7.4381852753673465,-4.876076473346939
201,100.746344088,-4.02677328184,5.7202706362,-6.9710695860600005
202,101.2476858,-3.66666113894,5.9283858582,-6.89143219318
203,101.749027482,-3.79275891722,6.784985549960001,-5.646354345580001
204,102.25036899999999,-4.69284318246,5.955689080780001,-6.385280740439999
205,102.75171079,-3.62108990474,5.85296669306,-6.747904660100001
206,103.25305204,-3.8296631745000003,6.349148876939999,-6.47145953052
207,103.74937915918368,-4.22772269122449,6.905757770204081,-5.415673762755102
208,104.245706648,-3.390018420392,5.84634745788,-6.9445567202400005
209,104.747047428,-3.78789702756,6.65836386104,-6.3957260191800005
210,105.24838824,-4.29784458622,6.90619449452,-5.40725954592
211,105.749729534,-3.1945997955600003,5.97296315918,-7.02017946168
212,106.25107025999999,-4.23911571352,6.06710239562,-6.65359777222
213,106.75241047,-4.07222177118,6.558168218800001,-5.577545434559999
214,107.25375086,-3.17723889778,6.918720446779999,-6.79492188736
215,107.75007795102042,-3.9800642301632654,5.692368780734694,-6.671992866489796
216,108.24640493999999,-3.66098194882,6.32082178346,-6.01220555414
217,108.74774557999999,-3.55103857728,7.310087594540001,-6.4374173217
218,109.24908592,-3.8167330627,5.5314802277,-6.98685575872
219,109.75042534,-4.11846061704,6.40680298456,-5.702727117939999
220,110.2517653,-3.82211287534,6.58208847662,-6.7456114289
221,110.753106116,-3.9817439209,5.659601797520001,-6.828694656520001
222,111.24943290408163,-3.8287625370816327,6.327293346224489,-5.892908898122449
223,111.74575963400001,-3.81834670716,7.00315985408,-6.54107975454
224,112.24709966,-3.9526713775999998,5.347261312860001,-7.11096267702
225,112.74843933,-4.04951099856,6.559832757540001,-5.702843875139999
226,113.249779198,-3.9000078918,6.2584674499599995,-6.72610698848
227,113.75111897000001,-3.93217599802,5.68006424556,-7.00124683216
228,114.25245897999999,-4.3232766998,6.4810426027200005,-5.53183049924
229,114.75379874000001,-3.7811819916,6.3310125915399995,-6.643122555380001
230,115.25012514489796,-4.066275768632654,5.4942359021224485,-6.946470047408162
231,115.74645197199999,-4.48982037052,6.26468551968,-5.5078773102000005
232,116.24779184200001,-3.9605479980400005,6.95662761842,-6.3797811767
233,116.74913185,-3.87129160762,5.57053102104,-6.9839128784
234,117.25047186,-3.91987158512,6.234957339459999,-5.9721398711400004
235,117.75181194000001,-3.83395325314,6.825557180580001,-6.438225641080001
236,118.25315200000001,-4.07366776426,5.18475025626,-7.09072775582
237,118.74947787551021,-4.363563677816327,6.060908520734693,-5.978585834061224
238,119.2458043,-3.94202252194,6.47204930422,-6.69410952748
239,119.747144612,-3.9740559082,5.8262981506200004,-6.784826879900001
240,120.2484847,-4.41158406366,6.1278131469599995,-5.83828222964
241,120.74982464,-3.62773309014,6.7047733521,-6.625282653919999
242,121.2511645,-3.8580231995,6.13590531922,-6.7724715729
243,121.752504772,-4.21690789486,6.040005743399999,-5.937319280980001
244,122.25384474,-3.5459551484,6.29032719726,-7.053940256160001
245,122.75017122653061,-3.867479982897959,6.1183920444081625,-6.713786568163266
246,123.24649767999999,-4.16329538268,6.1345551269400005,-5.9978803437
247,123.747836974,-3.67734292604,5.71898031916,-6.861093283080001
248,124.24917656199999,-3.73968528444,6.813911398379999,-6.4646636627800005
249,124.75051622999999,-4.5316853119000005,5.75729464408,-6.62238168642
250,125.2518559,-3.74881629638,5.94341759952,-6.763607006779999
251,125.75319581400001,-4.06772512204,6.25198892214,-5.9228623443799995
252,126.24952209387756,-3.9679516632448983,5.840942473142857,-7.2068306654489795
253,126.74584858,-3.9479531890599997,5.86156780712,-6.84096613788
254,127.24718811999999,-4.04033807372,6.78187501834,-5.5408597229
255,127.748527044,-3.8859581085,5.1315718414200004,-7.547185546780001
256,128.24986619999999,-3.9518510834,6.00310447994,-6.905898111080001
257,128.751205148,-3.90702529908,7.13798448488,-5.519669787640001
258,129.25254426,-3.5694922027000002,5.24543705754,-7.491624087599999
259,129.753883632,-4.1144968597,5.90222925112,-6.77784240424
260,130.25020934489794,-3.8900279920612246,7.130825453755102,-5.541323696795919
261,130.74653553800002,-3.68332448726,5.1985994568,-7.558624758920001
262,131.24787469999998,-3.98332762756,5.90122633662,-6.76677442008
263,131.749212724,-3.8345460205,6.82568890678,-6.00252069398
264,132.25055128,-3.68609372862,5.626751110840001,-7.0915151184
265,132.751890612,-3.9529198608400002,5.870279690559999,-6.60100913064
266,133.2532295,-3.60163037108,7.21711892392,-6.04820269778
267,133.7495546877551,-3.787949449244898,5.378419600530613,-7.119995933163265
268,134.24587978,-3.6277031524,5.92664048768,-6.6755421386
269,134.74721864400001,-4.03326079098,7.196060714720001,-5.9826570008
270,135.2485571,-3.96831684262,5.18293602908,-7.18500769966
271,135.74989566800002,-3.73938890078,5.85377201852,-6.5597848570999995
272,136.25123402,-4.16106202696,7.34221977536,-5.65549733274
273,136.75257147800002,-3.92006917414,4.9529512848,-7.32339492188
274,137.25390936399998,-3.9856298400399996,6.08882522272,-6.69805232844
275,137.7502342897959,-4.050436258163265,7.507952438612245,-4.96127379444898
276,138.24655898,-3.6524945983999997,5.58992768546,-7.17511626908
277,138.747897046,-4.13230083626,6.1135418243599995,-6.7351511809
278,139.249234882,-4.05351666878,7.12622793276,-5.33693279118
279,139.750572426,-3.75926756282,6.05150483086,-6.707776107780001
280,140.25191002,-4.01108889766,6.011310415660001,-6.844645486619999
281,140.75324738999998,-3.9079713317599998,6.91428367318,-5.47359260552
282,141.24957136734693,-3.8804479139387755,6.441661638591836,-6.64485949455102
283,141.745895924,-3.70702619932,6.1326720428199994,-6.54679187626
284,142.24723336,-3.7890166992600003,6.7462251526,-5.862906024180001
285,142.748570572,-4.53373005978,6.19056864622,-6.39871979354
286,143.24990778,-3.5038566925,5.86022360234,-6.9138555634
287,143.751245014,-3.691796868858,6.363147766219999,-6.39093897384
288,144.25258216,-4.520362857088,6.685346749840001,-5.860151751539999
289,144.753919126,-3.9778939269799998,5.65773667604,-6.577508001799999
290,145.25024268571428,-4.031022547489796,6.289690928571429,-6.601257308632653
291,145.746566344,-4.84617532664,6.0633661652,-6.33659897458
292,146.24790324,-3.5872931854799996,6.05264545902,-6.70677319334
293,146.749239738,-4.3529719483200005,6.836092272879999,-5.4902230224799995
294,147.25057628000002,-4.62288166816,6.2002115936,-6.2207309233800006
295,147.751912822,-3.5243909912399998,5.66772390748,-6.94974193734
296,148.253249284,-3.5069612366,6.44232411814,-6.69587585474
297,148.7495726265306,-4.444209239734694,6.606242859693877,-5.519346948714285
298,149.2458957,-3.41988132018,6.257596261600001,-6.9146010132599995
299,149.747231876,-3.94505820926,5.96258374332,-6.783063546639999
300,150.2485681,-4.4148652405,5.8266843475600005,-5.83852771914
301,150.749904332,-3.9664457336599996,6.65684002986,-6.702911224320001
302,151.25124042,-4.21204301146,5.378393572999999,-6.7173412169
303,151.752576276,-3.65489261168,6.17657275098,-6.36152514042
304,152.253912186,-4.39095396428,7.06701706236,-5.919260833539999
305,152.75023517142859,-4.032965445979592,5.294520599999999,-7.098150544632653
306,153.24655782,-4.18521280524,5.89684045718,-6.69788168326
307,153.74789296400002,-4.29956600654,7.01952981262,-5.47159276424
308,154.24922845999998,-4.07858354176,5.03749846804,-7.35925435172
309,154.750563968,-3.9373282836800003,6.27261303402,-6.67946997046
310,155.25189944,-3.96026957706,6.31440013734,-5.98881818838
311,155.75323528,-4.39416329036,6.37545816644,-6.0582917173999995
312,156.24955745918368,-3.6531562836734697,5.584369896061225,-7.066529565918367
313,156.74587944,-3.82145723874,6.66346824656,-6.5354873839200005
314,157.24721472,-4.529293286160001,6.23790620718,-5.74372685856
315,157.74854989,-3.3908327270000003,6.151667541519999,-7.01547324836
316,158.24988494,-4.32617167968,6.48898209232,-6.23835227968
317,158.75122038,-4.5211891388,6.0011495452200005,-5.55298151552
318,159.2525555,-4.05949823,6.87570888976,-6.40762627242
319,159.75388992,-3.9292211426400003,5.830833718899999,-6.67709590768
320,160.25021123469386,-4.137515380285714,5.777782997551021,-6.686705129469388
321,160.746532912,-4.388238610799999,6.87651122144,-5.699874050979999
322,161.2478678,-3.4993480682,5.53273761294,-7.23148305392
323,161.74920236,-4.0937679656,5.90407341616,-6.87571487744
324,162.25053692,-4.1645108551,7.25091264966,-5.19906947938
325,162.75187124,-3.4511393189199997,5.74797502442,-7.281655718880001
326,163.2532057,-4.09789638054,6.22420669554,-6.6851521542
327,163.74952744081634,-4.000205000285715,6.959966470959183,-5.453917703530612
328,164.24584882,-3.6721187895600003,5.909459216279999,-7.13297889408
329,164.74718257,-4.2584285522,6.00461334224,-6.6543971103
330,165.24851660000002,-3.91061483456,6.7236131743800005,-5.63907648002
331,165.74985121999998,-3.6866176391599996,5.891733078,-7.0649543518
332,166.25118554,-3.95777576302,6.28424085394,-6.59050397652
333,166.752519964,-3.9586649139000003,6.68345767822,-5.7250457061199995
334,167.253854166,-3.5604390288600003,6.0550434723,-7.110783050559999
335,167.75017436530612,-3.8718270655510203,5.995476220551021,-6.975366079877551
336,168.24649482,-3.79068423156,6.23114027708,-6.2046184296
337,168.74782905200001,-4.77969856568,5.19890182802,-7.37555844736
338,169.24916314,-4.3941722717400005,5.85736454772,-6.389633688379999
339,169.750496668,-3.88472467352,6.3191572449199995,-5.96010190422
340,170.25183035999999,-4.3811283966,6.61558881226,-6.49485288404
341,170.753164296,-3.89715183104,5.7576359344800006,-6.6082001769600005
342,171.24948466938775,-4.150309183571428,6.316750983387755,-6.1330707037346945
343,171.745805156,-4.4898473145,6.04993908692,-6.60538303528
344,172.24713889999998,-3.58267678526,5.9013909943,-6.70425542902
345,172.74847244,-4.13357319034,6.33907781988,-6.31296911324
346,173.24980606,-4.86835620126,6.39576194456,-5.77147016598
347,173.7511394,-3.4413287200999996,5.779149197420001,-6.952256707619999
348,174.25247274,-3.9197997344599997,6.22757169802,-6.67855986314
349,174.753806448,-4.58290579832,6.45699660636,-5.564244094839999
350,175.25012636734695,-3.3310689248163268,6.003712155020408,-7.180870364428571
351,175.746445812,-4.103452826,6.12602885744,-6.5909979492
352,176.24777854,-4.41481135248,6.24947714536,-5.80488966984
353,176.74911167,-3.54148843682,6.3113255309600005,-6.78793741146
354,177.250444686,-3.8098264252000003,6.44812605284,-6.5879652557199995
355,177.751777896,-3.97372659308,6.364503945799999,-5.61061766054
356,178.25311097999997,-3.80720986628,6.41934689938,-6.84498977052
357,178.74943047346937,-3.922980894795918,6.400454472204081,-6.508847435142857
358,179.24574995999998,-4.1600501312,6.32961150516,-5.73107816158
359,179.747082668,-3.9625238892200003,6.026366107139999,-7.035932702779999
360,180.24841533999998,-3.89241268618,6.0089363526,-6.66755474846
361,180.74974828400002,-4.05401064146,6.1746477539,-5.8020395966
362,181.25108110000002,-4.01731295464,6.9137148559399995,-6.5208867461199995
363,181.75241360799998,-3.8323126648,5.2779404663000005,-7.111339892539999
364,182.25374614,-3.95106970822,5.99473388672,-6.21785390624
365,182.7500654857143,-4.141737213122449,7.294077805530613,-5.888992552448979
366,183.24638474,-4.1397792846599994,5.14006817318,-7.1829898957800005
367,183.747717386,-3.99661399834,5.90074433902,-6.442309149420001
368,184.24904994,-4.32258214418,7.25137668458,-5.59340345782
369,184.7503825,-3.8095869232,5.3557336945600005,-7.33505567326
370,185.251715,-4.2280357544600005,5.8907810577,-6.702063986340001
371,185.75304756000003,-4.35945047602,7.08497072764,-5.14762445992
372,186.2493667632653,-4.128179691938776,4.983073359897959,-7.480690762285714
373,186.74568599999998,-4.020609100280001,6.13567779244,-6.6785808195000005
374,187.24701858,-4.07639808656,7.058185427900001,-5.4308295319
375,187.74835118,-4.05326519162,5.37961503296,-7.22063960262
376,188.24968372,-3.82123270568,6.046032211299999,-6.85107910756
377,188.751015916,-3.7613931427,7.19988376464,-5.2159184417799995
378,189.25234824,-4.65773518984,5.90281902468,-6.76452609568
379,189.75368085999997,-2.993915121408,5.89483462824,-6.95187051092
380,190.25000008163263,-3.2894279667183675,6.498082066714286,-6.510888089877551
381,190.746319892,-4.811911578382,6.5366938752,-5.423958819539999
382,191.247652748,-3.2908765869352,5.9932489747,-7.00232159702
383,191.748984746,-4.14250361942,5.74662183852,-6.6994623961399995
384,192.250317102,-3.8647981109760003,5.757594021679999,-6.7317771971800004
385,192.751650372,-4.49131127011,7.60523782658,-4.88116057426
386,193.25298346,-4.233388623,5.3374626892200006,-6.96307022104
387,193.75431633600002,-3.768802734406,6.17222279666,-6.74534797682
388,194.25063586530612,-3.903842122673469,6.31720615932653,-6.1971741344489795
389,194.746955384,-4.52842509158,6.55946452336,-5.64916549986
390,195.248288264,-3.451929675326,5.6801031646,-6.87199062196
391,195.749621006,-3.97368168636,5.9285505157600005,-6.96012734072
392,196.25095377999997,-4.429774237,5.9201679472199995,-5.723809277399999
393,196.752286424,-4.40141121824,7.2734557709,-5.843521334859999
394,197.2536192,-3.9598205109,4.83779575198,-7.35786823426
395,197.74993918163264,-4.124245016877551,5.960641516836734,-6.616122315183673
396,198.246258942,-4.410949383479999,7.1979797240200005,-5.16414111336
397,198.747591984,-3.7556810211,5.50136585092,-7.238114264020001
398,199.24892498,-4.0886875305,5.89886125494,-6.81155829176
399,199.75025773599998,-3.9284367736,6.49473313296,-5.727165298580001
400,200.25159064,-4.52776047366,6.3727547882,-6.1392733152200005
401,200.75292335999998,-3.718483373994,5.554729879720001,-6.90836797464
402,201.2542562,-4.07135956414,6.27610078124,-6.66243240042
403,201.7505763346939,-4.6935020571224495,6.155209359877551,-5.49442530422449
404,202.24689636,-3.6581318755799996,6.3409309662,-6.71821839294
405,202.748229396,-4.40239617,5.53072280266,-6.93708425896
406,203.24956235999997,-4.33159340516,5.746130859359999,-6.1685793732
407,203.750895328,-4.5672064453,6.85219578546,-5.88223981924
408,204.25222832,-4.11788880616,5.354338595540001,-6.79457161552
409,204.75356156400002,-4.17548603206,5.88396722738,-6.7811684876200005
410,205.24988162653062,-4.300462244816327,7.190594021571428,-5.162168277081633
411,205.74620152,-3.7092296173,5.63775323182,-7.24963131402
412,206.24753476,-4.0536753388,6.216883923399999,-6.68816688546
413,206.74886834,-4.112574856559999,6.52262912292,-5.78972021486
414,207.25020184000002,-4.24362733156,6.55192619928,-6.07141642472
415,207.75153503599998,-3.184169485456,5.92881097412,-6.82727860108
416,208.25286830000002,-3.8931401733399995,6.25248888244,-6.8247997561
417,208.754201516,-4.78898525386,6.064656482,-5.53080962228
418,209.2505214265306,-3.304103570985714,6.502667429367348,-6.93634620244898
419,209.746841526,-3.74715475154,5.5891133789200005,-6.749997308419999
420,210.24817490599997,-3.804611270178,6.154927761840001,-6.6674679293
421,210.749508244,-4.49105081174,6.8854147064,-5.306791470299999
422,211.250841584,-3.646629794286,5.79876740112,-7.1455677154199995
423,211.752174876,-4.4598946015,6.1290855010400005,-6.407198162539999
424,212.25350816,-4.06409666748,6.4583258423,-5.8678218017
425,212.74982838979594,-4.612285234061225,6.304439849795918,-6.213966765061225
426,213.24614856,-4.00996623234,5.69288957526,-6.55379431446
427,213.747481506,-4.17698591308,6.49632582088,-6.64397578114
428,214.24881450600003,-4.61350217278,6.48413517146,-5.202557226520001
429,214.750147586,-3.345791391,6.24442664786,-7.12725180368
430,215.25148084399999,-4.05701639102,6.45138028558,-6.35348086842
431,215.75281417999997,-4.08174197396,6.17872228082,-5.76947032474
432,216.25414758,-4.1592627685600005,6.82964068926,-6.3422751712
433,216.75046695918368,-4.111646725367347,5.702153535163265,-6.597258481346939
434,217.24678638,-4.22260504764,6.1874730835200005,-5.87647680356
435,217.74811965199999,-4.396324795616,6.79743366394,-6.214189526279999
436,218.2494528,-3.6395046112199996,5.86501663516,-6.79439198908
437,218.75078585800003,-3.87633911134,6.21195317692,-6.29935043316
438,219.25211878,-4.495125338799999,7.37910307616,-5.08696160878
439,219.75345146,-3.72716831368,5.300920678700001,-7.6804863465
440,220.2497708755102,-4.380182180644898,6.215885224632652,-6.5651701076734685
441,220.746090804,-3.75886040962,6.7603737305200005,-5.65049473566
442,221.24742402,-4.8093698639,5.921326538040001,-6.56002435902
443,221.748756798,-3.6948235748399996,6.1624600982799995,-6.475312518319999
444,222.25008962,-3.512080590878,6.77820165726,-6.036506021159999
445,222.751421682,-4.06609950258,6.5998984405600005,-6.023914205820001
446,223.25275398000002,-3.8652022704799998,5.76940745542,-6.70538707606
447,223.75408696800002,-4.39358549188,6.19561914364,-6.75009011524
448,224.25040652040818,-5.223751438673469,5.920970950897959,-5.584815907408164
449,224.74672596199997,-2.97129416198,5.96932272946,-7.034127456679999
450,225.248058582,-4.06141424556,6.31821420596,-6.8692992185
451,225.74939066399998,-4.50760039674,6.37907763978,-5.51059266362
452,226.25072284,-3.66768201594,5.96286815184,-7.007009847839999
453,226.75205545400001,-4.17785111398,5.82825607906,-6.66796190192
454,227.25338802,-4.0183877197,5.779484500060001,-6.24850117498
455,227.74970739795916,-3.8588896832244894,7.2377062551836735,-6.162333321224489
456,228.24602663999997,-3.83636324166,5.42688074336,-7.05838900456
457,228.747358876,-4.33973946532,5.98957860726,-6.38947501838
458,229.248691048,-4.44910204468,6.97389271552,-5.54569766238
459,229.75002295800002,-4.20521720588,5.37857918696,-7.02875063788
460,230.25135492,-4.22207215578,6.3432810791,-5.9212995941
461,230.752687412,-4.89303687746,7.01934719238,-5.412741146859999
462,231.25401978000002,-3.5915922455,5.87262381594,-7.2033804934
463,231.75033839591836,-4.32866176677551,6.202773714653062,-6.377808706979591
464,232.24665708,-4.30607447204,6.7823360595999995,-5.545383316
465,232.74798906,-4.24165144042,5.28905335698,-7.19958139338
466,233.24932099999998,-4.35312463068,6.03788315734,-6.3395687989
467,233.750652956,-4.3812062348000005,6.8876690186200005,-5.7233811675799995
468,234.25198486000002,-4.09514210818,5.3842254456,-7.02474496786
469,234.75331638,-4.02110307314,6.17459685978,-6.27600498044
470,235.2496345632653,-4.217244480714285,7.155640178020408,-5.725052854428572
471,235.745952834,-3.88840701598,5.3153955779199995,-7.2783865173799995
472,236.247284424,-4.1796144470400005,6.2548599518,-6.39486081854
473,236.74861610600001,-4.30861918028,7.0561915741,-5.31234192814
474,237.24994782000002,-3.91670716552,5.04202206122,-7.44344228204
475,237.751279546,-4.152640539606,6.1458566252799995,-6.63713800054
476,238.25261120399998,-4.0632703857,7.05235954284,-5.404535211260001
477,238.753942528,-4.49713116762,6.00677784116,-6.39645650012
478,239.25026058163266,-3.502569430581633,5.7588825054897965,-6.860533447448979
479,239.74657887599997,-3.72437811588,6.4654510254,-6.81786318084
480,240.24791042,-4.85817138058,6.140180429120001,-5.46968573006
481,240.74924156400002,-3.4442236999599998,6.23243658136,-6.87525982364
482,241.25057261999999,-4.25350379342,5.631502230820001,-6.7032614960800005
483,241.751903934,-4.08964853206,6.01850744928,-6.107745877019999
484,242.25323516,-4.53311334232,7.37902823172,-5.36942721888
485,242.74955292244897,-3.811673583979592,5.611656011530613,-7.005905633836735
486,243.2458707,-3.8180832550640003,6.06776102602,-6.806414987099999
487,243.7472018,-4.17550100106,7.478927490219999,-4.91805585026
488,244.24853282,-4.10203078302,5.830707980360001,-6.7629992708
489,244.749863874,-3.85073335874,5.83603689876,-6.85950957618
490,245.25119486,-3.8767223144600003,6.404632498160001,-6.30419436024
491,245.752525746,-4.72505020758,6.3550555939,-5.35618276066
492,246.25385664,-3.591274905378,6.587513195740001,-6.5565875062
493,246.75017386938777,-4.289382224591837,5.684255041061225,-6.418933392306122
494,247.246491082,-3.794148028546,6.00619704886,-6.802750607399999
495,247.74782226399998,-4.55348298344,7.49357602848,-4.92891427002
496,248.24915342,-3.9432320067916,6.124391262960001,-6.7386329403800005
497,248.75048432,-4.060294574,5.8260646363,-6.4025308681399995
498,249.251815126,-3.8334443115142602,6.66524654838,-6.24410930778
499,249.753145706,-4.9205975646799995,6.467546667400001,-5.23677906194
500,250.24946300816325,-3.87472002922449,6.361565953469388,-6.647425587000001
501,250.745780372,-4.386601016258,5.68599191894,-6.314843215780001
502,251.24711100000002,-3.8618672058560004,5.892855743359999,-6.69594770516
503,251.748441756,-4.23535553286,7.669220773419999,-4.9517208434999995
504,252.24977248,-3.9517971955199998,5.5232114228,-7.14644788504
505,252.75110256,-3.884817480464,6.1225201538,-6.52466788318
506,253.25243257999998,-4.14110253296,6.4250620148,-6.097088040239999
507,253.75376312,-4.82661101072,6.3214594573,-5.6340080199800004
508,254.25008034693877,-3.384987412989796,5.7891043526530614,-6.9314736814489795
509,254.74639747,-3.9519917907399997,6.5764661683,-6.65695079934
510,255.24772787999999,-4.61564571526,6.100414123499999,-5.5371444488999995
511,255.74905847,-3.7426700774839996,6.6017665558,-6.7081533233799995
512,256.25038902,-3.86336109932,5.5273578003,-6.81719257524
513,256.751719556,-4.29994322202,6.13674656994,-6.275352337819999
514,257.25305008,-4.25226736448,7.4105107635800005,-5.1044482452599995
515,257.7493671428571,-3.705727573367347,5.404276035816326,-7.27628928687755
516,258.24568419999997,-4.29594653322,6.20589677138,-6.62500423296
517,258.747014032,-4.61275073546,6.235954266359999,-5.58441315306
518,259.248343852,-4.86051849972,5.52855531004,-6.831631549160001
519,259.749674414,-3.6138659270199995,5.42898836062,-7.07707015676
520,260.25100496,-4.06206389468,6.39020250546,-6.51346517952
521,260.75233491,-4.86939204714,6.189742364480001,-5.30541134036
522,261.25366482000004,-4.03056040644,6.28837825008,-6.77559707324
523,261.7499819,-4.140405288959184,5.833152549897959,-6.544192302163265
524,262.246299,-4.28434565734,6.02186047672,-6.002119527920001
525,262.7476289,-4.23774456488,7.29848971248,-5.6840579407
526,263.24895872,-3.9031483612,5.5664115876,-6.83749934704
527,263.75028888,-3.92735901486,6.28975538634,-6.1483833710399995
528,264.2516189,-4.49199385066,7.446819259620001,-4.8727330993999995
529,264.752949,-4.05468723437,5.93395128482,-7.0012438384
530,265.25427909999996,-3.9598564362000004,5.70010756538,-6.74297690754
531,265.750595844898,-3.938490479097959,6.598468210469388,-6.113791407448979
532,266.2469127,-4.78449159852,6.45045520932,-5.44140054932
533,266.748242244,-3.77137738034,6.188898120159999,-6.77736938804
534,267.24957173999996,-4.74487198792,5.9266913818,-6.364288394180001
535,267.75090152,-4.50743873288,5.82117280882,-5.7897471588
536,268.25223134,-4.3040806182799995,6.70001325074,-6.24169931936
537,268.75356131,-4.1018631317,5.691542376680001,-6.6288871584
538,269.2498780122449,-4.029443178857143,5.826596794918367,-6.705633115306123
539,269.74619442,-4.22666460566,7.29152918698,-5.244482043440001
540,270.2475241,-4.19940928344,5.38699468684,-7.148741116359999
541,270.748853492,-4.0428917633,6.29208454298,-6.55833886404
542,271.25018282,-4.02934493408,7.07001981812,-5.51531384582
543,271.751512584,-4.2952519775399995,5.84984418632,-6.83533185422
544,272.25284236,-4.05986347052,5.854038464359999,-6.78943130482
545,272.75417200600003,-4.13323489378,6.44663215946,-5.76187511904
546,273.25048836938777,-4.885137223183674,5.593036567591836,-6.932772001938776
547,273.746804676,-4.21298305664,5.52200193784,-6.643415945499999
548,274.24813428,-4.08985210864,6.18751200254,-6.5455793978
549,274.74946403999996,-4.9257887694999996,6.07321867668,-5.813562634339999
550,275.25079376,-3.98373478092,5.24566458434,-7.18132835074
551,275.752123392,-4.65804354864,6.06715328978,-6.638637881659999
552,276.25345308,-5.042031042500001,5.89505018004,-5.3196347626
553,276.7497686285714,-4.1789486071632655,5.781806263897959,-6.906197671959183
554,277.24608402,-4.66813256842,5.96370640868,-6.61519962154
555,277.747413572,-4.63417418522,5.79334268182,-5.74287962032
556,278.24874304,-4.49691860958,6.3639920104800005,-6.53605320764
557,278.750072446,-4.31558569338,5.29630427856,-6.80228657244
558,279.25140186,-4.35567832032,5.59724746396,-6.51218983184
559,279.75273142,-4.2580184051600005,7.13773600156,-5.6344271483
560,280.25406096,-4.19609517508,5.02469110114,-7.25071506044
561,280.7503767571429,-4.269534722204082,6.044207536326531,-6.647000959857143
562,281.2466925,-4.69295694578,6.9372549042000005,-5.0548863098200005
563,281.74802176000003,-4.26395505982,5.25561289668,-7.37143901366
564,282.249351,-4.32290547186,5.778005575560001,-6.77545636582
565,282.750680044,-4.28607905278,6.63880253918,-5.6591916503799995
566,283.252008942,-4.2999971099200005,6.10089013378,-6.52905675664
567,283.75333864600003,-3.9415495056200003,5.88214102472,-6.76780427842
568,284.24965500612245,-4.363331507469388,6.224750462775511,-6.003370009428571
569,284.74597086800003,-4.31485521242,6.34705922246,-6.42580147708
570,285.2472999,-3.96107190854,5.275150268480001,-7.0302056121400005
571,285.74862906,-3.7712875670940003,6.47420781554,-6.631368997319999
572,286.24995818,-4.65370856326,6.338224594020001,-5.58969117742
573,286.751287398,-3.76851832584,5.60331883848,-7.116111968919999
574,287.252616538,-4.53315824888,6.20160669256,-6.566987878359999
575,287.753945354,-5.24747881172,5.4055441131999995,-5.9209732727
576,288.2502607857143,-4.231144147591837,5.554511578571429,-6.813213482183673
577,288.74657632,-4.136510083,6.4896676666,-6.79157484726
578,289.24790522,-4.71801184386,5.86141213076,-5.75087000426
579,289.749233988,-3.885739563,5.490151171899999,-7.21970255134
580,290.25056268000003,-4.36630322568,6.0898850189600005,-6.68128120416
581,290.751891884,-4.94953538816,5.6513329925599995,-5.91002204596
582,291.25322114,-3.9271883696999996,5.87713842772,-7.0166887210599995
583,291.7495364571429,-4.412081152469388,5.460888921020407,-6.713221417142858
584,292.24585168,-4.1181492644799995,5.57008794242,-6.5214136504999995
585,292.74718087,-4.5745771178400005,7.19694986572,-5.629774822860001
586,293.24851014,-4.1678070008,4.79593679812,-7.49608780536
587,293.74983903,-4.32691413578,5.9003551483,-6.674635025180001
588,294.25116787,-4.10675795292,6.626261618,-5.8445422119399995
589,294.75249699799997,-4.327252432278,6.01020271906,-6.523461392100001
590,295.2538261,-3.7472206146,5.52423828736,-6.89601266774
591,295.75014206530614,-4.271825876,6.291545235795918,-6.671586568244898
592,296.2464582,-4.74470733028,6.08837016918,-5.430458303840001
593,296.74778698800003,-4.039110626159999,6.20339098204,-6.8407535797
594,297.24911568,-4.054471682718,5.71255867308,-6.58054967634
595,297.750444782,-4.08048159484,5.897032058800001,-6.80573839432
596,298.25177388,-4.50807640686,7.0949220336600005,-5.11069026492
597,298.75310321,-4.37283863522,5.606267706280001,-7.00764452838
598,299.2494193653061,-4.063217842,5.663213083693877,-6.752287118142856
599,299.745734874,-3.9907162628,6.2227577086600006,-6.3769700225
600,300.24706360799996,-4.83423914798,6.03564082038,-5.739739151
601,300.74839244,-3.8904547577,5.72345900584,-7.1659882507
602,301.24972117199997,-4.35391498716,5.50237475286,-6.773708001899999
603,301.751050502,-4.3149031128,5.78203818966,-6.368955688260001
604,302.25237993999997,-4.90191341866,7.100882638540001,-5.04557866514
605,302.753709022,-4.084169925,5.6413128297,-7.122288125699999
606,303.2500248367347,-4.389142119734694,5.67644678855102,-6.748596833183674
607,303.74634032,-4.31191831974,6.28638439632,-5.979992541420001
608,304.24766904,-4.81014225768,5.97467559808,-5.8877423767
609,304.748997996,-3.82084351498,5.439233056640001,-7.350407748359999
610,305.25032694000004,-4.2124711212,6.040448822119999,-6.45616733108
611,305.751656084,-4.114380102476,5.90375308228,-6.632785052200001
612,306.25298526,-4.64052996822,6.84535800484,-5.439310894799999
613,306.75431432,-4.25527311402,5.774664523379999,-6.73414826684
614,307.25063005306123,-4.159134708285714,5.234571794795919,-6.96282583110204
615,307.74694568,-4.4170776397800005,6.2713766052599995,-6.22415879492
616,308.24827452,-4.9923134307599994,6.07129068606,-5.64079191278
617,308.749603834,-4.38083800048,6.3126038727000005,-6.35958816866
618,309.250933204,-3.92976301568,4.79545180668,-7.234566641200001
619,309.752262164,-4.4655438538,6.12070592646,-6.715652728239999
620,310.25359108,-4.38621481934,6.51154317622,-5.592122122219999
621,310.7499067020408,-4.358764474061225,6.540327889673469,-5.92359203089796
622,311.24622225999997,-3.68372265924,5.4985217651200005,-7.168290463240001
623,311.7475513,-4.52153641662,6.35658241886,-6.34362236952
624,312.24888033999997,-4.41706865838,5.81506251524,-5.951997756980001
625,312.75020934,-4.408617233298,6.39986042172,-6.3293749966999995
626,313.25153834,-3.94533962406,5.137936605879999,-7.21193071306
627,313.75286728,-4.269700112904,5.96391297912,-6.87373000492
628,314.2541962,-4.02592903746,6.75514061276,-5.6607573944
629,314.75051155510204,-4.392820185510204,5.947517787285714,-6.666405505755102
630,315.24682676,-3.9048608001539997,5.2944631073,-6.88665712254
631,315.74815591,-4.10689267272,6.456328994660001,-6.48013548884
632,316.24948520000004,-4.77915369874,6.10579992368,-5.44985796204
633,316.75081406000004,-4.13233676154,6.398207858119999,-6.7398005124600004
634,317.2521428,-4.21732103574,5.49289945676,-6.67642530214
635,317.75347202,-4.184497293174,5.89452926338,-6.60457771006
636,318.2497880122449,-5.204178874755102,6.8913418298163265,-4.842537035244898
637,318.746103528,-4.1513532165200004,6.1504371001200004,-6.809950634760001
638,319.24743228,-4.602461132799999,5.97814238896,-6.12671143784
639,319.748761296,-4.31703767392,6.3853945038,-5.93704984144
640,320.25009042,-5.12506636968,6.340080734240001,-5.41715097646
641,320.751419494,-3.8212267181760002,5.5783687225200005,-7.029496087579999
642,321.25274866,-4.81656390386,6.60854446114,-6.1476229523
643,321.754077736,-4.06601567692,6.36585413822,-5.59102939454
644,322.2503935653061,-4.248844075061225,6.278198500632653,-6.6466985273877555
645,322.746708996,-4.2143901306,5.70755308228,-6.64487091976
646,323.24803756,-4.00046997988,6.30851437694,-6.01920200494
647,323.74936673,-5.155662744160001,6.56792492978,-5.7227943878600005
648,324.250696,-4.1835093476,5.2964599548199995,-7.12852116396
649,324.752025114,-4.380535629280001,6.10036023556,-6.562596011299999
650,325.2533543,-4.37958660276,6.70551580796,-5.4527140227999995
651,325.7496696714286,-3.916238792571429,5.459153753714285,-7.338407050959184
652,326.24598478,-4.0536843199999995,6.5289399993799995,-6.41402396858
653,326.747313924,-4.56802973326,6.5751908203000005,-5.38916816714
654,327.24864322,-4.77783643796,5.47721507264,-7.065113021859999
655,327.749972132,-4.34673292238,5.7073584869000005,-6.5914350403799995
656,328.25130092,-4.18429671018,6.55218965156,-5.742217996220001
657,328.752630144,-5.0453780823,5.7497293761799995,-6.50915414448
658,329.253959584,-4.03883519894,5.605001339739999,-6.760412649459999
659,329.7502752020408,-4.118532406530612,6.599751256897958,-6.164957456265306
660,330.2465908,-4.975703970420001,5.81934361268,-6.04968461606
661,330.74791982000005,-3.8570741730000004,5.627221133420001,-6.90328155192
662,331.24924886,-4.40422836,6.06036041562,-7.0228948149
663,331.750577844,-4.65716337892,5.881778778,-5.67255885316
664,332.25190686,-4.1949964599200005,6.0709194580400005,-6.82968858956
665,332.75323603199996,-4.31966321416,5.799153597959999,-6.63167136838
666,333.24955194693877,-4.801913349408164,5.896171501346939,-5.676083258795918
667,333.74586779,-4.193882775900001,6.05152578732,-6.84078351732
668,334.24719696799997,-4.37163813176,5.82801957092,-6.525832461259999
669,334.748525986,-4.77405230718,5.70068237004,-5.8687678345
670,335.24985488,-4.79611941834,6.46974110412,-6.40812024546
671,335.75118398,-4.11377835392,5.483235552999999,-6.92686650718
672,336.25251307999997,-4.44285703124,5.8125267884200005,-6.5201802156
673,336.753842124,-4.46475349736,7.113657073980001,-5.22358250426
674,337.25015793061226,-4.052996240795919,5.063553958795919,-7.537651903102041
675,337.746473794,-4.3518941894,5.98136069642,-6.60641289358
676,338.247803,-4.4093596892599995,6.72209533082,-5.4940999603
677,338.74913215399994,-4.34329307558,5.4688384918,-7.0807704619
678,339.25046133999996,-4.49279917604,5.93077489008,-6.43788435072
679,339.751790432,-4.342876941,6.9228758056,-5.32834664612
680,340.25311942,-4.287833404560001,5.47841258242,-7.120668493619999
681,340.7494352979592,-4.298412425816327,5.823694666673469,-6.703403058795918
682,341.24575116,-4.16346004024,7.139436465479999,-5.25261912224
683,341.74708039999996,-4.2494532166,5.30728843692,-7.27659923402
684,342.24840967999995,-4.44054284368,5.86862413326,-6.611247839300001
685,342.74973879799995,-4.4869972412,6.87821168522,-5.2868918518
686,343.25106782,-4.75368565976,5.21923255002,-7.04349198302
687,343.752396972,-4.3845772247,5.79364205934,-6.664252615420001
688,344.25372603999995,-4.609113299620001,6.0160315979200005,-5.78068200996
689,344.75004209183675,-4.996866106306123,5.595019179367347,-6.507164200816327
690,345.24635832,-4.26848464054,5.59543623048,-6.53965172396
691,345.747687706,-4.55222859198,5.9130307891600005,-6.62947992544
692,346.249017342,-5.370609759520001,5.89978034362,-5.41104667046
693,346.750346564,-4.08075402836,6.21560857538,-6.685723965639999
694,347.25167569999996,-4.77530071102,5.28312867742,-6.40105493768
695,347.753005054,-4.42365196836,5.75242676694,-6.200696585079999
696,348.25433442,-4.6607259704,7.05199430232,-5.6710350218
697,348.7506505877551,-4.285615567510204,4.9103246416530615,-7.169179369612245
698,349.24696689999996,-4.3753204743,5.886984951760001,-6.76317290954
699,349.748296158,-4.7252238464,6.78846132204,-5.0124375824800005
700,350.24962534400004,-4.45301490782,6.42141559754,-6.29659616064
701,350.750954708,-3.9954194825399996,5.50926642154,-6.82679959696
702,351.25228394,-4.39798933412,6.406976623519999,-6.272741766479999
703,351.753613314,-4.75811644586,6.35960912462,-5.3162547913200005
704,352.2499293836734,-4.103719332877551,5.954944180857144,-6.664697832265306
705,352.746245804,-4.83079930114,5.402783853140001,-6.48267420956
706,353.24757578,-4.3694257324,5.84793715238,-6.07260794684
707,353.74890548,-4.73106470036,7.10873830258,-5.51696042172
708,354.25023532,-4.6781647064200005,4.79816416624,-6.96300735156
709,354.75156471200006,-4.15770899966,6.38282883896,-6.41115892658
710,355.25289384,-4.46307099602,7.23821904594,-5.00343230894
711,355.75422372,-4.73506438296,6.0467147919399995,-6.2652872681
712,356.2505405795918,-4.1468846722653065,5.315718355693877,-6.8026772291020405
713,356.74685711,-3.7884389006999997,6.537298617579999,-6.28006154476
714,357.24818700000003,-5.293855371119999,6.29844930738,-5.18274742118
715,357.74951692,-4.039104638654,6.168471597300001,-6.7438750397
716,358.25084684,-4.3759312042800005,5.81914901726,-6.4856590028
717,358.75217662,-4.435677960234,5.929589355519999,-5.7804904082799995
718,359.25350602,-4.91610989684,6.880151651019999,-5.36478088074
719,359.7498226755102,-4.277700394673469,5.40686656722449,-6.8043451891428575
720,360.2461393,-4.45286521906,5.98697701728,-6.69158278212
721,360.74746911,-4.326033966080001,6.4004591766,-5.650425878879999
722,361.24879898,-5.0850396057400005,6.2647424011199995,-5.5229270141999995
723,361.75012884000006,-3.8619989318799997,5.5736684967,-6.96874941102
724,362.25145872,-4.56900570374,6.29171930236,-6.46070888674
725,362.75278856999995,-4.70084254758,5.95514720758,-5.49304615176
726,363.25411842,-4.537798599199999,6.97375799556,-5.88453005666
727,363.75043508163265,-4.523507603204082,4.728843869612245,-6.817456699224489
728,364.24675182,-4.039487841732,5.865591439999999,-6.759119338960001
729,364.748081608,-4.7853627868199995,7.32900525508,-4.8236801056
730,365.24941114,-4.8059479798,5.41943223258,-6.80986680894
731,365.750741162,-4.105240109244,5.68768639518,-6.7179609283
732,366.25207142799997,-4.36904252928,6.30640975346,-6.16003514112
733,366.75340108999995,-5.07322317808,6.2529499237,-5.2944571197200005
734,367.24971724693876,-4.170743221367347,5.709897635244897,-6.894011787714286
735,367.746033922,-4.52559597472,5.86225637516,-6.563095971699999
736,368.24736416,-4.68486776738,5.63440319822,-5.527211105379999
737,368.74869380800004,-4.82785941468,6.695762091080001,-6.2239911439
738,369.25002314,-4.269248053,5.06825950018,-6.982143557960001
739,369.75135278,-4.374527124,5.80895521562,-6.51142342524
740,370.25268236000005,-4.82207244868,7.1615275268400005,-4.97383585508
741,370.754011988,-4.54439089046,6.006583245959999,-6.60502677612
742,371.2503283367347,-4.596662619510204,5.359280828387755,-6.632826354530612
743,371.7466446,-4.61842992554,6.3091460632,-5.7818495818799995
744,372.24797420000004,-5.41500144654,5.7612194824400005,-5.87412369692
745,372.749303706,-4.01806139828,5.4931838654,-6.87200259738
746,373.250633068,-4.46890286866,6.52035984188,-6.309256832900001
747,373.751962766,-4.71578746952,6.28111535346,-5.4272399964
748,374.25329256,-3.7914087250199997,6.21870713198,-6.910307940699999
749,374.7496088836735,-4.777544636632653,5.881291220469387,-6.471828498428572
750,375.24592537999996,-4.80254705202,5.889002755620001,-5.6194343261799995
751,375.74725484000004,-4.55582411504,6.618597555579999,-6.31699574008
752,376.24858426,-4.068853775,4.83623000794,-7.19456382744
753,376.749913646,-4.29120439454,5.849520858759999,-6.2171234252600005
754,377.25124284,-5.16266817636,6.69620516968,-5.575683306959999
755,377.752572308,-4.4841920746,5.36446653442,-6.9001350952400005
756,378.25390162,-4.5138364288399995,6.01800748898,-6.46948962704
757,378.7502178142857,-4.348264879530612,6.967365370755102,-5.10565314777551
758,379.24653398000004,-4.3193279114,5.31692539676,-7.19177662368
759,379.7478635,-4.6067841431,6.212548938,-6.408174133239999
760,380.24919289999997,-4.56509882808,6.2164917389,-5.61230914312
761,380.750522614,-4.659486547899999,6.06732692876,-6.63902707228
762,381.25185270000003,-4.16525331124,5.70849013368,-6.63734756462
763,381.75318184,-4.3375599975400005,6.51634519042,-5.72181242988
764,382.24949722448986,-4.986177109673469,6.178997647020409,-6.0526695311428576
765,382.74581336000006,-3.9972217346,5.734643746960001,-6.592521780419999
766,383.24714272,-4.5755500944800005,6.03162616878,-6.3953787412
767,383.748472084,-5.4649286224599996,6.0004040954799995,-5.45715678406
768,384.24980151999995,-4.12231659856,5.5100687530200005,-6.92169027088
769,384.75113083800005,-4.554611636394,6.231622274799999,-6.43713890076
770,385.252460264,-4.94299997856,6.11539197696,-5.4970069153
771,385.753789676,-4.09995010986,5.49714762268,-6.94936472156
772,386.25010598367345,-4.7493451145306125,5.730493581306123,-6.688113425183674
773,386.746421924,-5.239467471279999,5.90276214276,-5.591789813179999
774,387.2477511,-4.4626099548600004,5.8722436065600006,-6.76416085532
775,387.74908028,-4.57499624634,5.59603498534,-6.607571484459999
776,388.25040952,-4.57699309384,5.89770865178,-5.56491470028
777,388.75173853599995,-4.67875447994,6.58009462278,-6.3681593442799995
778,389.25306728000004,-4.30167961124,5.19815338436,-6.91170902706
779,389.74938321224494,-4.259655266591837,5.836057733061224,-6.154479245673469
780,390.24569936,-5.041722683660001,6.9383655944800005,-5.52455562756
781,390.74702836999995,-4.29243184202,5.05557188416,-7.300753006
782,391.24835706,-4.42925332036,5.67068774412,-6.52708086552
783,391.749686248,-4.8894443481000005,6.77775259088,-5.4099060425
784,392.25101548,-4.45946349792,4.83909205624,-7.303270770379999
785,392.752344612,-4.43430381776,5.842796841399999,-6.59094705494
786,393.25367386,-4.72102058714,6.947828915420001,-5.11425884402
787,393.74998945102044,-4.156803841095918,5.885769662591837,-7.058385277714286
788,394.2463048,-4.24038806762,5.63461875012,-6.65706156932
789,394.74763378000006,-4.03469780282,6.71490727838,-5.76693759154
790,395.24896278,-5.06370596926,5.903471667500001,-6.0989381929399995
791,395.750291806,-3.631499258462,5.55105951232,-6.98794249886
792,396.25162098,-4.45250896,5.78733417662,-6.8472021699
793,396.75295004599997,-5.0144164673,5.9061989961,-5.5263997925
794,397.25427920000004,-4.338185696442,6.19437373344,-6.729205545239999
795,397.75059475510204,-4.428641612714285,5.037001012653062,-6.847073681918368
796,398.24691013999995,-4.164798257466,5.4812686432,-6.8163722807800005
797,398.748239098,-4.98473918144,7.28726605222,-5.163198074319999
798,399.2495682,-4.2064476471,5.06020325314,-7.07227113646
799,399.75089710400005,-4.43369308774,5.87475538344,-6.80078669118
800,400.25222612,-4.37318890684,6.238900140419999,-5.74526865236
801,400.75355475,-4.8433492035,5.972172802799999,-6.171725830100001
802,401.2498695612245,-3.9575498246326535,5.475714214102041,-6.996682976163266
803,401.74618519800003,-4.5912763916,6.04182296448,-6.53745728774
804,402.24751444000003,-4.9747609314800005,5.60942314454,-5.434688507140001
805,402.74884320999996,-4.81690818788,6.8053731537,-6.00355354592
806,403.25017199200005,-4.1952838623,5.00389035642,-7.145995825259999
807,403.75150088000004,-4.53807702026,5.78253515642,-6.753637737919999
808,404.25283002,-4.1622236114,6.048918209879999,-6.34899320052
809,404.754158798,-5.0587243286,5.847182720959999,-5.526651269579999
810,405.2504741510204,-4.307793937204082,6.016380708734694,-6.811933490897959
811,405.74678954,-4.476468136579999,5.38894962154,-6.47400723256
812,406.24811812,-4.251650647,5.90080122082,-6.61790599372
813,406.74944684,-4.72151156616,6.782452816799999,-5.273910845960001
814,407.25077564,-4.516411074840001,5.90157660822,-6.5064507661
815,407.75210438,-4.33719176324,5.394616836599999,-6.71473663328
816,408.25343308000004,-4.59236013794,6.02762049862,-6.58448948342
817,408.74974855510203,-4.865344708530612,5.830540634306122,-5.621804295734694
818,409.2460641,-4.66797988589,6.378993814079999,-6.332865738000001
819,409.74739259800003,-4.33842819212,5.29806761168,-6.9242080352799995
820,410.24872048,-4.5556235321,5.92707458494,-6.563739633379999
821,410.75004917999996,-4.21007909542,6.48071029362,-5.65680561222
822,411.25137832,-4.59151289974,6.207869668560001,-6.02669242854
823,411.752707,-4.18824549864,5.65196168512,-7.00671346448
824,412.25403595999995,-4.60939770812,5.45557906496,-6.54399269686
825,412.7503512489796,-4.301253456591836,5.596143372163265,-6.775067297448979
826,413.24666638,-4.86352724302,6.67512899788,-5.26881244818
827,413.74799507800003,-4.32802482602,6.204486703280001,-6.4579306638
828,414.24932376,-3.8748452179,5.590924612359999,-6.86211416008
829,414.750652432,-4.33075814202,6.36952450556,-6.433157180839999
830,415.251980958,-4.55196214602,5.91962308052,-5.50009649044
831,415.753309726,-4.50139430243,6.8222879790799995,-6.14386875882
832,416.24962536734694,-4.096036330204082,5.131637887795918,-7.088918721693878
833,416.745940748,-4.23317007748,6.244103320220001,-6.678176660079999
834,417.24726922,-4.31692690424,6.49690661318,-5.81717312634
835,417.74859798600005,-4.39125932922,6.444273065039999,-5.8447248324
836,418.24992663999996,-3.8750907073420002,5.53680016486,-7.1109986021
837,418.751255688,-4.51355501414,6.38563999322,-6.33554217242
838,419.25258520000006,-4.78856612552,5.8264149078,-5.744804617360001
839,419.75391414,-4.76740313416,6.0464633148799996,-6.443683291659999
840,420.25022914489796,-4.374585655387755,5.380429706102041,-6.7270569313877555
841,420.746545264,-4.05810911862,5.76133623968,-6.68252362054
842,421.24787532000005,-5.12977557682,6.7450485991799995,-5.367469290100001
843,421.749204636,-4.38396050714,5.78661866468,-6.90257801518
844,422.25053377999996,-4.439869244398,5.75936633602,-6.36736000674
845,422.751863208,-4.265269326864,6.21223159784,-6.39336692494
846,423.25319254000004,-4.8470255584799995,6.50212176818,-5.1345446594199995
847,423.7495088244898,-4.189866719122449,5.616769866918367,-6.910578357959184
848,424.24582518000005,-4.63194382328,6.2190933287400005,-6.396687020959999
849,424.747154776,-4.5050347320999995,6.1058508178399995,-5.5332615234
850,425.24848442,-4.69949534918,6.62861472474,-6.17570156272
851,425.749813928,-4.51266286924,5.00656679076,-6.83833161614
852,426.251143,-4.3975342804,5.97078069764,-6.15448468342
853,426.75247279,-5.1162497040199995,6.82226103508,-5.42364447326
854,427.25380336200004,-4.25315651542,5.60106153262,-6.949364721839999
855,427.7501197591837,-4.700076141346939,5.671589542387755,-6.712925094387755
856,428.24643602,-4.78154273066,6.61826225284,-5.30932120964
857,428.747765946,-4.5779511017,5.6691728943,-6.79585893872
858,429.249096242,-4.48788339846,5.68604880064,-6.6106430967200005
859,429.750426248,-4.34530489198,6.53193377374,-5.64900383604
860,430.251756242,-5.09320662234,5.81838859862,-6.46617551888
861,430.75308632400004,-4.47431261902,5.2866882751599995,-6.6792184935600005
862,431.2494029897959,-4.836717504408163,6.156819277367347,-5.601642141489796
863,431.74571990600003,-4.8684460144,6.04103859556,-6.25387799368
864,432.24705006000005,-4.14446753544,5.3374417328,-6.906957907260001
865,432.74838027,-4.57914561762,6.2854353699,-6.531972693
866,433.2497102,-5.33106499324,5.8298008667,-5.56874673154
867,433.751040628,-4.05972575688,5.3870785125,-7.01247648016
868,434.2523713,-4.5481869965,6.06962914122,-6.667036825579999
869,434.75370193599997,-5.48884588622,5.69382063904,-5.254996179260001
870,435.25001962244903,-4.258222531653061,5.688620452816327,-6.825726237387755
871,435.74633709,-4.86178187254,5.5621035460799995,-6.904541930960001
872,436.24766834,-5.1156988496,5.68514767454,-5.56793841252
873,436.748999136,-4.49061072694,5.9555094543,-6.81259413742
874,437.25032956,-4.63900014954,5.3556798064999995,-6.61625343028
875,437.75166056,-4.71395228578,5.94247156674,-5.80851812438
876,438.252991546,-4.60870614622,6.49580490418,-6.56539818426
877,438.754322732,-4.2441003479,5.09648480534,-6.96023212278
878,439.25064115102043,-4.396104172632653,5.2836085977551015,-6.686726513326531
879,439.746959144,-4.986035485764,7.10103232722,-5.2693213898
880,440.24829058800003,-4.4670557099,4.95189448246,-7.361320056219999
881,440.74962207199997,-4.3974624298,5.8371655519,-6.84120264604
882,441.25095338,-4.50321751094,6.54520816952,-5.43515852966
883,441.75228500800006,-4.80953152768,5.500303060899999,-6.8506809355
884,442.25361685999997,-4.45710140994,5.52808229362,-6.75793979166
885,442.74993536938774,-4.630229551326531,6.334392868367347,-5.449793626428572
886,443.24625418000005,-4.99132249146,5.664778033459999,-6.62775551142
887,443.747586048,-4.19621193232,5.68636015324,-6.67206936048
888,444.24891738400004,-4.28635148622,6.24956995234,-6.33596728826
889,444.75024944800003,-5.19777317508,5.72253991704,-5.89511604308
890,445.25158162400004,-3.96045818476,5.3645323974400005,-6.95616657724
891,445.75291383399997,-4.47598314518,6.37313499752,-6.759176220780001
892,446.25424632,-5.19292026676,5.50083595282,-5.81730784618
893,446.7505654102041,-4.577624658081633,5.882387919571428,-6.560697775061225
894,447.24688463999996,-4.638290624940001,5.269007043486,-6.416353125
895,447.748217268,-4.9245972473199995,5.701278130944001,-5.21975047302
896,448.24955029999995,-5.14959436342,6.66191148368,-6.24006172514
897,448.75088300000004,-4.4372646606,4.8736072815,-7.30830929256
898,449.25221536,-4.2872945251,5.67441499336,-6.81221991578
899,449.753548252,-4.44301570126,6.12188547366,-5.94113933726
900,450.2498680306123,-5.370321135224489,6.474034115530612,-5.115645633693878
901,450.74618781,-4.27334353632,5.98329168086,-6.50660344844
902,451.24752094,-4.27663070072,5.54697600402,-6.639527032759999
903,451.74885427000004,-4.224922229026,5.693629037639999,-6.65440010362
904,452.2501877,-4.96025010678,7.1479597412,-5.03339999086
905,452.75152134,-5.18754045414,5.9349512056,-6.013900030539999
906,453.25285472,-3.9053427979000004,5.43046429136,-6.91966647944
907,453.75418835999994,-4.57094267572,5.79548921822,-6.4452729857
908,454.2505088265306,-4.4236713362204085,5.517190209002042,-5.798678321204082
909,454.746829296,-4.93816802668,7.3444351685200004,-5.1333261931324
910,455.248163002,-4.39294183048,5.62940958246,-6.68182607104
911,455.749497034,-4.248336538672,5.41147478032,-6.66115705276
912,456.25083126,-4.573029336519999,5.9855429993,-6.63946116936
913,456.75216532999997,-4.391064733845,5.65973052976,-5.95142594626
914,457.25349928,-5.09062898258,7.1415650391,-5.29892083726
915,457.7498202142857,-4.38617583922449,5.445635945816327,-7.014789201102041
916,458.24614110000005,-4.34521208495,5.56089705508,-6.4959246549800005
917,458.747475424,-4.47393240968,5.94525278322,-6.459523352160001
918,459.24880967999997,-5.12926364136,5.5830779295,-5.4080409210000004
919,459.750144236,-5.04934483342,6.42954070124,-6.062213561979999
920,460.25147938000003,-4.32014521184,4.86627552794,-7.05190748322
921,460.752814,-4.5053341096179995,6.2300894624,-6.546827801319999
922,461.25414859999995,-4.27046352538,6.1290106567,-6.2672990843
923,461.75046990816327,-5.228798087061224,6.041940821387755,-5.283596378285714
924,462.24679124,-4.410203933696,6.141401889060001,-6.617570690919999
925,462.748125896,-4.41126672368,5.10823836364,-6.7180956483
926,463.24945994,-4.4232148773,5.853275051660001,-6.6441883392
927,463.75079478400005,-4.78379105532,6.7576793336000005,-5.17182313846
928,464.2521303,-4.74525519104,5.7626684693,-6.631785132
929,464.75346511199996,-4.30627804866,5.52149299624,-6.4830753755199995
930,465.2497864816326,-4.242434953959184,6.029177566836735,-6.648953023081632
931,465.74610799000004,-5.132523861659999,5.952440835480001,-5.4402479461999995
932,466.24744334,-4.73460932918,6.32369580682,-6.23812475298
933,466.748778196,-4.37011430052,4.81039373476,-7.0801537445400005
934,467.25011286,-4.5844924988799995,6.0956600097199996,-6.49854121422
935,467.751447692,-4.61008028868,6.32479152828,-5.68980299384
936,468.25278208000003,-4.67753900756,6.03676947342,-6.02999755564
937,468.75411713200003,-4.06693775932,5.55721171878,-7.0670230498399995
938,469.25043955306126,-4.872532821938775,5.741842430244898,-6.508954355816327
939,469.746761234,-4.57287665402,5.7289316254200005,-5.923547918660001
940,470.24809624,-5.255861379980001,6.29493461614,-5.61539871826
941,470.749431322,-4.37592222292,5.25293346864,-7.0923773256
942,471.25076622,-4.98709528196,5.704092279059999,-6.54530097684
943,471.752101426,-4.7654541870000005,6.117278054680001,-5.74622965388
944,472.25343682,-4.77517497256,6.27599300542,-5.9134229739199995
945,472.7497587918367,-3.997938285326531,5.301430720020408,-6.989238253081632
946,473.24608093,-4.59474018866,6.13357616268,-6.66732123428
947,473.74741626,-5.202584170520001,6.0470500946,-5.2331595886399995
948,474.24875128,-4.28815373838,6.37962250674,-6.66468671246
949,474.75008671800003,-4.47747703864,5.58954448246,-6.47054942324
950,475.251422206,-4.1558528594,6.2024120178399995,-5.92039846792
951,475.75275782800003,-4.98142806702,6.7884403657400005,-5.53882096254
952,476.254093466,-4.1234242949999995,5.7151303252800005,-7.0162935426
953,476.7504158591837,-4.260764185061224,6.132028992428571,-6.505557338142857
954,477.246738322,-3.70371209112,6.93647951666,-5.674672457860001
955,477.748074192,-4.97796726382,5.72111188662,-6.54676193858
956,478.24941028,-4.31527733472,5.626128405719999,-6.763666882380001
957,478.75074637,-4.502792395,6.0354132934599996,-6.14032113654
958,479.25208296,-5.554514328,5.8253161926,-5.86546270746
959,479.75341908199994,-4.12943878796,5.40346343992,-6.92769877624
960,480.2497413469387,-4.997095221816327,5.704716572673469,-6.475289667897959
961,480.746064334,-5.77546086726,5.48605568848,-5.39639813228
962,481.24740102000004,-4.29355450746,5.57822202762,-6.928486138759999
963,481.74873748,-4.56510182194,5.67928586422,-6.70605468762
964,482.25007361999997,-5.02408037112,5.43083252574,-5.239838699440001
965,482.75141026,-5.3730287292000005,6.285773666400001,-6.0989022671
966,483.25274748000004,-4.7521738037,4.87021832888,-7.1301827087200005
967,483.75408424399996,-5.10106528012,5.690772976880001,-6.4192002041
968,484.2504073857143,-4.639302520714286,6.10437629232653,-6.078067736020408
969,484.74673094400003,-5.20591923522,6.09039096682,-5.548167526219999
970,485.248067666,-4.30451172178,5.47703245234,-6.94914916992
971,485.749404878,-4.93300077214,5.695266632,-6.462732678239999
972,486.2507425,-5.01067424926,5.57113276978,-5.7242403808599995
973,486.752079864,-4.5968986999200006,6.11526923222,-6.79890959482
974,487.25341796,-4.4337799072,5.35671265872,-6.8164141937
975,487.74974205306125,-4.869242725040817,5.806208580163265,-5.699645485387755
976,488.24606570000003,-5.06765775144,6.232140197720001,-6.37094355458
977,488.747403378,-4.2959585083,5.24368569952,-6.874514373639999
978,489.24874204,-4.57822952274,5.48798667294,-6.3085353335
979,489.750079842,-4.82210837404,6.75711051634,-5.83204919128
980,490.25141688,-4.24397460936,5.15457301028,-7.28084740002
981,490.75275488799997,-4.47664776306,6.10303367614,-6.6190226716
982,491.25409334000005,-4.6414789948,6.620869830279999,-5.45446538084
983,491.7504180673469,-4.881254481142857,5.152029157387755,-6.899299770938775
984,492.24674258,-4.524332601859999,5.80417116394,-6.58176215516
985,492.748080694,-4.53838537898,6.479671453879999,-5.5841407196
986,493.249418506,-5.20115913392,5.62424532172,-6.61058920888
987,493.75075670999996,-4.44790154116,5.4260933807,-6.482479614280001
988,494.25209504,-4.52114423214,5.9647751862,-6.383867678740001
989,494.75343331199997,-5.365717932160001,6.034446304399999,-5.54461990354
990,495.2497588469388,-3.851203625755102,5.574548483040817,-7.289477168367347
991,495.74608378,-4.51987187804,5.89687039488,-6.47884517216
992,496.2474218,-4.065860000638,5.909516098179999,-5.9445133209200005
993,496.74876021999995,-4.91353525082,6.82477879942,-5.6980209048
994,497.25009838600005,-4.19302356258,5.462243206839999,-6.83831964102
995,497.751436948,-4.483228079236,6.2175844665,-6.57117018128
996,498.25277604,-4.3211181884,6.22684720458,-6.10268340428
997,498.75411476399995,-5.0261879883,6.0205881225999995,-5.613234219380001
998,499.2504404,-3.8890015552183677,5.636458516081633,-7.167887159061225
999,499.74676592000003,-4.94484713742,5.52119361886,-6.32459992668
1000,500.24810537999997,-4.4149370910800005,5.60292964782,-6.5791336212600005
1001,500.74944456,-4.83758918158,6.96115420526,-5.0991971649800005
1002,501.2507832,-4.48302450258,5.61779673168,-6.97057860728
1003,501.75212228,-4.39367231142,5.596687628260001,-6.576445211719999
1004,502.2534618,-4.15187113948,6.45267958378,-6.2530337495
1005,502.74978764081635,-4.903823874346939,6.077383444653061,-5.4890395650612245
1006,503.24611309,-4.36900061646,6.213770398,-6.66324970088
1007,503.74745246,-4.46906752622,5.29304705206,-6.61278963316
1008,504.24879245999995,-4.215078698702,6.076682474,-6.5774331573
1009,504.75013207999996,-4.5529770355,6.93800035406,-5.24452695014
1010,505.25147188000005,-4.54256468806,6.10777282096,-6.3555016661
1011,505.7528117,-3.75058561708,5.4882770691200005,-6.960618320040001
1012,506.2541508,-4.58608518676,6.126403079199999,-6.55544987184
1013,506.75047749183676,-4.64833272192449,5.807754345183674,-5.426255838857143
1014,507.24680441600003,-4.6943730011180005,6.59508445126,-5.980064391979999
1015,507.74814462,-4.32279769594,5.52895348204,-6.88493869638
1016,508.24948488200005,-4.612295681722,6.02125872798,-6.63580876472
1017,508.75082524,-4.2808519226,6.108799685699999,-6.246794723540001
1018,509.25216570199996,-5.23347692876,6.43224407958,-5.1778825378199995
1019,509.75350632000004,-4.46568456112,5.77846661686,-6.80988477182
1020,510.24983449795917,-4.528343465367347,5.363343807918367,-6.4004239232857145
1021,510.746161946,-4.434279867492,5.622200573500001,-6.43650721422
1022,511.24750303599996,-5.11784538578,6.69563934626,-5.23150403134
1023,511.74884402000004,-4.63460828242,6.2821571869,-6.38317611684
1024,512.25018469,-4.18938313304,5.3128089569,-6.78760210888
1025,512.7515258799999,-4.51803669434,6.25647659,-6.21358179016
1026,513.25286765,-5.198835965040001,6.080161239520001,-5.133700415
1027,513.75420904,-4.63242881458,6.1873353698,-6.30930772688
1028,514.2505363408163,-4.634549140122449,5.231455825489796,-6.689301770285715
1029,514.74686446,-4.601170816,5.80568002632,-6.37711372388
1030,515.2482062920001,-5.17056575314,6.7384802582,-4.8812144623
1031,515.74954816,-4.37617070622,5.90412730408,-6.69201987318
1032,516.250890002,-4.37250333248,6.00590665286,-6.597841717380001
1033,516.75223196,-4.5200395294,6.26524236138,-5.684105841000001
1034,517.25357441,-5.1373318634,6.535466427779999,-5.3874377654600005
1035,517.7499029244898,-4.066422402530613,5.814664465387755,-6.657891578
1036,518.246231172,-4.64814313656,6.19417315064,-6.6472180389
1037,518.7475732199999,-5.24778118276,5.3481295074,-5.13006297914
1038,519.248914976,-5.11260029294,6.54873483584,-5.863094631966
1039,519.75025712,-3.99867371522,5.10702588504,-7.22383395984
1040,520.251600304,-4.80747181088,6.61955256946,-5.8934964112
1041,520.75294276,-4.4652235199304,5.97716342468,-6.323552105792
1042,521.2542852400001,-5.00520761714,5.93528052064,-5.296447979780001
1043,521.7506144102041,-5.350950192775509,6.572700366591837,-5.763055460714286
1044,522.24694321,-4.31046334528,5.497180554200001,-6.655738320819999
1045,522.74828606,-4.44934753414,6.343140371726,-6.53027821642
1046,523.24962898,-4.24200769952,5.97976202082,-6.068760946659999
1047,523.75097182,-5.403418533300001,6.22281459038,-5.3788336578
1048,524.252315012,-4.537478265336,6.05606135562,-6.54389689652
1049,524.7536579399999,-4.60511062314,5.13485301818,-6.7512756501
1050,525.2499873122449,-4.50462849522449,5.5876111148979595,-6.282985484795918
1051,525.74631702,-5.25547218938,6.90991276244,-5.226591247618001
1052,526.247660252,-4.8333559845,5.85268527846,-6.553411111740001
1053,526.749003726,-4.5789091095600005,5.152222897320001,-6.5201053710600005
1054,527.250347646,-4.27218494562,5.940660333299999,-6.93960202334
1055,527.75169144,-5.270698526,6.03209619134,-5.586179479899999
1056,528.253035246,-4.48993712766,5.82284034118,-6.56484134208
1057,528.7493658285714,-4.761634864,4.779731924836734,-6.816662432612245
1058,529.245696888,-4.586872549380001,5.6152011292,-6.33564695422
1059,529.747041128,-5.54384451596,6.63851513674,-5.20573661496
1060,530.248385504,-4.42572964784,5.11519888924,-7.2268546782800005
1061,530.74972996,-5.0118777466,5.822972067199999,-6.28538746942
1062,531.25107466,-4.27940892326,6.287093920859999,-6.3317610351799996
1063,531.75241938,-5.33166674196,5.98495921322,-5.46672488708
1064,532.253764282,-3.98488139656,5.74566383056,-6.84625913086
1065,532.7500957877551,-4.730227726571429,6.032748712020408,-6.551093258204082
1066,533.246427366,-4.5242487763,6.04307136852,-5.577916662620001
1067,533.74777256,-4.684221112,6.6098407653799995,-6.107230947880001
1068,534.2491179,-4.24587864998,5.13866109928,-7.17782563482
1069,534.750463284,-5.0858718750600005,5.788642456080001,-6.28630356452
1070,535.251808782,-5.19997958682,5.85349060362,-5.6358551788
1071,535.7531544,-5.333436062580001,5.1596175201,-6.86849089984
1072,536.2494860795919,-4.099008720553061,5.796484923081633,-6.667810747020408
1073,536.7458183599999,-4.77954288942,5.53195025028,-6.700327596979999
1074,537.24716476,-4.464403225702,5.8174725036799995,-6.2116088929
1075,537.74851076,-4.61672646792,6.34651734928,-5.7700840486
1076,538.24985645,-4.98346083982,6.1661903412,-5.610677535920001
1077,538.751202546,-4.3595762145574,5.53121378164,-6.8531567873
1078,539.252548682,-4.39663016052,5.10856767874,-6.9663543916599995
1079,539.7538949799999,-4.2071721404739995,6.00583779594,-6.762891494640001
1080,540.2502280163266,-4.5523608678163265,6.567910327469388,-5.48045232032653
1081,540.7465610200001,-4.74527315368,5.92218275758,-6.35817810058
1082,541.24790708,-4.187006076042,5.584871200579999,-6.8313621094
1083,541.74925366,-4.51514470824,5.4613690246,-6.704617675760001
1084,542.25060034,-4.011528982508,5.67863920906,-6.54005588366
1085,542.75194708,-5.10441531378,6.831092669739999,-5.45883629146
1086,543.25329442,-4.89407871096,5.52951930542,-6.60556565542
1087,543.749627889796,-3.9216917388306127,5.401957388122449,-6.814756192673469
1088,544.24596108,-4.18925440066,5.9348643859,-6.92400745224
1089,544.74730814,-4.59313851931,5.6782889373,-5.66490377202
1090,545.24865556,-4.737680941834,6.630144543479999,-6.07228461904
1091,545.750002804,-4.12360392146,5.2862422026800004,-6.96067520128
1092,546.251350284,-4.4043840362268,5.96648163748,-6.69419035934
1093,546.75269776,-4.23520584412,6.33416802984,-6.10211159364
1094,547.2540450199999,-5.2396470978,5.8652890685,-5.44568464052
1095,547.7503791387755,-4.46960133452449,5.960672065510203,-6.7276892897551015
1096,548.24671318,-4.23438255616,4.9546637236599995,-6.94215571294
1097,548.74806086,-4.436764700308,6.0782631869,-6.665051952940001
1098,549.24940881,-4.453721438580001,6.3703657563,-5.57441095272
1099,549.75075682,-4.6710006043,6.522236938700001,-5.68016004636
1100,550.252104992,-4.158119146636,5.76146197818,-6.88054084166
1101,550.753453184,-4.6690905761599995,5.4016851378599995,-6.5308530210799995
1102,551.2497879346938,-4.026837373023265,5.710872139591837,-6.510625370489796
1103,551.74612278,-5.2968880646,7.348859967020001,-4.76463688664
1104,552.247471506,-4.58702223826,5.69911961958,-6.5390140502400005
1105,552.7488199000001,-3.979327944958,5.38883885188,-6.93088714598
1106,553.250167842,-4.4868625214,6.15071252748,-6.49343682874
1107,553.75151612,-4.672210089084,5.74195155014,-5.4889476746
1108,554.25286519,-4.62068124389,7.34001635748,-5.4865287048
1109,554.754214002,-4.171207928499999,5.41603130504,-6.9463799288
1110,555.2505498632653,-4.3615199684285715,5.661658153897959,-6.790537168489796
1111,555.74688526,-4.18577264102,6.139881051700001,-6.3991688599600005
1112,556.248233144,-4.685355752586,5.95785357944,-5.48595090626
1113,556.749582,-5.06755296933,6.648475424240001,-5.69178786614
1114,557.250931744,-4.42578952334,5.43352392892,-7.01245252994
1115,557.75228094,-4.43618690181,5.65155752546,-6.550905322019999
1116,558.25363021,-4.48572189334,5.597283389299999,-6.72413409102
1117,558.7499657673469,-5.269046023591836,5.847058326612245,-5.312706252142857
1118,559.246300798,-4.671907717872,6.24201665964,-6.30439494372
1119,559.74764998,-4.31326851204,5.09775715934,-6.9886699858600005
1120,560.24899982,-4.57095165716,5.85803215934,-6.69581298544
1121,560.7503489000001,-4.30580802614,6.32242644652,-5.855514395
1122,561.251698284,-5.08159077758,6.228086627100001,-5.62963411564
1123,561.7530477,-4.1098026214016,5.787364114340001,-6.9550828307799994
1124,562.2493836040816,-4.439495572510204,5.466210507755102,-6.683329495816326
1125,562.745719742,-4.126043847602,5.9107824648200005,-6.41200616428
1126,563.2470694360001,-4.58398954478,7.00090853576,-5.40491242678
1127,563.748419246,-4.625405419942,5.90240289002,-6.37594615178
1128,564.249768064,-3.803925695816,5.5180411743,-6.99990562132
1129,564.7511175,-4.703797402899999,5.50337766724,-6.6561305053
1130,565.252467776,-4.53309837345,5.693132071,-5.69099451596
1131,565.7538171,-4.60190728454,7.097634393340001,-5.88727235412
1132,566.2501532897959,-4.664477719734694,5.440696218081633,-6.667068413142856
1133,566.746489324,-4.090217349212,5.447956915324,-6.66986893612
1134,567.2478393079999,-4.66529746402,5.4925791229000005,-6.84409463188
1135,567.7491894,-4.7791686675982,5.49798288569,-5.67298097524
1136,568.250538516,-5.3528776336199995,6.69389098204,-5.701915805
1137,568.751888,-4.385954361,5.77661047668,-6.77774061578
1138,569.25323757,-4.3631328186000005,5.14471151734,-6.79492488074
1139,569.7495735918367,-4.196065054122449,5.911983518081633,-6.619409357183674
1140,570.245909416,-5.01767070002,6.09730359204,-5.37952222596
1141,570.7472594,-4.9388296509,6.26814033508,-6.2356129761800005
1142,571.248609904,-4.27023001104,4.93087219848,-7.19629722302
1143,571.74996,-4.424133966069999,5.4976865021000005,-6.9135741484
1144,572.25131021,-4.66710869756,6.21486013182,-5.79374384756
1145,572.752660244,-5.02941228332,5.95456641544,-6.0519718599
1146,573.254010378,-4.129669308516,5.451061459280001,-6.94338615442
1147,573.7503469,-4.45363046455102,5.401441114795918,-6.841837631612244
1148,574.2466830640001,-4.3590612853840005,5.66131124232,-6.0314734863199995
1149,574.748033,-5.31244072266,6.813824578899999,-5.49125886844
1150,575.249383476,-4.48692239692,5.24253609008,-7.04973699644
1151,575.7507339,-4.714218731678,5.58292225358,-6.6214745729399995
1152,576.252084188,-4.52784429924,5.8669236694,-6.04504426582
1153,576.753435206,-5.3181528443,5.99551526152,-5.626200256240001
1154,577.2497716591836,-4.3357307403,5.41983449822449,-7.042890967367347
1155,577.7461089,-4.893057833874,5.40744216616,-6.52494331032
1156,578.247459496,-5.07356147456,5.7451489013,-6.70171072094
1157,578.74881016,-4.88282810664,5.8149966521600005,-6.9537655697108
1158,579.250161144,-3.8046292327712,4.378987847904,-5.113956472856
1159,579.7515121,-4.703515988378,5.911114773875999,-6.702114880318
1160,580.2528628040001,-6.012247466986,7.621961049964,-8.1611607785532
1161,580.75421382,-3.9673468597859998,5.0483718566578,-4.746575445397999
1162,581.2505522020408,-4.031920679901429,5.420934251877142,-4.968498566545306
1163,581.74689002,-5.78968428961768,8.0478134859788,-8.21441104439036
1164,582.248241074,-5.139020352068001,6.0354462249,-6.149356347630199
1165,582.74959242,-3.9818247527405997,4.4749443052638,-4.33276995861712
1166,583.250943966,-4.7691125794706,6.193619302076001,-6.2286883756806
1167,583.75229574,-6.3367576445874,8.144536349706,-7.876057653932
1168,584.2536465640001,-4.2895248868624,4.9538284605386,-4.753820379744
1169,584.7499845918367,-3.6872242143581633,5.160934108665306,-5.028389328793877
1170,585.246323308,-6.441632555861999,7.102319649946001,-7.201446515288
1171,585.74767532,-5.876494766452414,6.7686395415959995,-6.935081424108799
1172,586.249027012,-3.662293222062,4.9603908136858,-4.606646429478
1173,586.7503791,-4.0611298371454,5.03125944206,-6.540244491938
1174,587.2517318920001,-6.524123016342,8.120343658896001,-3.655287790023
1175,587.753084286,-5.379393493772,6.5657095368246,-3.546898187398
1176,588.249422789796,-3.9153681539816323,4.454751602606817,-7.505471882755102
1177,588.74576166,-4.6559449123856,6.4781326542394,-1.783139941388
1178,589.247114578,-5.867800845373999,8.213698526332001,-5.189842666524
1179,589.7484672639999,-4.109560125848001,5.2425690217438,-7.4128758457048
1180,590.24981984,-3.6174943816392,5.7945312103144,-1.7910255432
1181,590.7511725,-5.5166101501216,6.409428524838599,-6.129280096374
1182,591.252524952,-5.355832489097001,7.1482651062002,-6.5603656492068
1183,591.75387772,-3.9661643187560003,5.901364050323,-1.93933114016
1184,592.2502177938776,-3.5938917695979593,4.705602404463878,-7.237810120734695
1185,592.7465574,-6.544432781819999,8.9881640164954,-4.47655794978
1186,593.24791004,-4.4347259400242,6.1570323850002,-2.52761679374
1187,593.749263,-3.1852262879424003,4.1125509064036,-7.44644803198
1188,594.25061624,-5.462255182031,7.805174056886,-2.6823979249180003
1189,594.75196944,-5.178244784714,7.473302188144,-4.2578986540334
1190,595.25332186,-3.803479623476,4.9408025481488,-7.489291937128001
1191,595.7496613306123,-4.1737522700626535,6.064488830487959,-1.4588143391381634
1192,596.246001586,-6.12066700726,7.6373221067,-5.468182855366
1193,596.747355,-4.690118847494,5.9353134519406,-6.7865093809184
1194,597.24870832,-3.8883890533599996,5.5882332092526,-1.1029693634256
1195,597.75006164,-4.42245445876932,5.875033804376,-6.45956526465
1196,598.25141508,-5.883631924726,8.29396760587,-6.227287289541801
1197,598.75276844,-4.344032537880199,5.544952212586001,-1.3858840394378
1198,599.2541215,-3.6175931762092,4.1717228578686,-7.588245162941999
1199,599.750461344898,-6.8145606805195715,8.358385993523672,-3.85974810242653
1200,600.246801746,-5.2379735779306,6.2315504240352,-3.205802499336
1201,600.7481554000001,-4.2993025545882,4.0070263458305995,-7.564776965346
1202,601.249508548,-4.8465884672886,6.6647406006239995,-1.600840036066
1203,601.75086198,-6.018501462005999,7.956599166539999,-5.453914526528
1204,602.252215148,-3.9085311675152004,4.9508855803842,-7.53771923208
1205,602.75356866,-3.9647003633354,5.631684850928,-1.6166830903158
1206,603.2499091102042,-6.106658281142449,7.67918106087551,-5.883127198177551
1207,603.74624926,-5.452190112078,6.0516215884422,-6.961019485056
1208,604.247602624,-4.28860280475,5.7524806548892,-1.00187558884312
1209,604.74895624,-4.212336401664,4.7413902282218,-7.416989291566
1210,605.2503093700001,-6.664989084356,8.5599255432532,-4.3643572727678
1211,605.75166286,-4.69352276924,6.26291919234,-2.6244264769132
1212,606.253016928,-4.511770724434601,4.3581332154762,-7.52932468918
1213,606.7493570918367,-5.302945936577551,6.045600558030469,-1.0714535335314286
1214,607.24569724,-7.172326071144799,7.390057296809,-5.703505499682
1215,607.74705076,-5.3523627048139994,4.9862869628614,-6.986622244556
1216,608.24840406,-4.0660995024826,5.1724638063606,-1.969427554256
1217,608.74975756,-5.1043734004616,6.495373800623599,-5.8209273192048
1218,609.25111151,-6.770702252339,7.5229389679548,-5.883203814778
1219,609.75246526,-4.29578486951242,6.154299069250199,-1.5616754791740002
1220,610.25381886,-4.1211759704492,4.5111599943654,-7.0305139707499995
1221,610.7501589489796,-6.080529962712244,7.858828909902041,-3.1851102029938776
1222,611.246498548,-5.38618337409,7.1619197118099995,-3.8364141356665997
1223,611.7478519599999,-4.4672413235222,4.4847788544116005,-7.51851716288
1224,612.249205848,-4.2140937470016,5.9735050322556,-1.24976011033158
1225,612.75055944,-5.8941670164088,7.447516809108,-5.616045373522001
1226,613.25191338,-5.326526430982,6.0485350067462,-6.68933146378
1227,613.7532669799999,-4.300131829728801,5.6751275116196,-1.7661382964746
1228,614.2496067959183,-3.944395546539592,4.714379051594694,-7.147498944177551
1229,614.7459466,-7.171631515406,8.2531504852808,-3.7703624909299998
1230,615.247300004,-5.19375852327,6.402635650915999,-2.3200853576680003
1231,615.7486533800001,-3.7252912172508004,4.206591348579,-7.5882930632
1232,616.25000718,-5.348345059158,6.887683987192,-1.6765915098400002
1233,616.75136072,-6.436806592068,7.400212179855,-4.7236581025449995
1234,617.2527138720001,-4.119807815855,4.884774059806,-7.484385141205999
1235,617.75406726,-4.6293721710534,5.202515313904601,-1.249269131402
1236,618.250406432653,-5.799457313332653,6.614915640671428,-6.925654150450205
1237,618.74674608,-5.888694397069,6.70786292738876,-6.132962439298081
1238,619.248099736,-4.4120570803128,5.428326736518,-1.694778689548
1239,619.7494531799999,-4.68893331291,4.3356529633166,-7.003845428408
1240,620.2508068559999,-6.598515317012,8.01747756931348,-4.870296167308
1241,620.75216036,-5.1188333313258,6.236133892773999,-2.7153593808950003
1242,621.25351372,-4.2924527983628,4.7423781735916,-7.668244802906
1243,621.7498536448979,-4.473062504612041,5.727704483408163,-1.2349411104061225
1244,622.246193896,-5.9370947480198,7.186675232414,-6.0731288639122
1245,622.74754754,-5.4206207612084,5.7332276914316,-6.814926287432001
1246,623.248900356,-4.33114733259,5.6114738799522605,-0.9930170104913999
1247,623.75025326,-4.170205013996,4.1575652983962,-7.402795806724
1248,624.251606584,-7.171490808578,8.85776119087,-4.611331686442
1249,624.752959562,-5.544087011689999,5.775688394348,-2.174830416928
1250,625.254311894,-4.149985061710001,4.778351367139,-7.225435629404
1251,625.7506510816327,-5.071936527355551,6.042570124779592,-0.2493142015408163
1252,626.2469905199999,-6.473788687236,7.6420343082285,-6.2730501252914
1253,626.74834344,-5.442648953096,5.5588433255537995,-6.576621844384
1254,627.249696608,-4.078984707597,5.465416607373739,-1.2581576476406
1255,627.7510497,-4.709763995188,5.1052954837692,-6.748000460684
1256,628.252402854,-6.741009997716,8.6920707457034,-5.297301205197656
1257,628.753755984,-4.934344976788,6.142859857354,-2.464394265734
1258,629.2500956734694,-3.415581954845102,4.066895907640816,-7.581278527489796
1259,629.7464353600001,-4.4675676455964,6.724373592998001,-1.454779769914
1260,630.247788804,-6.09545643327532,7.5064791958786,-5.6534825226
1261,630.74914214,-4.45939763482,6.0384639496576,-7.28541589932488
1262,631.250495208,-4.235259732094,5.7010416226726,-0.9431107909700001
1263,631.75184832,-4.1382973663728,5.0104886354852,-6.8551566283800005
1264,632.253201514,-6.250102844320001,8.859509555318601,-5.05700290836
1265,632.7495411938776,-4.546238904673469,6.346597081502653,-2.068041322707143
1266,633.245880756,-3.3138298552978,4.285692855824,-7.664230151033999
1267,633.74723414,-4.437872396814,6.682688278102001,-1.0512309539637998
1268,634.248587476,-5.906172052004,7.607090972841999,-6.060135882448
1269,634.74994104,-5.160985675332,6.1796922640781995,-6.7357349666604
1270,635.251294688,-4.1896735287718005,5.326622232242,-0.8335506226078
1271,635.75264848,-4.5779960084188005,5.2076167053904,-7.059424850626
1272,636.254003088,-6.441863076470001,8.6122746825526,-5.583598846306
1273,636.7503438387755,-5.363502661312857,5.612844356654694,-2.3938342408724487
1274,637.24668395,-4.3658451786042,4.2662752348240005,-7.254618942127999
1275,637.74803792,-5.0768875574806005,5.6580270721558,-1.265417550694
1276,638.24939199,-6.462825485304,7.66857112404,-6.2673230345343995
1277,638.75074628,-5.6086537446352,5.252238912988799,-6.973922653040001
1278,639.252101164,-4.2904170317806,5.3722443603715995,-1.5862932861194
1279,639.75345596,-4.493230279734,5.2666659116567995,-6.510558224208
1280,640.2497970795919,-6.134112414981632,7.947270504544898,-5.915224737028572
1281,640.74613828,-4.8482170806908,6.239289331260199,-2.033368588198
1282,641.24749284,-4.52212918406854,4.6674050814354,-7.5033028018
1283,641.7488476020001,-4.726145929116,5.6991525513234,-1.0572693969664
1284,642.250202614,-6.381131368988401,7.8394527740964,-6.054768044927999
1285,642.7515578,-5.3535901514626,5.1515403168926,-7.43258086868
1286,643.2529134380001,-4.71315594147166,5.224423755022819,-1.5551310882464
1287,643.754268926,-4.5397655087656,4.737465390105,-6.499445333867199
1288,644.2506108,-7.476850788271428,8.430728413945122,-5.161419833306122
1289,644.74695274,-5.321275351232,5.2694471283076,-1.9697658509640998
1290,645.24830764,-3.2146850280996,4.8278833646482004,-7.546284420918
1291,645.749663,-5.230324484246999,6.674314691105,-1.569312597842
1292,646.25101864,-6.014034750301601,8.527955026457999,-4.668680429054
1293,646.7523743400001,-4.0476967713832,4.5914500304618,-7.552738998678
1294,647.25373042,-3.8214602326827203,5.483106820738,-1.532028131106
1295,647.7500728693877,-5.8491081451931635,6.669405389640816,-6.3248861068942865
1296,648.246415308,-6.2048369753140005,7.4211895567788,-6.396088266068
1297,648.7477713200001,-4.9036767518760005,5.572863171533199,-1.2968042815732
1298,649.249127176,-3.7598962550784,4.2548210538156,-7.654778805618
1299,649.7504832,-6.2184736178460005,6.9817094607078,-2.430905905072
1300,650.251839664,-5.993485482705999,7.6033038484333995,-4.8501750089742
1301,650.75319602,-4.140794174048,4.61208611748208,-7.346048812782
1302,651.2495384102041,-4.414396745579592,5.331768652406327,-1.3815596849146936
1303,651.7458811399999,-5.6017171691468,6.087325341885999,-6.56572151171
1304,652.24723764,-5.946773620727201,7.5023777251401995,-6.4854883572714
1305,652.7485942999999,-4.97471602484,5.1585517368636,-1.5887391997859999
1306,653.249950952,-4.508824850442,4.52176693700276,-6.721059484518
1307,653.75130772,-7.188202056694,8.6552652828862,-4.709213141108
1308,654.252664688,-5.322152527416,5.778733062734,-2.408674136276
1309,654.75402178,-3.9063606813102,3.9495818021034,-7.4662638242399995
1310,655.2503656510204,-5.450215198820409,6.75240320342245,-1.6669335937220409
1311,655.74670936,-6.415362185819601,8.0392752413076,-5.43122471007592
1312,656.2480664540001,-4.5953449313162,5.1388676696476,-7.2734048769
1313,656.74942366,-4.300766509676,5.7440412047619995,-1.4090827972784001
1314,657.2507809,-4.0465681183464,4.9156458617514,-6.9552894013175
1315,657.7521381800001,-6.2618713715176,8.42234963371496,-5.2056617706304
1316,658.253495444,-5.185244228832,6.2630658876047995,-2.4054199033840002
1317,658.7498392204081,-3.623215484505102,4.2957119190546935,-7.935179322265306
1318,659.246183094,-4.847708138892,5.750798153601201,-1.2274145782592
1319,659.7475406199999,-5.9033309600958,7.624838067455,-5.901579601948
1320,660.24889853,-5.637076638776,5.4457654723924,-6.970695364306
1321,660.7502564399999,-4.3830324371578,5.2462094512772,-1.9510667358501999
1322,661.2516137839999,-4.9560169100222,5.592613101217999,-6.434743881226
1323,661.75297138,-6.9489964875098,8.2157462679414,-5.332244540363999
1324,662.2543291540001,-5.161437734992799,5.967140268056,-2.2706132355
1325,662.7506734918368,-4.346535821787755,4.235411803747694,-7.534807816672898
1326,663.247018356,-4.262293514779,6.121873498784001,-1.2557805908280002
1327,663.7483766400001,-6.9071105902304,6.8185038481306,-6.160550070422
1328,664.249734674,-5.559822289771801,6.741231536728,-6.1929576778538005
1329,664.7510928,-5.7675722718680005,5.957165011424,-3.0083331391734
1330,665.252451192,-4.48367714548,4.66226477032,-7.5148827208019995
1331,665.7538094800001,-4.4362437835274,5.81440687852,-1.245065872165772
1332,666.2501537346939,-4.7481048370306125,6.188369993859184,-7.041442958542857
1333,666.7464982399999,-5.9938207853400005,7.38989563316,-6.0122534544584
1334,667.2478570439999,-4.9724766815724,6.311621914754,-1.619616989008
1335,667.74921576,-3.5943495117403597,4.3065923947804,-7.6313704832600004
1336,668.25057422,-5.1445199160068,6.669871930296944,-1.2987951416153998
1337,668.7519327,-6.29048886112,7.8404197633098,-5.5729619659309
1338,669.2532932619999,-4.6092210755296,5.850505810528,-7.2874726223796
1339,669.7496392775511,-4.9121545099959185,5.899507421934694,-0.909441459751551
1340,670.245981702,-3.7007183165999997,4.3109842620628,-7.8195411803
1341,670.74733884,-5.8899996829392,7.113058319234,-2.353618624782884
1342,671.24869798,-6.12549596557304,7.6796810213104,-4.877283636676
1343,671.7500569020001,-4.466427017414,5.278239843646,-7.3552576632556
1344,672.251415342,-4.2752595522216,5.948330383734,-0.7280290557974
1345,672.75277386,-4.392660415852,4.6473647552160005,-7.368975137055201
1346,673.2541324379999,-6.7483986329781995,8.160705724593,-3.509987942736
1347,673.7504774469388,-5.106187750153061,6.552238834802041,-3.9115098508679593
1348,674.246822372,-4.1997894929860005,4.749242898564,-7.4840438505566
1349,674.74818096,-4.736231954954,5.6704512358659995,-0.8134594024656
1350,675.24954002,-4.099513018668,4.67166522248,-7.52369639278
1351,675.75089892,-6.661528281124401,7.917689080443799,-4.3724823760376
1352,676.2522580240001,-5.128634949018,6.5376279324558,-3.246649557461
1353,676.75361698,-4.32663870862,4.6259652558988,-7.55009549569
1354,677.2499618265307,-4.762349703695919,5.489054839356735,-0.916650957340204
1355,677.7463069999999,-5.426207144233,5.204679812414001,-6.6547952824475995
1356,678.2476659939999,-6.32733324294,8.2617665678844,-4.739049096482001
1357,678.749024802,-5.5168316892132,5.97480433007,-3.2512749386579998
1358,679.250383194,-4.056558343564,4.8310507781702,-7.86633986166
1359,679.7517415200001,-4.8260571626562,5.594050112908,-1.199961666796
1360,680.25309967,-5.674729339737599,6.9239146454038,-6.810025479242
1361,680.7494443265306,-5.617933772871428,6.506956469407142,-6.7705980200673475
1362,681.24579004,-5.3929223598622,5.7080769928552,-1.8303846953104
1363,681.7471491599999,-4.307038467224,4.525362460330999,-7.3962065095959995
1364,682.248507918,-4.9444160340172,5.758058057054,-1.0777557953086
1365,682.749866906,-6.396860659928,6.7925897372868,-6.760280923161999
1366,683.251226076,-5.238371750002,6.53635857216,-6.992933120694599
1367,683.75258546,-5.258780310035999,5.700903909477059,-1.34964140618
1368,684.253944442,-3.388159286406,4.325911221355,-8.14842526216
1369,684.7502902285714,-4.731773491714082,6.215982980580612,-1.1521113151108164
1370,685.24663652,-6.261362429696001,7.8074343560306,-6.171558178615999
1371,685.7479966000001,-4.55276747127,5.5145085204032,-7.314111227568
1372,686.24935682,-4.2367865569606,5.7545852783204,-1.192638894668
1373,686.7507171000001,-4.1477606873776,4.6831343721222,-6.76311303386
1374,687.252077522,-7.24386231028,8.716954998628001,-4.412284606787
1375,687.75343804,-5.317811553588601,6.853857329899999,-3.2923285674379996
1376,688.2497852,-4.053448361830612,5.082381134349796,-6.686194965514286
1377,688.74613236,-4.4717140228434,5.637777181789399,-4.666360253894
1378,689.247492924,-5.9096987183872,5.745580004928001,-5.121440908997999
1379,689.748853654,-5.560708447344,6.961582315206,-6.49266742864
1380,690.2502148340001,-4.25187218632,4.246022351120001,-7.5054074252
1381,690.7515760000001,-4.43133099968,5.915647348339999,-7.2517868316600005
1382,691.2529368400001,-4.86922439574,5.6795103973200005,-6.09682758182
1383,691.7542977,-5.06631055298,5.51737655644,-6.9631480591
1384,692.2506446489796,-3.7903230846061224,5.263000432163266,-7.185993384571429
1385,692.7469917599999,-4.318522586142,5.78141249086,-6.7035459046
1386,693.24835246,-5.23691378172,5.73225172116,-5.78865443116
1387,693.74971322,-4.1287562073374,5.46831158752,-7.23006699852
1388,694.25107464,-4.49343984374,4.83855317696,-7.1404603366599995
1389,694.75243586,-4.0161364013022,5.2829969512599995,-6.94533809484
1390,695.2537966599999,-5.580135049420001,6.29873371582,-5.88039266052
1391,695.7501437653061,-4.135202842306122,4.693083539673469,-7.526556608387755
1392,696.24649065,-4.46439723816,5.098954669159999,-7.359886038240001
1393,696.74785114,-4.75163193062,6.16063688966,-5.72675215764
1394,697.249211992,-5.2061258057,4.65152909552,-7.1227132418
1395,697.7505727600001,-4.280711215244,4.89616237792,-7.05011720586
1396,698.2519334519999,-4.4505001373,5.63803165288,-7.076950405919999
1397,698.75329408,-5.36631968074,5.67635495908,-5.66937048342
1398,699.2496405020408,-3.6496951138257145,5.406444994816327,-7.53963756987755
1399,699.74598696,-4.63133908082,5.18322642512,-7.05259605102
1400,700.247347256,-4.7911407714720005,5.3767649596,-5.80591952818
1401,700.7487074,-5.20818851614,5.87927598262,-6.581375958500001
1402,701.2500673999999,-4.1662322754000005,4.08155037232,-7.6882581849200005
1403,701.7514274,-4.6450864929,5.118908175640001,-6.67959870294
1404,702.252787224,-5.52361258852,6.28582755424,-5.4093492003799994
1405,702.754147,-4.72357727052,4.51196232608,-7.43011998608
1406,703.2504932326531,-4.173608691142857,5.187988053836735,-6.997208413938775
1407,703.74683944,-5.07702826544,6.757730227680001,-5.4525912781
1408,704.2481991400001,-5.2382939117700005,4.7470484619199995,-6.566173571747999
1409,704.7495587599999,-4.03793107918,4.78249475084,-7.2007310025399995
1410,705.2509180320001,-4.35990552981,4.8033643524364,-5.0678733030432
1411,705.7522772799999,-5.7130316896678,6.269044454766,-6.80075076601
1412,706.2536369899999,-5.2431947208048,6.683475641026,-7.203105065518
1413,706.7499829510203,-4.95902540862898,6.5597446554155106,-1.464062608997959
1414,707.24632862,-3.592786761506,4.8459927062366,-8.131938547175999
1415,707.7476878,-4.5088398191202,5.7798916534486,-0.5936774414806
1416,708.2490469919999,-5.94139380791,8.052606518308,-6.129103463432
1417,708.75040608,-4.8275420744136,6.48588054162,-7.274997564774
1418,709.2517649280001,-4.227999829059,6.318848885602,-2.755194543464
1419,709.75312374,-3.7128910034114,4.722828826981,-7.138954467394
1420,710.2494688061225,-5.412252305908162,7.1514030702244895,-1.8394635911906123
1421,710.74581386,-5.8000158051904,7.5151222232424,-5.1736702973836
1422,711.247172348,-4.53263134474,5.89853792705748,-7.330274615275999
1423,711.748530824,-4.134279721044,5.6060282043202,-0.7220864136804
1424,712.249889756,-3.8946460416060003,5.166931311214,-7.71285802932
1425,712.7512485999999,-6.92640247176,7.92322756365,-3.1772418914259997
1426,713.252606836,-5.948477078304,6.7341243166560005,-3.176026419294
1427,713.7539651399999,-3.4202196167102,4.9911757967024,-7.6998680414776
1428,714.250309777551,-4.976474836587551,5.903524578018979,-1.3155866723020408
1429,714.7466544060001,-4.2070134705254,5.0239666077819995,-6.70817727398
1430,715.248013314,-6.123672757274001,7.13834074398,-7.790453667934
1431,715.74937204,-5.330526114274599,6.49668208006,-7.225037457232
1432,716.250729882,-4.3423111173988,4.92934537352,-5.317557082882001
1433,716.75208772,-4.319576394487999,4.627692663936,-5.4225248017106
1434,717.253446002,-4.979799453884,5.5154785035568,-6.0615669067596
1435,717.7497906040817,-6.341584036565919,7.470374459722449,-8.46246242267102
1436,718.246134838,-4.920645465090001,6.1677950041352,-6.466905999445999
1437,718.74749256,-4.356399819996001,4.321405590814,-4.981326278536
1438,719.248850758,-4.815513088794,4.9896340027349995,-4.9671806945179995
1439,719.7502088,-5.573189492404,6.08525664379846,-6.6926006652800005
1440,720.251566312,-6.484123196652,6.330683276244,-8.7224096553274
1441,720.7529237399999,-4.75935586821,5.9952637848,-6.311106984939999
1442,721.2542808699999,-4.58939630111,4.877912329266,-5.321682504176
1443,721.7506244061225,-4.09681837745449,4.858419314261225,-5.639226230157143
1444,722.246968248,-4.5306434783444,5.268749579146401,-6.281223129254
1445,722.7483255000001,-6.4972748472927,6.51470460211,-8.321806713592
1446,723.2496823680001,-5.2773237486604,5.880440560814,-7.713073580684
1447,723.7510391599999,-4.541681524712001,4.989202899336,-5.4801968720458
1448,724.252395772,-4.279669381475,4.2371398223342,-5.440532354519999
1449,724.7537522440001,-4.947769061430519,5.924580770663999,-6.11874201038
1450,725.250095012245,-6.341965895728163,6.427777246163266,-8.009235525540817
1451,725.74643762,-5.310854022248,6.057905520444,-7.294705581512001
1452,726.247793924,-4.065889938217801,5.69618572065,-5.549206365962
1453,726.7491501,-4.530628509118,4.3784639375898005,-5.383447063807999
1454,727.250506184,-4.739408349751,5.559358255208,-6.023492083556
1455,727.75186212,-5.709373297152,6.6941753905559995,-8.425376339906
1456,728.2532175079999,-4.75851761143874,5.892008504924,-8.046777639383999
1457,728.749559289796,-4.447563488973469,5.303077296077552,-5.936700486134694
1458,729.24590144,-4.0765118498984,4.475357446254,-5.064571170178
1459,729.74725712,-4.7885631317566,5.227588174586,-5.732119995138
1460,730.248612572,-6.13689925218,7.098134354028,-8.48025222483
1461,730.7499679,-5.5250286437880005,6.055612289363999,-7.627233087082399
1462,731.251322344,-4.3551514159948,4.272930395536,-5.1048464173040005
1463,731.75267668,-4.482614355098001,5.3367411896279995,-5.091356469658
1464,732.254031404,-4.909323010257999,5.208041821336,-6.546094326552
1465,732.7503723795918,-6.20811057570204,7.622665931558979,-8.550100586667348
1466,733.24671288,-5.5039854035704,5.74413401173,-7.067124837918
1467,733.74806682,-4.390241445862,4.4473057800338,-4.80374755543614
1468,734.2494209399999,-4.810118307496,5.2811168608268,-5.2145532807998
1469,734.7507749060001,-5.027421423174,5.3277927979446,-6.5624044097673595
1470,735.252128542,-5.619895367392001,7.139705905142,-8.94964312163
1471,735.7534820999999,-4.8702033597608,5.86917498787248,-7.27424612744
1472,736.2498220673469,-4.511892980477551,4.691491951350816,-5.356006005428571
1473,736.74616188,-4.52388952334258,4.735929583522,-5.301202093172
1474,737.24751472,-4.9403415069266,5.436161444138,-6.103129476430601
1475,737.7488674,-5.722279458717599,7.0688163206859995,-8.618349050944
1476,738.25021998,-5.0017408263184,6.111392294506199,-8.238358245744001
1477,738.75157244,-4.5384841736896,4.7205475710688,-5.438691183094001
1478,739.252924702,-4.4261427885992,4.537592028702,-5.567100155624001
1479,739.754276944,-4.2996318694606,5.34305505966,-6.01920799248
1480,740.250615987755,-5.501653131339592,6.623301263981633,-8.08879660788653
1481,740.746954924,-4.9999715056636,6.0977915770706,-8.460250817639
1482,741.2483065800001,-4.930366250608,5.90096288459,-1.9003132782218
1483,741.7496580400001,-3.58142838150098,4.0600221404146,-7.775173443668
1484,742.2510093879999,-5.535476916575,6.9086224458120205,-1.2415781249898001
1485,742.752360646,-6.047346478372,7.3367261989296,-5.8571040893060005
1486,743.253711854,-4.7507397859058,5.7983422853399995,-7.443906317040001
1487,743.7500492428571,-5.042475343075511,5.6875481930432645,-1.4376440772132655
1488,744.246386824,-4.256928671167199,4.5983476869296,-7.5054762815064
1489,744.7477379000001,-5.0715616331356,6.2236049468254,-1.8149218505279998
1490,745.249088764,-6.276391177312,7.544311523376,-6.2672242399560005
1491,745.75043922,-4.9432484618623995,5.9234371491280005,-7.0058452700732
1492,746.2517900839999,-5.0394144835844,6.259308701063199,-1.915437826526
1493,746.75314,-4.370135257179999,4.4497636691454,-6.3408201963307995
1494,747.2494765,-3.9635709772367345,5.734944529726531,-5.660359833212245
1495,747.745813,-5.959769595698,6.278405987472,-7.496509927324
1496,748.2471629519999,-4.9647317869606,6.502588797007999,-8.964525174058
1497,748.7485123,-4.472160095308,5.7461069089198,-6.960345886346
1498,749.2498614799999,-5.1791968044639995,4.80132559198,-5.7233392548415996
1499,749.75121036,-3.19479439087,4.622124243363141,-5.4068344294060005
1500,750.252559628,-4.675832556044,4.870688351388,-6.175973995995999
1501,750.7539088200001,-6.2207219421471995,6.8757088899320005,-8.60358674916
1502,751.2502441061224,-4.824345273420204,6.026498444112244,-7.921661514116326
1503,751.74657936,-4.2853306094626,5.057682495398001,-6.29043796691
1504,752.2479281699999,-3.634322387528,4.4387106534964,-5.395191640980401
1505,752.74927694,-5.0386390958698,5.0482071989918005,-5.627951614671
1506,753.2506252219999,-6.1605051633803996,7.180442193732,-8.447482369092
1507,753.7519734800001,-4.814120983811,5.645794510096,-7.7133520020594
1508,754.2533213520001,-4.5763943386564,5.494917260639999,-6.2825912844467995
1509,754.7496557959184,-3.7333161208565304,4.562927669365102,-5.162498202853674
1510,755.245990572,-4.3509361817825996,5.03129536758986,-5.931454476953999
1511,755.747338724,-6.065901891926,6.860596316398,-7.74469083268
1512,756.248686914,-5.1148995116039995,6.032380600052001,-8.310571078461999
1513,756.75003502,-4.62232183238,5.415965442090001,-6.4987118589466
1514,757.251382424,-3.8821230836889997,4.163882162278,-5.45115726024
1515,757.75272968,-4.34490372645,4.795397918742,-5.992820864924
1516,758.254077452,-6.15915497148,5.966415774652001,-6.420691104203599
1517,758.7504116489796,-4.856711640465918,6.9314125837787754,-7.532269218502041
1518,759.246745768,-4.595261105364,6.660094262848,-8.796170269982
1519,759.74809326,-4.484440557908,6.315579684399999,-6.51928807053
1520,760.24944068,-4.28592637006,4.77871062009374,-6.0405206728400005
1521,760.75078794,-3.6935482270940003,4.8776608519466,-5.771506091138
1522,761.252135252,-5.166730727931516,4.7624304750265996,-5.866744043436
1523,761.75348258,-4.8431246703284,5.876476803416,-7.5132301579659995
1524,762.2498162530613,-5.46441118863449,6.800383020261225,-8.630993593483673
1525,762.74614992,-4.8455795652748,6.0659348238932,-7.176574237254
1526,763.2474969519999,-4.514641754007,5.0593051208399995,-5.1192075533859995
1527,763.7488439399999,-4.470693145804,4.62961167289,-5.72287821357
1528,764.2501912399999,-3.707448321476,5.14208897105,-6.7092969453285605
1529,764.75153862,-5.66935551498,6.273313577112,-6.983382980102
1530,765.252885548,-4.768995822238,6.138279382606,-8.7490512541462
1531,765.75423242,-4.636278808728,5.736086746334601,-7.519558996402
1532,766.2505657959183,-4.968938467720408,5.0038251042265305,-6.678004854316939
1533,766.74689908,-3.9004719266439998,4.6829038514832,-5.0818242923320005
1534,767.2482457719999,-4.4767585327228,5.111833886902,-5.85123030422896
1535,767.749592442,-4.99885183429,5.2395991971700004,-6.8545668547656
1536,768.250939314,-5.6374508607954,6.551483120716,-8.753892187249999
1537,768.7522861799999,-4.7845454864576,5.739382891929999,-8.291339071662
1538,769.253632832,-4.8295808350480005,5.075654122926,-6.67929333811626
1539,769.7499659571429,-5.172780902020817,5.5281999671730615,-5.605668462971225
1540,770.246299504,-3.90942031854,4.466498867894,-5.132652594282
1541,770.7476466,-4.407731076068,5.4434482909084,-6.3545735961766
1542,771.24899276,-4.289704513302,5.6165004272248,-6.59024950534
1543,771.75033886,-5.569761621236,7.3029803743314,-8.851031185426
1544,772.251685754,-4.4753933715026,6.317214285466,-8.110616884734
1545,772.753032782,-4.415443038846,5.754501452554,-6.100509924320001
1546,773.249365632653,-4.78206279214,5.067946864541429,-5.6069790029448985
1547,773.74569832,-3.471230539,4.700722796602,-5.7564054930822
1548,774.247044838,-4.6379164031458,5.30718066063028,-6.466849118056
1549,774.74839122,-6.3916185608308,7.6058844820152,-8.5712270416254
1550,775.249737864,-4.936602282508,5.645297543448001,-7.867893631543
1551,775.75108438,-4.37105434575716,5.100238998366,-6.5732209167594
1552,776.252430796,-3.90054976489704,4.9055209168582,-5.3557546507528
1553,776.75377706,-4.096612051452,4.113230492938,-6.192679256868001
1554,777.2501102244898,-4.278357192053061,4.822347387062857,-7.355169132522448
1555,777.7464435,-5.986084872302,7.10528648069,-10.198960152846
1556,778.247789758,-5.5353691405109995,5.6069921996032,-4.89221658279864
1557,778.7491360600001,-3.5405992859216,3.061056500403,-5.12241987307
1558,779.2504822719999,-5.9934106381804,6.924154147902,-8.561084133382
1559,779.7518283239999,-4.3572620269202,4.7662535250008,-6.469842892548001
1560,780.253174632,-5.0011091400594,4.6599565703518,-8.610966402626
1561,780.7495074795918,-4.836198176073388,6.387422389063265,-7.010940062585715
1562,781.2458398599999,-2.832757250963,3.29952260743744,-5.0296607663741995
1563,781.74718566,-5.1313742524492,6.1609482417794,-4.491023867959
1564,782.2485319399999,-5.201317804069999,6.995274252404,-7.611360095406
1565,782.74987826,-4.8918872680158,5.217391378832,-8.158828628668
1566,783.2512244000001,-4.6669679902434,5.2816707090582,-8.5516896696298
1567,783.7525706,-3.78727731653874,5.327762860143601,-5.888718347626
1568,784.253916458,-3.5272260958059998,4.5925637145422,-3.827103497334
1569,784.7502488061224,-5.967860179185102,7.185574867016327,-6.684786669697959
1570,785.2465810260001,-5.3342234252246,6.521323837014,-8.626279559454
1571,785.7479265400001,-4.097001242088,4.2683559081574,-8.940655810835
1572,786.2492723800001,-4.353474902555,4.5497587276982,-5.381357409626
1573,786.7506181800001,-3.8066410490791998,4.590171688904,-3.4068793579262597
1574,787.25196398,-6.039095635812,7.57352776814,-7.663161374072001
1575,787.7533098600001,-4.724939437568,5.875839129608,-8.347337622244
1576,788.2496421510203,-4.644715753679591,4.6958848576081635,-8.621208839012246
1577,788.74597442,-3.1413315674834,4.399692791576,-6.1506766023366
1578,789.2473197940001,-4.9938252867624,5.2650582549700005,-2.6209267543958
1579,789.7486649,-6.643571621610601,7.121521718998,-7.746241607724
1580,790.2500105720001,-5.0824769348542,5.513616375630599,-7.979848819285199
1581,790.7513563220001,-5.36481979992,6.0491187929882,-7.792767855869999
1582,791.252701766,-2.8828700409794,3.5587834716285998,-5.1777508117740005
1583,791.7540472439999,-6.8388794769006,5.986471069266,-3.483612789951
1584,792.2503791469387,-6.517178070922449,7.392371362374286,-8.203320698705713
1585,792.7467109600001,-4.5842769470606,6.0253482238586,-8.512836465932
1586,793.248056514,-4.798472524902801,5.5216187346679995,-7.428036318648
1587,793.7494020199999,-3.5679025084628,3.9212636902406,-5.273228265338
1588,794.25074763,-5.397098675562001,5.60355235298126,-3.5561489501979997
1589,794.75209338,-6.1884879730618,6.33684147029,-7.788846011756
1590,795.25343876,-4.9958790162166,6.42522367855584,-7.89423585226
1591,795.7497707163266,-4.978222223782858,4.655099263114286,-8.424600340914694
1592,796.246102384,-4.3607467802362,4.84736984224676,-5.765913720608
1593,796.7474473999999,-3.46703027349214,3.788310168622,-3.5238251679759998
1594,797.2487928959999,-6.408257958872,5.889858974706,-6.3977677734383995
1595,797.7501384,-6.0318327390974,6.795143426575001,-7.7353861814582
1596,798.251483762,-4.679206539791,5.611372091701799,-7.878317953468599
1597,798.7528291,-5.413615328923999,5.1504505828322,-8.233475399994
1598,799.254174618,-3.0794113312626,4.2355561157344,-5.610096743630001
1599,799.7505066428571,-5.6261361038979585,5.746137580171428,-3.2701517251155106
1600,800.246838428,-6.2051393461,6.481156366032,-7.075552312996
1601,800.7481834480001,-5.581422372485,6.564065954978,-7.661233383050599
1602,801.24952927,-5.426856793111,5.4029305479456005,-7.54160515144
1603,801.75087526,-5.9709483487926,6.303592611766001,-4.929010071022001
1604,802.2522206240001,-2.9877509398396,3.3744687560964,-3.5121225035920003
1605,802.7535657000001,-6.8082920838156,7.793585156314,-5.852559539590399
1606,803.2498978734694,-5.261283594086367,7.1883486905577545,-7.35338814237551
1607,803.74622996,-5.489980527259,6.452446069126401,-7.3361963011
1608,804.24757556,-4.107296832274,5.4281620788284,-4.08756785877
1609,804.7489211,-4.426280502296,4.8515910646934,-5.940816009725
1610,805.250266608,-7.013656027475999,8.818812185712,-4.909921765088
1611,805.75161214,-5.2760873200219995,6.154415826688,-2.1283341066220003
1612,806.25295808,-4.350624828974,4.454128591888,-7.26029214497766
1613,806.75430438,-4.1894879151548,6.2552221983232,-1.145663580322
1614,807.2506363163266,-6.5961526176301835,6.989565124738776,-6.124773671700408
1615,807.74696796,-5.622978955424,6.701198785396,-7.348698303162
1616,808.2483138160001,-3.914566616952,4.607882858508,-5.0135542601916
1617,808.7496597999999,-5.3207963468694,5.0500633390518,-4.321570248526
1618,809.251005152,-5.1001072723116,5.941244118856,-5.393658828578
1619,809.7523503,-6.7209996091996,7.0778186005279995,-8.577648688306361
1620,810.253696432,-4.876639975172,5.603160168406,-7.7004697904068
1621,810.7500293285714,-5.284922192715714,4.897274229125321,-6.477483065757143
1622,811.246361134,-4.886327828701201,4.605038772842001,-4.9015541654658
1623,811.7477061000001,-4.229161413503999,5.2921369444782,-5.251077329006
1624,812.249051764,-6.94383222628332,6.8244524782300005,-7.1695598237062
1625,812.7503976200001,-5.747992987076,6.559251965575999,-7.823319323946
1626,813.2517431279999,-4.8869056271739995,4.792365224758,-5.62774205065
1627,813.75308867,-4.439022006178,4.543810097966801,-4.7982060790496
1628,814.2494206448979,-4.2068487517877555,4.868219343159184,-5.892713386309592
1629,814.74575262,-6.78570405564374,7.2136581208478,-8.604999810912
1630,815.247098148,-6.021121014637999,6.246456426861999,-7.198829956329
1631,815.74844368,-4.9705456970268,4.396564297128,-4.805163610902
1632,816.249788964,-4.928773563033,4.81802486595,-4.894294262329001
1633,816.75113408,-4.9641300384300004,5.1294761992860005,-6.197274701264
1634,817.252479344,-7.1826545927812,7.9838544891779994,-8.68280202036
1635,817.75382446,-5.5321598145424,5.7333294802340005,-6.047229721554
1636,818.250156422449,-4.6047305360704085,4.1928055059510205,-4.68531500034898
1637,818.74648854,-4.6347729402958,4.9618427947518,-5.6390824670698
1638,819.247833912,-5.788507736606601,5.850538742047201,-6.5216591400578
1639,819.7491793199999,-5.6039624999913995,7.451151251171,-8.895806075435999
1640,820.250524468,-4.833116482658,5.529992321832,-6.0995339540952
1641,820.75186938,-4.247531213281721,4.322728838836,-4.6289620234024
1642,821.2532149040001,-5.2978909789434,5.385713351216,-5.6817796782574
1643,821.7495471938776,-5.822109188224898,6.361202423726531,-7.826850511204898
1644,822.2458790080001,-5.711909024246999,6.7319238922653994,-8.622845700068
1645,822.7472242599999,-5.0220505921604,4.860395754896,-5.40864267036
1646,823.248569644,-4.45833783877,3.9834204342658,-5.053913332812
1647,823.74991508,-5.1736164092316805,5.081396182384,-5.686081732536399
1648,824.2512604240001,-6.751326544284921,8.2307031646725,-7.6437497405379995
1649,824.7526057800001,-5.709433172688,5.966032571666,-7.561819116454
1650,825.2539509400001,-4.8694638974264,4.9581664396048,-5.826304138364399
1651,825.7502823285714,-4.267933969377551,4.805224830477551,-4.88973480551551
1652,826.2466141099999,-4.6605643064482,4.9389164703676,-6.079197243957
1653,826.7479591800001,-6.368829950116,6.0464902589500005,-6.63880553284
1654,827.2493045800001,-6.166375954817999,6.4418271516129995,-8.807576550118
1655,827.7506501,-4.969354174767,5.372702407708,-6.3732727113066
1656,828.251995196,-4.3635279968338,4.502466073748,-4.872230145462
1657,828.753340148,-4.7298133026224,5.13464345373,-5.3910452638478
1658,829.2496718183673,-6.49316677797551,6.870440396607959,-7.322396468039797
1659,829.7460035199999,-5.796402319306,6.326680600265219,-8.73966577133
1660,830.24734834,-4.620648312628,5.085991625958,-5.964727285616
1661,830.7486929040001,-4.04044584978646,4.793463940443,-5.1141839997632
1662,831.250037954,-5.1910282014824,5.195213498078,-5.30280376286
1663,831.751383,-6.5603087677934,7.5001952639152,-8.1044437226616
1664,832.2527282300001,-5.3197605009775994,5.4081067839478,-8.128857953243399
1665,832.75407378,-4.2746578032214,4.994298303704,-5.386093560666
1666,833.2504051265306,-3.9907318424883673,5.3071219462306125,-5.252348093998368
1667,833.74673644,-4.9848170197820005,4.6506758698279995,-5.7636354589168
1668,834.2480811300001,-6.754649633566,7.62356571332916,-7.819505255026001
1669,834.7494255,-5.3770284120300005,5.5538706661464,-8.368141360492
1670,835.25077018,-4.6048381898946005,4.570140344378,-5.9200960965928004
1671,835.7521148,-3.4458283629613997,4.2524320219180005,-5.506125951879199
1672,836.253459394,-5.000480447246,5.8136674163478,-5.2102033261192
1673,836.7497905,-6.597533419679592,8.295015732061225,-8.38660384502245
1674,837.2461217760001,-5.123554513525001,6.074982009996001,-7.397766265592
1675,837.74746658,-4.219210107566,4.878289544694,-5.540913610873999
1676,838.248811388,-3.940097525074,4.741734512362,-5.455174905614
1677,838.75015656,-4.6153523254042,4.79808632793,-6.249066998524
1678,839.2515010139999,-6.4627506407714,7.5371174831366,-8.146709829379999
1679,839.7528454,-4.9761919553652,5.5469789979942,-7.934819458273999
1680,840.25418978,-4.6663752226672,5.287769027995999,-5.916012588416599
1681,840.7505205489796,-4.259352834034694,5.078947457750204,-5.260452669400204
1682,841.246851756,-4.731007818502,5.2730516326512,-5.204158895882
1683,841.7481967,-5.4521092805174,6.357693109376,-6.657998620766
1684,842.249540952,-5.8532630770419996,6.715212643772,-8.787766745374
1685,842.75088498,-4.672650173876,5.595576937864,-7.0685887941992
1686,843.252229434,-4.6140829653298,4.91726848758408,-5.5173795497372
1687,843.753574144,-4.494571490492,4.220844708156,-5.5038806218089995
1688,844.2499048816327,-4.150898773827551,5.412017081102041,-6.419791810514286
1689,844.7462354200001,-6.046987225383,6.1889340454260005,-7.1563033902916
1690,845.24757964,-5.6382501982480004,6.8945397312739995,-8.4853805603708
1691,845.7489238200001,-4.923339862012,5.416597128306,-6.306706137160001
1692,846.2502678840001,-4.37802085849202,4.900820690804,-4.975195028808
1693,846.75161184,-4.0587467928939995,4.3548550323580795,-5.925484890735
1694,847.252956004,-5.946596988377999,6.4779919464026,-5.6204372407904
1695,847.75430022,-6.5749722750024,7.334426980948,-8.465882107326001
1696,848.2506308510204,-4.724463183299796,5.629194030516327,-6.668091795481632
1697,848.7469616000001,-4.2687361170074,4.741869231868,-4.7264662628614005
1698,849.248305378,-4.165950860524,4.5116150481843995,-6.580274249262
1699,849.74964907,-5.8710550782952,5.2523017821444,-7.2205408076958
1700,850.250992552,-4.9689949217638,6.444542504902,-5.993254961953999
1701,850.75233572,-6.3293001523972,5.797524984885801,-6.776225765808
1702,851.253679528,-4.20898636782,4.8546357329597605,-9.183465884592
1703,851.7500101102041,-5.377661992459184,5.9575133277816334,-6.9259321435918375
1704,852.2463401480001,-2.7828540252519995,3.3882640684745398,-4.6043412231244
1705,852.7476835,-5.469754586806,6.1280197171771205,-6.043373739495401
1706,853.249027032,-6.347116104056,6.828461141804,-7.93430153532228
1707,853.75037066,-4.252863125352,5.5388059936196,-8.937248895064
1708,854.2517139180001,-4.944389089882,5.768332689935019,-6.0802450657866
1709,854.7530568000001,-3.6665743193868003,3.2480356750308,-2.843561782814
1710,855.2493870265306,-5.892710331510204,7.680225826600204,-7.8339347590183674
1711,855.74571782,-5.9425314422684,6.802133889721,-7.979160250513001
1712,856.247061064,-4.24279206855,5.2838322147658,-8.799298764436001
1713,856.7484041,-3.6088184234210003,5.252071261422199,-5.945324634026
1714,857.249747152,-4.7573799774032,3.7057897703342,-2.8802504882799997
1715,857.751089826,-6.131447588976,6.9843529627446,-7.878701157056001
1716,858.252433284,-5.8565113220368,7.352380645758,-6.8701045439062
1717,858.75377708,-5.239659072751801,5.509469998226,-8.17307600098
1718,859.250106657143,-3.813534000957143,4.042065909287326,-4.464799075935714
1719,859.7464360399999,-5.682067080517999,4.9631690367817995,-3.11950096418
1720,860.247779068,-6.860006543120001,7.305758597281,-7.169248471342001
1721,860.74912196,-7.2021141266672,6.5447291654276,-7.743999270227601
1722,861.2504651319999,-5.567935418616,4.72837329718,-7.83103128655614
1723,861.7518086199999,-4.126361187805601,5.383150680312,-4.7404861082458005
1724,862.2531513079999,-4.93475213015,4.581938809416,-2.414823349138
1725,862.7494800387756,-7.349041059893878,7.529122700657142,-8.122873703453061
1726,863.245809356,-4.76795997599,5.759929165564,-9.110890804788
1727,863.74715186,-5.1355206299104,5.3806808166584,-6.8898065729898
1728,864.2484945880001,-2.7138385437478,4.1795605590472,-4.856641562118
1729,864.74983766,-5.7389937013028,6.347029285126,-3.8091737822726004
1730,865.251180072,-5.8018330263624,7.631086074902999,-8.740297457486001
1731,865.75252232,-5.0507070008088,5.356973116924601,-8.908778100444
1732,866.2538645599999,-4.2086720214158,5.868082260144,-6.505432882418001
1733,866.7501930632653,-2.8184980867571428,3.62829268151102,-3.1456015451538772
1734,867.246521916,-6.41833500399,7.899690509526,-6.738555102636
1735,867.747864346,-6.246118130364,7.1750354373576,-8.365138604906
1736,868.2492065,-4.36806057129,5.011305935624,-8.97836539313
1737,868.75054872,-2.8095674744264,4.1678459196914,-6.0461968691762005
1738,869.251890612,-5.315269839292,4.94118575134198,-2.6523194733046
1739,869.7532322600001,-5.867483505159999,7.096514721594,-8.267664303702
1740,870.2495607020408,-5.05871198687551,6.056359816826939,-8.904707056181634
1741,870.745888866,-4.225434164398,5.8897990999236,-7.101481393534
