Time_interval,Time,Acceleration_x,Acceleration_z,Acceleration_y
0,0.2520559872440816,-0.040613430206836734,-0.6167410714114285,-0.13745591272285715
1,0.748420735,0.41308450737578,0.5003620572348,1.03409563791
2,1.2497987799999999,-0.1792988889672,0.4770885552442,-0.15436787250000003
3,1.7511767850000002,1.203898261023906,1.0446729392078,1.2596488934768
4,2.25255413,0.6087590415028,-0.2638984149702,0.872404634707
5,2.7539313950000004,0.2323094493148,-0.0765344561238,-0.3012385199148
6,3.250294262755102,0.3939793546042653,-0.13675162898285714,-0.9313222761416327
7,3.74665698,-0.040073038535213996,0.22040368679966002,1.0672601108356
8,4.2480328400000005,0.2620136833866,-0.28082506429563997,-0.47422916262599996
9,4.749407882,0.1778281433686,-0.45830637395426005,-1.0406806190152
10,5.25078303366,-0.301637225689,-0.040119340012999986,-0.0555614517741
11,5.752157684999999,0.16660905347658,0.47628417043531995,-0.089748647899942
12,6.2535326275,-0.04228842046200001,-0.10128113513303999,-0.151044106781092
13,6.749893474489796,-0.19427769897285713,0.17128925051816327,-0.14269116296383674
14,7.24625389,0.07567100459540001,0.1504001568236,-0.029058235476799997
15,7.7476277719999995,-0.043476615956,-0.003065832892879999,-0.16526247418364
16,8.249001172,-0.166584307362,0.17001592898891998,0.09249247843924
17,8.750374104999999,0.07383020173674,0.16197209797206,-0.10393732152664001
18,9.251746905,-0.046764705186842,-0.1210265336527,-0.116043764884444
19,9.75311999,-0.06716610747520001,0.1508056133256,-0.0468348242702
20,10.249478403061223,-0.05510633587061224,0.10429229484102043,-0.06704870254416326
21,10.7458386738,0.043384863612339994,-0.07933625873031999,-0.189763517226104
22,11.2472101546,-0.12786955175362,0.21789433030774,-0.06581576660119999
23,11.74857904,-0.10516177575544,0.11367262883648,0.053927805052000004
24,12.249949919999999,0.08128226511499999,-0.07190943405576,-0.1102817795703
25,12.7513229342,-0.040331420298000006,0.19328016329419997,-0.044219562165399996
26,13.2526931746,-0.0943429717064,-0.0360889570007,0.08623717531514
27,13.754060529999999,0.10833448132462001,-0.14249950751572,-0.11473036020716
28,14.250416494897959,-0.09607269112361225,0.25497723370734693,-0.13737069328714285
29,14.746772026599999,-0.016793344425422,0.04004274851345999,0.08299762620966
30,15.2481410846,0.025623224237375997,-0.0788434223063,-0.22377444430944
31,15.749509722600001,-0.11595872702238001,0.19283258273782,-0.17055502732436398
32,16.25087814,-0.1288159183386,0.1482587792924,0.0383586981144
33,16.75224699,0.02810267828776,0.07595450313996,-0.24204109184574002
34,17.25361491,-0.037054084800939996,0.1558356209195,-0.17613813658106
35,17.749968833265307,-0.25169839250306125,0.18359267231159182,0.00759987044512245
36,18.24632247,0.1004949018342,0.033686683153,-0.17276109400842
37,18.7476910004,-0.0632412623586,0.04137638878422,-0.24564266796959403
38,19.2490577142,-0.2735934509352,0.1940230232488,0.0990276914864
39,19.750424954,0.20994846205568,0.03057391077358,-0.10285459151594001
40,20.251791049999998,-0.0372456428702,0.082612883746198,-0.2092564364522
41,20.753154560600002,-0.2477197473496,0.12233701298276,0.11659018670448001
42,21.24950640489796,0.2243697065302449,-0.0007006446522448962,-0.10407316457177551
43,21.7458577336,0.0300445362924,0.070566018203194,-0.07521342827084
44,22.24722268,-0.264084043131,0.08582526464222,0.12560344545313998
45,22.748587565799998,0.2116634736374,-0.11197640652036,-0.0962066344566
46,23.24995199,0.0200708657458,-0.023882042509300004,-0.08103573899620001
47,23.7513163118,-0.21893404283079998,0.14589008192534,0.11240762899078
48,24.2526801736,0.1857754361276,-0.10691734951107999,-0.10256125900985999
49,24.7540428192,-0.027468067996,-0.09179925780516002,-0.3769353989138
50,25.250392532244895,-0.3548537748796939,0.16073364832979592,0.5614034281338776
51,25.746742435999998,0.39183396076392,-0.015747722333599997,-0.36578474301994407
52,26.248105433800003,-0.055322732252,0.020352674149500004,-0.076679070294
53,26.7494681142,-0.3025821677595,0.1229966825966,0.10941876956939801
54,27.250830574400002,0.20377213581994,-0.028958779797799997,-0.16842411756124
55,27.7521928382,-0.028038616910259998,0.11494316629244,-0.13890743350546
56,28.253554880000003,-0.2630373987574,0.03669311664888,0.16376488255516
57,28.74990247734694,0.22607760161857143,-0.09869365648871428,-0.1484047714512653
58,29.246250434,0.07850082266780001,0.08294813916020001,-0.027950324683037996
59,29.747612654999998,-0.1998856845526,-0.12939723907290002,0.234094225258018
60,30.248973810000003,0.1084109353354,-0.043389972112299995,-0.11781668058104
61,30.7503376332,-0.02633367040879999,0.05930377583854,-0.004823502321464002
62,31.25169851,0.028002173376200003,-0.026148311885399997,0.10610644836260001
63,31.753055685999996,-0.01973490250686,-0.12594045898939998,0.006209201212699998
64,32.249402308571426,-0.003229777063306125,0.1706620371187755,-0.09861246104263266
65,32.7457492774,0.0744406812246,0.020942197194005994,-0.01198633865468
66,33.24710924,-0.0751971991404,-0.224152094891998,-0.00747413682462
67,33.7484689632,-0.19475318317896,0.105148482471988,0.05759049904656001
68,34.24982852,0.2684262777884,0.12345640331122,-0.07806803139162
69,34.7511884168,-0.0292780724322,-0.25256603552554,0.0198240895206
70,35.25254766,-0.2774859583428,0.16838211327505997,0.14977000101326
71,35.75390608,0.28262702470427997,0.0017845399962000009,-0.03206160208181
72,36.25025121428571,0.038173654208306124,-0.2230261566349796,-0.06838482246081633
73,36.7465957276,-0.3757224029308,0.08519598204640001,0.09725759950558001
74,37.24795392,0.30015739791088,0.030775379313140002,-0.022877827513705998
75,37.7493127074,0.0649228877764,-0.051230446692800004,-0.13334583515278
76,38.25067063,-0.3104161254034,0.035065789698679996,0.0875572668398
77,38.7520276848,0.30392740623214,-0.035682648100678,-0.07375123710066
78,39.25338513,0.022858516045800005,0.012305713131880001,-0.0965067543886
79,39.74972887938775,-0.3336398021710204,0.06441456505020408,0.1639579411434694
80,40.24607237,0.28598599795833995,-0.10860324397844799,-0.07881491769363999
81,40.747429602000004,0.08532075535556,-0.032644666842,-0.051647782214880006
82,41.248786344600006,-0.1553021787436,-0.04289969974678,0.239099076092
83,41.75014214,0.176643548767,-0.029731673193539997,-0.2243313979346
84,42.251498510000005,0.0185488701962,0.05439123067800001,-0.02189424181792
85,42.7528546924,-0.20641013833776,0.06135646510752,0.14794871485426
86,43.25421069,0.12222649731020001,-0.08317610539242,-0.11868669763
87,43.750553168367354,0.04120813629448979,0.09143229279720817,-0.02954280831497143
88,44.2468953,-0.18430503726560002,-0.04136050289416,0.13678607709342
89,44.74825124,0.078806951920126,-0.021212558629199997,-0.08590170907679999
90,45.24960658,0.021812598391279997,0.0016867923747820024,-0.14167708593404
91,45.750961502600006,-0.054708045599200006,0.009506092966000001,0.17234169654699202
92,46.252316410000006,0.0162755113248,-0.0638189293888,-0.0895374079787
93,46.7536713474,0.0037620338282000044,0.10536025380632001,-0.09043362285735201
94,47.25001239795919,-0.08544649332134693,-0.0016052351517142837,0.21447436108781634
95,47.7463530468,-0.0467810263412,-0.0631835718613,-0.1255116555004
96,48.247707309999996,0.09897224470579999,0.16237807940500001,-0.0913979177134
97,48.749060927600006,-0.0364931743222,-0.09704775782267999,0.1449939173642
98,49.2504146742,0.0190423011094,-0.059764525915000005,-0.0949374771336
99,49.75176892419999,-0.0335240424858,0.04821626354252,0.015109111962899999
100,50.2531224444,0.0008009925091999959,-0.06605215649522,0.05988152695204001
101,50.74946145,-0.03432891090338775,-0.055158537111755106,-0.037570189358316325
102,51.24580105,-0.009062230568619994,0.05827467903453999,-0.070827424747
103,51.7471545132,-0.028359040000732003,0.0455861674042,0.12264876783284001
104,52.24850745,-0.05160688351884,-0.19181085165506,-0.025759837700800002
105,52.749860340000005,0.0583669936414,0.223810767225086,-0.12864816425946
106,53.251212939999995,0.0033168409365999995,0.0177534279763,0.073875727729
107,53.7525652264,-0.07437351328508,-0.0933138276941,-0.19524634455108
108,54.25391762,-0.11265094097940001,0.28818759344692,-0.1566945535014
109,54.75025862204082,-0.04373527213122449,0.061220567063093874,0.06241924697802041
110,55.24659734,-0.01319217075194,-0.04985817896044,-0.141033756338366
111,55.747947424,-0.007053315942399996,0.2450384127174,-0.045223385439059995
112,56.249299019999995,-0.0741258785457,0.0498814572746,0.005114158105360009
113,56.750650121,0.002285437992119998,-0.07005220444587999,-0.1406373468529
114,57.252001490000005,0.03489936355192,0.156012451457,-0.1340178976627
115,57.7533533032,-0.24111710307286,-0.03261612140492,-0.1586408164174
116,58.24969105102041,0.09301871802632652,0.11445868184208163,0.007446440268318369
117,58.746028495,0.051857746687043994,0.1172908157352,-0.124265774225
118,59.247379609999996,-0.2344091621018,0.1386861656213,-0.00126907801484
119,59.7487302518,0.0871136239188,0.0028341112665000003,-0.16344691520826
120,60.2500810946,0.030030458593600002,0.060749438557219995,-0.157903345140086
121,60.751432694200005,-0.2866314564652,0.139484694787502,0.134844533209
122,61.2527833742,0.16025583148694,0.0677536605422,-0.22198720721578
123,61.7541336046,-0.11770498760014,0.026842151338080003,-0.155755492710304
124,62.25047037408164,-0.27067672438857143,0.15204351216714285,0.10554463795353061
125,62.7468073146,0.28398492170802003,-0.004414571784080001,-0.13543858823842
126,63.2481573942,-0.02661207688288,-0.027045682386600003,-0.01863077142856
127,63.7495069684,-0.43320297956144005,0.13329355983379998,0.01184291404128
128,64.25085679,0.21471178967682,-0.05385405026252,-0.1569647071606236
129,64.752208779,-0.013212946297699996,0.1846941828113,-0.1564770214064
130,65.25355900000001,-0.313950148532,0.10745592799139998,0.0821369374112
131,65.74989242816326,0.31978616198236737,0.0023778742013877566,-0.17295735211904284
132,66.24622842,-0.0548415819358,-0.0355144938915,-0.0389146161466
133,66.7475783,-0.34278215823698,0.18962916607018,0.006958941311839998
134,67.248927714,0.284342146809858,0.0519378420021,-0.16622452028146
135,67.7502766548,-0.06584842657018002,-0.12207272439018,-0.037214997411600004
136,68.2516256642,-0.29334516595939997,0.17411917123839998,0.06437778029848001
137,68.7529746374,0.2479626254597,0.044031035080120004,-0.126724001909258
138,69.25432355,-0.044436067286513996,-0.13081724723402,-0.0437315631892
139,69.7506582089796,-0.2975257578869388,0.20475005396040816,-0.03984204055961224
140,70.2469932246,0.20848192020599998,0.15684237064626,-0.06902204543186001
141,70.74834169020001,-0.0912677382419,-0.058928219098839996,-0.23768602727080002
142,71.24969003999999,-0.36881415842579995,0.2699321353384,-0.1008656230091
143,71.7510385142,0.19828968531842,0.24389852868248,-0.1876755420324
144,72.2523867146,-0.11336508914679999,-0.06361084297096,-0.19887442342436
145,72.753734865,-0.25464357692260003,0.19131240654001602,-0.0520472644978
146,73.2500693367347,0.08929406167138776,0.25471402948142857,-0.19440436495797958
147,73.746403377,-0.08840045079719999,-0.009109406002275998,-0.192333557707654
148,74.2477509646,-0.267505369298,0.14067057511188,-0.028781787882599996
149,74.74909896999999,0.06499133314644,0.17113189898342,-0.098372413929008
150,75.25044658,0.02895472197142,-0.177271637691,-0.01006678635114
151,75.7517942248,-0.004168278276799998,0.161437269596,-0.09367290801980001
152,76.25314169,-0.08157113501857999,0.03244163837732,0.09618115844320001
153,76.74947511918367,-0.09391813607081632,-0.14172004376367348,-0.1281563229285102
154,77.24580884459999,-0.022168874734199998,0.20648697148096,-0.086939340015
155,77.74715632739999,0.08687395393599999,0.0811297200415,-0.054355754888984004
156,78.2485035,0.04093667341756199,-0.169162841666,-0.03526762432188
157,78.74985050000001,-0.3397062228942,0.1782730636798,0.047215396539599996
158,79.2511974,0.3151553270966,0.13425864760606,-0.16974415942392
159,79.75254387,-0.011345147303999993,-0.11231285051300001,-0.0446845452322
160,80.25389058,-0.3588707329941,0.1129976521758,0.19152936234640003
161,80.75022460653061,0.40078214404285717,-0.03063473086510204,-0.1520615434161551
162,81.24655784,0.0275195179025,-0.0768503674164,-0.0943647812018
163,81.7479035206,-0.35466012171978,0.11401088936288,0.14565369591139998
164,82.24924975,0.27649832957160003,-0.082674587211451,-0.2017184501858
165,82.7505961574,0.025709560808400003,0.07735283471019999,-0.06602889242198601
166,83.2519423544,-0.1663559214732,-0.007099495343399999,0.12455765719456
167,83.7532884346,0.0512121222854,-0.1134176883342,-0.027389052158579997
168,84.24962100693878,-0.020702617058979595,0.08808153111233265,-0.048639205923448975
169,84.74595404440001,0.018810948705560007,0.038012410891359996,-0.013783555380963408
170,85.24729996399999,-0.02860136000302,-0.181811832116,-0.016116134900479997
171,85.7486445636,-0.19467346061736,0.0032598621396000005,0.088306703564
172,86.24998989,0.2967732539766,0.12407015223204,-0.02297501782006
173,86.751336048,-0.0350657552688,-0.28554215307588,0.05000343471626
174,87.25268152439999,-0.389164064142,0.1067550747866,0.09725915051919999
175,87.75402611999999,0.40550295585772,0.06442500367361799,-0.1092102680286
176,88.25035773183674,0.04458799919938775,-0.13072339985157144,-0.025579339387551026
177,88.7466895026,-0.33036567901742,0.09527916556926,0.10428504193268001
178,89.24803437,0.3394136185912,-0.019790778091179996,-0.1617707670262
179,89.749379552,-0.0487541194264,0.06361024186500001,-0.050511018380700004
180,90.2507242242,-0.26310676574639996,0.013182282146000004,0.12852003567534
181,90.7520682646,0.18325114581434002,-0.078612135278,-0.1357698851846
182,91.2534125046,0.09635745219240001,0.08000914483640001,-0.062033694838799995
183,91.74974389285714,-0.2124439567,-0.04979530207504081,0.18873967802795918
184,92.24607465,-0.022722253279,-0.2581067021156,-0.12644994817192
185,92.74741850439999,0.027040270707599998,0.18431600659616,0.058288635664910604
186,93.248762285,0.09571993949459999,0.05252488155396,-0.0015119249585399974
187,93.7501062142,0.06090229055059,-0.22011945360159998,0.0853360980232
188,94.2514498348,-0.2980568619008,0.07446196094548001,0.0704669037436
189,94.7527927498,0.3336071329926,0.11041727661470001,-0.11951839483905999
190,95.25413591,-0.026254277672999995,-0.1056433892624,-0.05970433578
191,95.75046576244897,-0.4419849703597959,0.08027493261836735,0.09882846619
192,96.24679537460001,0.45302471712619996,-0.006467464553560001,-0.14481640253876
193,96.7481386168,0.0393058889458,-0.0769996312099,-0.019931335543360004
194,97.24948149,-0.3368757161714,0.13369953535985998,0.19517618421320002
195,97.7508238222,0.200703861259,-0.12567115431766399,-0.21577858531533997
196,98.2521663344,0.04455030664680001,0.077396603007,-0.029003992923399998
197,98.75350903,-0.1532735051194,-0.009346557358699999,0.10093951656968
198,99.24983787244898,-0.0008380423395918402,-0.05439285615081632,-0.1180448932532653
199,99.74616672939999,0.11357966093312001,0.01702632308940001,0.039006350993980005
200,100.24750868,0.024764668695999994,-0.048986439045078004,0.1566684466527
201,100.748850088,-0.011373703852199999,-0.15646761384004,-0.03502563411452
202,101.2501918,-0.177208127521,0.076694200916,0.0742497459428
203,101.751533482,0.2784283754964,0.05040145340196,-0.1297862001678
204,102.252875,-0.0205522553008,-0.227928745762116,0.0223461037582
205,102.75421678999999,-0.32802786114884,0.1115827993662,0.19137851825336
206,103.25054463469388,0.2543294211028449,0.12219594198728163,-0.18711605562204084
207,103.74687174,-0.0025886704735999942,-0.15820757385200002,-0.0018651213325379988
208,104.248212646,-0.3138000568984,0.13652903086172,0.1267518833964
209,104.74955342999999,0.3258872893366,-0.0256529032077,-0.08026756092239999
210,105.25089424,0.034927085123599995,-0.06646485749297999,-0.0744262053802
211,105.752235534,-0.3123180642374,0.1347760829398,0.096679630768
212,106.25357626,0.32827346057,-0.06981982417614,-0.14097775866839998
213,106.74990306326531,-0.03759089642934694,0.02410133186548979,-0.027962466114693878
214,107.24623006,-0.2633084894676,0.07708080580325999,0.191860543676
215,107.74757054,0.2331299457675776,-0.015227165902599999,-0.2657104306159
216,108.24891094,-0.030478021002799997,0.0777485124742,0.026202441794800004
217,108.75025158,-0.2056904850902,0.08367611419359999,-0.0154154848338
218,109.25159192,0.02256588208918,-0.06891647724342,-0.22492601067079998
219,109.75293133999999,0.12863891452780002,0.11091506123169999,-0.060274546146048
220,110.2542713,-0.3722712404364,0.19070858259758,-0.03429468726714
221,110.75059871632652,0.05887105171285714,0.1444318908065306,-0.2161418946297959
222,111.2469255,0.027907988354800004,0.15407703166880002,-0.2202748428322
223,111.748265632,-0.3252240623564,0.18514335831276,-0.01448595343654
224,112.24960566600001,0.058392045267199995,0.033715537248348,-0.33073668956299995
225,112.750945322,0.04271712500736,0.098279035441,-0.073342089284542
226,113.252285202,-0.4250017278574,0.19844076029298002,-0.017169950165759996
227,113.753624968,0.2070071856636,0.0303908122172,-0.2401683880358
228,114.24995158979593,-0.014907974263569391,0.05467694756830612,-0.10062961518206123
229,114.746277944,-0.30482291662936,0.07112158318984,0.05345731837244
230,115.24761774000001,0.2404881589886,0.006706575661799996,-0.2190449769252
231,115.74895797200001,-0.008369576184799997,0.0654453177128,-0.04012328827174
232,116.250297842,-0.23760979161280002,0.030439513726380003,0.19413828896772
233,116.75163785000001,0.16210806212564,0.00598894653616,-0.17515287319668002
234,117.25297785999999,0.1144431776956,0.008720394898539999,-0.0676670856784
235,117.75431794,-0.3389716631204,0.010347834732560002,0.20132701698520003
236,118.25064459591837,0.15527958174152856,0.05115085452471429,-0.3135690439281429
237,118.746970494,-0.009339249598347997,0.10441718546122,-0.14463352151015602
238,119.2483103,-0.3160198302132,0.06619065843808,0.12696386709444
239,119.74965061200001,0.205923297131802,0.076433793049,-0.2580554043084
240,120.2509907,-0.1173141260411,0.0693964037328,-0.062834847754
241,120.75233064,-0.2327096221546,0.10004900010386,0.0580615891506
242,121.25367050000001,0.1914971153396,0.06879227886632,-0.1395830555666
243,121.74999738163265,0.03161206321002041,-0.04952593310963265,-0.0901884877334694
244,122.24632394,-0.38952329151820003,0.14845614252380002,0.06900725051447
245,122.74766382,0.2881538891804,0.05546604771159999,-0.11668577796998
246,123.24900368,-0.0498162745662,-0.039496036804440006,-0.169652163442178
247,123.75034297,-0.4482375197874,0.2183950336881,0.046316151579
248,124.25168256,0.22483758442496002,0.18059166814428,-0.15476608409237
249,124.753022234,-0.05196633553148001,-0.06624837741054,-0.26120846152662003
250,125.24934850816327,-0.30091407366512246,0.10809551090030613,0.009601316283061226
251,125.74567500799999,0.15500339364489998,0.11626304036127999,-0.08989683164408
252,126.2470147,-0.14164320776772,-0.04958631902746,-0.1023938442054
253,126.74835458,-0.016294279768000006,0.2967026949476,-0.19427849931292
254,127.24969412,-0.0555728965968,0.0852975898988,-0.010712544355499998
255,127.751033044,-0.09976598389560001,-0.024583016857400004,-0.21905005834194
256,128.2523722,-0.0636781475174,0.25589709412916,-0.0986466046574
257,128.753711148,-0.0461472491178,0.09372109275519999,-0.038908999483
258,129.25003685918367,-0.03612626868510204,-0.08121265769536735,-0.15728797467577552
259,129.74636284,-0.02070120815018,0.2790221142628,-0.16978221562350002
260,130.247701968,-0.09164048552460001,-0.0486293784912,0.1039360576822
261,130.749041536,0.006430541297700003,-0.01106057338406,-0.21503166607000002
262,131.2503807,0.036247429401,0.17849163936946,-0.06845536413280001
263,131.751718724,-0.19250307217079998,-0.0425068861243,0.10982348621214
264,132.25305728,0.08540223715648,-0.0752715977824,-0.15472462627072
265,132.74938322448978,0.06525429999971429,0.09136854198857142,-0.014069406273061226
266,133.24570872,-0.1890200655148,-0.04710148474439999,0.24657992506592
267,133.747047306,0.10479207556206199,-0.025308076963399997,-0.1853316876691
268,134.24838578,0.0702948612398,0.10771944720320001,-0.1303789074382
269,134.749724644,-0.119114944484,-0.11920218221540001,0.14959475189160001
270,135.25106309999998,-0.011172779423680002,-0.0373955850308,-0.09602947408448
271,135.752401668,0.14254449161262,0.12427559044200001,-0.07862300068088
272,136.25374002,-0.2037384627406,-0.0330280815288,0.116067617992812
273,136.75006408979593,0.022743381635,-0.03526852644420408,-0.1314714709857551
274,137.246388606,-0.0254164575414,0.09145823798668001,0.0020015031185400007
275,137.747726906,-0.013092228719799998,0.0171197814892,0.04773117231032
276,138.24906498,0.002014949227139995,-0.21017343970444,0.009823743693080002
277,138.750403046,-0.010291062478799996,0.0632024949848,-0.0059779184278
278,139.251740884,0.0729717779974,0.0367135994837,0.10497536430488001
279,139.753078424,-0.06424527885760001,-0.1609066418529,-0.033359089792180004
280,140.24940264285715,-0.04931235549244898,0.1311072861697347,-0.0008353609287142873
281,140.74572663,0.0930520867187,0.08107278822570001,-0.041778212451399996
282,141.24706400000002,0.02760744302156,-0.2656354307438,0.044704918272981994
283,141.748401924,-0.18195567805138002,0.050361781360339995,0.11778291834526
284,142.24973936,0.30708342425040003,0.0817267089884,-0.080891904253
285,142.751076572,-0.0934767769952,-0.1750787339296,-0.05882198212858
286,143.25241378,-0.20359228790380002,0.18586495358139998,0.0964929828356
287,143.75375101400002,0.2324241820024,-0.019474059081000004,-0.0323913772828
288,144.25007478571428,-0.021452909408775513,-0.2285061553130612,-0.08173784360265306
289,144.746398388,-0.20572947310259998,0.14183861226654,0.030337589766439996
290,145.24773532,0.2197815827694,0.07159923110136,-0.07249440500820001
291,145.74907234399998,-0.08465119125659999,-0.11844934053834001,-0.06610984027734
292,146.25040924,-0.2390464895924,-0.10932577306634,0.1646310000751
293,146.751745738,0.24265268855060002,0.17842416304960002,-0.07712793579994
294,147.25308228,0.06429703153279999,-0.2056307729697,-0.00785051548408
295,147.7494054632653,-0.24095976367430613,0.18931382753704082,0.1534156786067347
296,148.24572854599998,0.22679017858513797,0.03447611987954,-0.04490194212358
297,148.747065258,0.09565724296420001,-0.1124947867096,-0.09258506220901999
298,149.2484017,-0.2993976207056,0.06631339510828,0.16163881839508198
299,149.749737876,0.34400356910776,-0.06697340240124,-0.15051785697196
300,150.2510741,0.002104782391259996,0.0174759085936,-0.0808802549374
301,150.752410332,-0.25123873548934,-0.00185078730518,0.10636417342388
302,151.25374642,0.07061729805748,-0.036810663824760004,-0.009533496687199999
303,151.75006890612244,0.06433753305936735,0.04214021107285714,-0.11228716939855102
304,152.246391466,-0.0599637218192,0.001712813787999999,0.11721378785735799
305,152.747727816,-0.004440429815320004,-0.12703429311412,-0.07661858528979999
306,153.24906382,0.02551604973798,0.10331479638919999,0.0396564237306
307,153.750398964,0.007133232931000004,0.08497554808886001,-0.049046522598270005
308,154.25173446,-0.0013670825634,-0.18125154668455998,0.02678518507322
309,154.753069968,-0.24551938230179998,0.08779274185196,0.08873451522855999
310,155.24939208163266,0.26077813596361227,0.09907087231763673,-0.093771472572
311,155.74571457,0.0578037530224,-0.23038499452179997,0.014739539271600002
312,156.2470501,-0.3818276017954,0.15761106629906002,0.12424262784699999
313,156.74838544,0.307369421119,0.0272752002426,-0.12346932496932
314,157.24972072,0.015791151393099997,-0.06335003964252,-0.109242262036624
315,157.75105589,-0.2835733965808,0.056684476771200004,0.19160786416248998
316,158.25239094,0.24376713276258,-0.1426446661491,-0.117001317808326
317,158.75372638000002,0.0201620748652,-0.010728630144800001,-0.11593114709926
318,159.25004814489796,-0.1783174237567755,0.06243842066438777,0.21111589921428572
319,159.746369246,0.1579011470042,-0.032002551030540005,-0.14619609586979998
320,160.247703908,0.014782080706520002,0.12084476106,-0.13114327109295998
321,160.74903891399998,-0.1450344701076,0.039824138918000004,0.145354118319584
322,161.2503738,0.012719141014720003,-0.034146533370399995,-0.05895226857532
323,161.75170835999998,-0.028431963266120006,0.13057203750576,-0.09872198616586
324,162.25304292,-0.08521586319394,-0.0353758313704,0.04127154432228
325,162.7493638979592,-0.005696190254836734,-0.08863389242963264,-0.01166707288469388
326,163.24568499999998,-0.0292085472246,0.22320323906439998,-0.12861747322326
327,163.747020092,-0.059429708564099994,-0.032335189464600005,0.016079626456199998
328,164.24835481999997,0.015122479589420004,-0.0749969789046,-0.0329774505666
329,164.74968857,-0.10345875026691999,0.22578963810379998,-0.1572640990461
330,165.2510226,-0.0534252417152,0.13969550451218,-0.03967461368028
331,165.75235722000002,-0.053225857462999994,-0.09756884681441999,-0.14080744186306
332,166.25369154,-0.104146221951,0.2539759381844,-0.08683911257332
333,166.7500126122449,-0.0012981065630612298,0.11700683102806735,-0.11155299799412244
334,167.246333486,0.02448210893816,-0.0783610488492,-0.028073978789660003
335,167.74766704,-0.136673239187,0.29328053357562,-0.2028722918
336,168.24900082,-0.06415110319996,0.16300190267658402,-0.18927769349999998
337,168.750335052,-0.06380484852896,-0.01055223077106,-0.3763631203794
338,169.25166914000002,-0.32406823731774,0.25674664586060003,-0.03864328486672
339,169.75300266800002,-0.015538197260360003,0.14885121902232,-0.08994573278340001
340,170.25433636000002,0.0352014837276,-0.209480682981044,-0.093090678878328
341,170.75065695102043,-0.11607377447885714,0.19091520314285715,0.0031375492717142838
342,171.24697734,0.186030140851,0.09538166733616,-0.004973428569339999
343,171.74831115600003,-0.0976472774158,-0.2242745863308,-0.022647491043339997
344,172.2496449,-0.3336253013336,0.19979537539279998,-0.0416928683598
345,172.75097844,0.25394964409377996,0.10481718437859999,-0.05385479550998
346,173.25231206,0.004888861989399994,-0.1621074910058,-0.18906615752418
347,173.75364539999998,-0.24162683086794,0.1280979049976,0.17182064301466
348,174.2499654,0.22775865349979593,0.07018818025836736,-0.056399173195877554
349,174.746285776,0.1144200182716,-0.15432705560524002,-0.044440563754879994
350,175.24761904,-0.3659530054034,0.2138668777056,0.14923915623146
351,175.748951812,0.2999737004176,-0.0719345919205,-0.2266564961162
352,176.25028454,-0.07610851095656,0.04320892868988,-0.11421358113414
353,176.75161767199998,-0.357368964695,0.1497397289662,0.07954323926425999
354,177.25295068,0.26269873434788,0.03404501542198,-0.08638303721132001
355,177.75428389799998,-0.0476324644714,-0.026058921123400004,-0.1400108594832
356,178.25060364285713,-0.34798039815406123,0.11782856057420409,0.030988161648122455
357,178.746923154,0.23753861679459998,0.08813298679842,-0.13792001193640002
358,179.24825596,-0.058916297004719995,0.12406790884919999,-0.25281195979058
359,179.749588668,-0.3674170087304,0.28018843194458,-0.09109258798988
360,180.25092134,0.0773870304416,0.02989873889882,-0.2157810385342
361,180.752254284,0.047751618685399996,0.13400452922444,-0.1153511750116
362,181.2535871,-0.3169734299866,0.2137936345680796,-0.0969594437434
363,181.7499062857143,0.07169207895571429,0.06646782156346939,-0.23007898399987756
364,182.24622548,-0.076330902484,0.0949533151292,-0.0900102898774924
365,182.747558166,-0.12295174018100001,0.0687844406998,-0.05110356523782
366,183.24889073999998,-0.05710059920619999,0.09828226739646001,-0.24194461914358
367,183.750223386,-0.021529873867999996,0.14728066861029998,-0.11199552760332
368,184.25155594,-0.13861766357878,-0.0008059560164000001,0.08977459315256
369,184.7528885,0.002109690553320001,-0.004705203081099999,-0.123574107377228
370,185.254221,-0.031315984731,0.204833476915,-0.2397081323362
371,185.75054023265307,-0.03310543142408163,-0.005099484887877552,0.10369731724444897
372,186.24685944,-0.03754250956756,-0.08820887325443999,-0.08419689622031999
373,186.74819200000002,-0.09575181248013999,0.1973016423736,-0.06804048505818
374,187.24952457999999,0.09370808087,0.0125279975318,-0.02505596402462
375,187.75085718,-0.10664376141809999,-0.1305077425792,0.015275371816300001
376,188.25218972,-0.16225166685866,0.10689309556544,0.0130108033854
377,188.75352191599998,0.15870401918319998,0.09027950617678,-0.1470233205508
378,189.24984091836737,0.022854570288734697,-0.18241516426163265,0.031899197344
379,189.74616020000002,-0.1962615925762,0.2545642947508,0.19584910549100001
380,190.24749276,0.20362839707924,-0.1261181225998,-0.181974057590776
381,190.74882589600003,0.05880116795279999,-0.14447774730712,-0.009000439565139998
382,191.25015875,-0.22554297715903998,0.06232150340902,0.14437520986286
383,191.75149074600003,0.298215314446954,-0.059881828419899995,-0.10844543586460001
384,192.25282310999998,-0.113299989777702,0.0859702468252,-0.11070319731553999
385,192.754156368,0.022988311547400008,-0.004976463196400005,0.09978908480255999
386,193.25047613061224,-0.022684005354530613,-0.21391396433548163,0.06783378412057144
387,193.746795668,-0.2587624162028,0.0844691860632,0.11568395869962521
388,194.248128546,0.310639120829456,0.06938970638132,-0.15048028102353
389,194.74946138200002,0.06417336069219999,-0.11493576787429999,-0.005029803322060005
390,195.250794266,-0.37598483860480003,0.1417700217588,0.09729120765106
391,195.752127008,0.3087208229028,-0.0997011491824,-0.123871975282
392,196.25345978000001,0.07173725982786,0.011738685514800007,-0.11245866316865999
393,196.74977910408163,-0.2088303735110204,0.0053269324424489815,0.20251382912118365
394,197.24609854,0.054360934278800004,0.011635672226600002,-0.172021775318
395,197.747431836,-0.05193206967345999,0.11057608829559999,-0.0863919564014
396,198.248764942,0.0622593839492,-0.0345145208422,0.08698191311324399
397,198.750097982,-0.0625689895064,-0.20338021291846,0.05682219419616
398,199.25143098,-0.1420246035646,0.0637144922054,0.036334551724
399,199.75276373600002,0.2131054572758,0.1024009369084,-0.0861012107146
400,200.25409664,0.037102093791200004,-0.2583447862458,0.025919114855399997
401,200.7504160285714,-0.406152698704898,0.12678647201306123,0.038817339271897955
402,201.24673555,0.4382988414196,-0.008049039212924002,-0.055836120260911996
403,201.74806899200001,0.044693597557199996,-0.10213278092059999,-0.003607900043659996
404,202.24940235999998,-0.26824125847610003,0.0670768591242,0.1410438459025
405,202.750735396,0.21653559217360002,-0.0560059323932,-0.1843561655221
406,203.25206836,0.06555538195764,0.04008647481396,-0.029443586958960002
407,203.753401328,-0.1951194284098,0.033588953763,0.16328116363304
408,204.2497209979592,-0.027592508593214285,-0.13146301655979592,-0.0840958415787755
409,204.74604088,0.055145112795800005,0.162556508037706,-0.07588790835666
410,205.24737430000002,-0.019770539776200004,-0.000964448336020004,0.15543903282592
411,205.74870751999998,0.0243131366152,-0.20269340388860002,0.007294467130080002
412,206.25004076000002,-0.16722264983180002,0.05131825268319999,0.08108105588983999
413,206.75137434,0.21565939768179998,0.115754212251,-0.10494238462120001
414,207.25270784,0.0380812567526,-0.2287706483106,0.0800394172932
415,207.75404103600002,-0.3755319099484,0.11861065699182,0.11107096301354
416,208.25036097346938,0.42132482575079183,0.04768489901808164,-0.20166438594608163
417,208.74668084,0.020704604180200002,-0.03273032585436,-0.1564531608428
418,209.2480141,-0.3273159284822,0.035455941931400003,0.30102849682162
419,209.74934753000002,0.1888576575095,-0.043139425500459995,-0.20071971200820002
420,210.250680902,0.0113085743802,0.13234736044033998,-0.1091814576304
421,210.75201424399998,-0.1966977126862,-0.0177668077868,0.0666806988019
422,211.25334758600002,0.0371052894932,-0.16213601244502002,-0.028535846429320003
423,211.74966754489796,-0.0953434367022,0.11888386867636734,-0.0570965598986449
424,212.2459875,0.14331622847331998,0.05163298716844,0.009061698099000003
425,212.747321046,-0.0282191893502,-0.22929389872390002,-0.0037963038283799965
426,213.24865456,-0.2708964468342,0.2371589624102,-0.0040820576248
427,213.749987506,0.25567718433344,-0.0670583168448,0.02964545326362
428,214.251320506,0.030298094385200005,-0.036179981234,-0.13594301698209998
429,214.75265358000001,-0.24175161881614002,0.06110175853076,0.2826543008164
430,215.253986846,0.3394107201752,-0.07065049194088,-0.10035685561022
431,215.7503068387755,-0.03348016634142857,-0.03015894471404082,-0.14890903065668368
432,216.24662692,-0.23420667913308002,0.07358446247388001,0.1757833790788
433,216.747959634,0.0660783543318,-0.137453761430994,-0.15230363598312
434,217.24929238,0.056438031061840005,0.1565528617042,-0.08743965189160001
435,217.75062565200002,-0.27285316248499997,0.1763129585948,0.04420255874994
436,218.25195879999998,-0.07686012580212001,0.0437511350373,-0.13090623824284
437,218.753291858,0.050501137821400005,0.13540267925900001,-0.19930643545488
438,219.24961145918365,-0.14517962582877553,0.18899168629816326,-0.05147044052693878
439,219.74593080800003,0.0007994879451999981,-0.0768207069502,-0.15038974170782
440,220.24726353999998,-0.1793036297834,0.2410038991206,-0.1293051838864
441,220.74859680400002,0.025090528541640005,0.1886873399892,-0.157596972173
442,221.24993002,-0.034222379698399995,-0.18491160294604,-0.09852675170848
443,221.751262798,-0.26771191804899996,0.30718055452784,0.10184728338578002
444,222.25259562,0.074621347822164,0.17943439768202601,-0.22215823834682
445,222.75392768199998,0.015102142915800002,-0.12336573886098,-0.11834621757858
446,223.25024665510205,-0.4230228472709592,0.2682722136391837,-0.21621861571163264
447,223.74656629599997,0.283819213877,0.2116898486796,-0.26061081903852
448,224.2478992,-0.097594710072,-0.018642264703159998,-0.16283957737302
449,224.74923195399998,-0.37587262813899996,0.200914972088,0.11732475957878201
450,225.250564582,0.27326420680519997,0.0751451876696,-0.1027382399846
451,225.75189665599999,0.0286513788213,-0.08741686172419999,-0.20845247751106
452,226.25322884000002,-0.28660770841253397,0.08891522824699999,0.16421887905294
453,226.74954813061223,0.25003985206616325,0.0052900659828571455,-0.16453375157920408
454,227.24586736,0.033852353498599996,-0.005775801332180004,-0.0747384657587
455,227.747200076,-0.2317563378816,0.013412932234219998,0.32000808094598
456,228.24853264,0.08321195318699999,-0.017756198996942002,-0.29245093739544
457,228.749864876,-0.0500854991787,0.0977788894683,-0.139513949188
458,229.25119705,-0.15306570332266,0.063782698749654,0.1512713281504
459,229.75252896400002,-0.033420649611400004,-0.0175522900322,-0.185190482822556
460,230.25386092,-0.09266351092500001,0.11359268650838,-0.1727874547173
461,230.7501800755102,-0.09766515983773469,0.2283791189492041,0.03587914963210204
462,231.24649914000003,0.03120639312776,-0.0739150911238,-0.0697496359778
463,231.74783108600002,-0.035150670803799994,0.1837927951342,-0.22935375612160003
464,232.24916308,-0.0605759448912,-0.027525759618999997,0.08967236736738
465,232.75049506,-0.007037383990800005,0.007361302692034,-0.20169281733466002
466,233.25182700000002,-0.0772346128178,0.1739924646838,-0.0114966304341
467,233.753158956,-0.15653059598356,0.1242986159765,-0.036860449386200006
468,234.24947753265306,0.06618236590959184,0.029551112129108163,-0.17380766252234492
469,234.74579577,-0.069217297053724,0.15494036605242,-0.06499750556408
470,235.24712724,-0.169528582771,0.11200057761189999,-0.012676138611800001
471,235.748458836,-0.0198253349954,-0.02909330804628,-0.2328729326274
472,236.24979042200002,-0.0718008381146,0.24374131446176,-0.1525243656336
473,236.75112210999998,-0.008968232829399996,0.009375960360000001,0.06744638784398
474,237.25245382,-0.102632284827,-0.0727091799616,-0.12007717922019999
475,237.753785546,-0.1690082238218,0.29946148551142004,-0.08155218299559999
476,238.25010388775513,0.09279605990020408,0.024178111653081633,-0.18551388138161223
477,238.74642191200002,0.0352459253396,-0.08807066488991999,0.04198922256320001
478,239.24775326,-0.36912776515479995,0.2530030981452,-0.093660753539
479,239.749084876,0.2966496718678,0.09240081265540001,-0.18311328753779998
480,240.25041642,-0.032075325762800005,-0.054005194941839994,-0.189693949340536
481,240.751747564,-0.3715568572688,0.0702984977894,0.200302573356404
482,241.25307862000003,0.3424417753172,-0.10198396001259999,-0.158181055966926
483,241.7493966142857,-0.06161747351571429,0.1392908583620408,-0.17475883841089795
484,242.24571454,-0.15526294912726,-0.0786705365362,0.3055396414286
485,242.747045616,0.0428746700972,-0.09127289079581999,-0.06463453441759999
486,243.2483767,-0.043092099035446,0.145465816557,-0.10648504864738
487,243.7497078,0.0830868630108,-0.02294367890848,0.041105739617399994
488,244.25103882,0.0297641539934,-0.2665474388766,0.0753920590122
489,244.752369874,-0.24526490562908002,0.10052874879257999,0.034895118303399995
490,245.25370085999998,0.27417681201116,0.06990725031088,-0.11948540633176
491,245.75001844693878,0.11138241074448979,-0.1081716972534694,0.00016783882000000278
492,246.24633602000003,-0.3342502547221,0.0556771661111,0.17800045299552
493,246.747666558,0.21395918287384,-0.068733466826,-0.1457060012194
494,247.248997084,-0.0496592265332,0.08540152102700001,-0.08744188749404
495,247.750328264,-0.030948072891200003,0.0867035585694,0.0747237191981
496,248.25165942,0.0750805889858,-0.33779777273420003,0.047113164923379997
497,248.75299031999998,-0.34072449648326397,0.04788769659580001,0.09468484911318001
498,249.25432112400003,0.359255005081974,0.015328242550580002,-0.067794411814
499,249.7506384020408,0.10988736919734693,-0.02680593297326531,-0.11386104741163265
500,250.2469557,-0.26679335779308,0.007816995180799997,0.16146865114494
501,250.748286372,0.1177509830994,0.0016478654040000063,-0.136525631712
502,251.249617,-0.05271812978242,0.1774473473386,-0.1621182144635
503,251.750947756,0.012689471689339999,0.020004599177800002,0.18775195583715998
504,252.25227847999997,0.020191855673,-0.2759370744252,0.014912514089600003
505,252.75360856,-0.19141865624718002,0.09379152065395999,-0.0302009096248
506,253.24992526530613,0.2646678199392245,0.08816620475979592,-0.09650523001653061
507,253.74624252,0.001110234434639999,-0.19097789399530002,0.010764387252779999
508,254.24757304,-0.37772377316022004,0.1964268017166,0.0697544335222
509,254.74890347000002,0.37558797861439996,-0.0309466063216,-0.03761517205634
510,255.25023388000002,0.04630182916216,-0.04137825310586,-0.14493066497508
511,255.75156447,-0.341904133407,0.07310726119574,0.16030962992608
512,256.25289502,0.15098732011663998,-0.06946665981156,-0.143869097088
513,256.754225556,-0.044651546239220005,0.13683878852700002,-0.0884927365954
514,257.2505427857143,-0.023223533920408164,-0.026459578952632658,0.18692867618140818
515,257.74685983,0.005358627215600002,-0.18125312445670003,-0.04692788201072
516,258.2481902,0.0715949540998,0.1267482491163,-0.09030688967456
517,258.749520032,0.11387435707204001,-0.051551390234078,-0.1068248872414
518,259.250849842,-0.0726857963978,-0.14372636193206,0.0820019871608
519,259.75218041,-0.2038446783356,0.1445479820748,0.12368172670307999
520,260.25351095999997,0.229986464200018,-0.1114778361794,-0.0011041105737499988
521,260.74982760408164,0.12929573587285714,-0.12269645716689796,0.046540714611428564
522,261.24614421999996,-0.31239427379816,0.135325590521,0.013112446139520001
523,261.7474746,0.14675553813120001,-0.04140385627820001,-0.12523521606479998
524,262.248805,0.04149946109318001,0.078335081753,-0.11640346817568
525,262.75013490000003,-0.18137876648961998,0.035273736825,0.2557502713452
526,263.25146472,-0.015688651205199994,-0.24514226693142,-0.08649692006376
527,263.75279488,0.014673447255620002,0.2583400568232,-0.021790749214080002
528,264.25412489999997,0.046483782458059994,0.010583513787239998,-0.054562026633200006
529,264.75044168979593,0.03803788199426531,-0.2445998263277551,0.07365283807654083
530,265.2467585,-0.24668791640159998,0.0888766931998,0.004977100527000004
531,265.748088552,0.19084734354364,0.12953176366514,-0.1145883169382
532,266.2494187,0.0869870461556,-0.08041209688492,-0.1041258178684
533,266.75074824399996,-0.2466673319058,0.056129316894,0.10314999647206
534,267.25207774,0.25875922154548,-0.1123170000268,-0.1248657927072
535,267.75340752,0.029284041918539998,0.08688772593539999,-0.035320403754802
536,268.2497240428571,-0.2950357873857143,0.036779350282244896,0.13872524026871427
537,268.74604070000004,0.1538390913006,0.007815869023300004,-0.08213528400332
538,269.24737072,-0.054926309549538005,0.04978845409659999,-0.11945281851763999
539,269.74870042,-0.0400147599722,0.064569589853118,0.07951911207120001
540,270.2500301,-0.017613374897800002,-0.12362584639299999,-0.0128962511272
541,270.751359492,-0.08079597000522,0.15038266776932,0.020856595867640004
542,271.25268882,0.023973171727399992,0.13574484342649998,-0.12440213283406001
543,271.754018584,-0.02801444343142,-0.048991694390012,-0.16000951777512
544,272.25033505918367,-0.24689871779489797,0.2101508704529388,-0.07440824148734694
545,272.74665142599997,0.035735702776979995,0.18233617433638,-0.27740354433695996
546,273.24798106,0.0425755174482,-0.0994060715304,-0.06613796015843999
547,273.74931067800003,-0.40400468353392,0.2164088438064,-0.061549931893833995
548,274.25064028,0.15815410694089999,0.2834559925656,-0.18790429877259998
549,274.75197004,-0.016670122884,-0.019242165762,-0.26468616288978003
550,275.25329976,-0.4903509616848,0.16731949101676002,-0.06121286950974
551,275.7496160877551,0.2994215886046939,0.05201689823498775,-0.11239830762510204
552,276.24593250000004,-0.0755432923838,-0.021316661975019996,-0.1750478580737
553,276.747261342,-0.2758318611184,0.14396043771476,0.06985803395960001
554,277.24859002,0.24723892174474,0.067610376425668,-0.1131112630332
555,277.749919572,-0.046254730253999995,0.03113379462844,-0.127331392799
556,278.25124904,-0.324262780837,0.1142328587962,0.007994612415879995
557,278.75257844600003,0.17102482495739998,0.08527832770589,-0.20215650592024
558,279.25390786,-0.06684598424968,0.0979017389378,-0.04099403095872
559,279.7502241367347,-0.12425491067591837,-0.01076150176302041,0.1669043055082245
560,280.24654037,0.047866524414800014,-0.079379011983,-0.1305926480905
561,280.747869484,-0.12199683543218001,0.12766125352468,-0.15807337859144
562,281.2491985,-0.003690088409399993,0.08415650446700801,0.04637281676545999
563,281.75052776,-0.007040284938599999,-0.16718371883524,-0.052790582414180005
564,282.25185700000003,-0.16719069246368,0.22609775038456198,-0.044693166527020003
565,282.75318604200004,0.09369537883298,0.0774683463214,-0.008988529613659996
566,283.24950164081633,-0.03652281586020408,-0.19787432054118367,-0.006584054654559183
567,283.745818042,-0.17756319442719998,0.219410271759,-0.09902420230100001
568,284.24714772,0.07411045400722,0.1790109968375838,-0.06458661814888
569,284.748476868,0.02341099596122,-0.10444339172735999,-0.1848920336762
570,285.2498059,-0.40227524700166,0.2657059075644,-0.0476725455366
571,285.75113506,0.18491580605879998,0.12872234920292,-0.10756835116878
572,286.25246418,-0.024861564008200002,-0.05686322944144,-0.19875372803204003
573,286.753793402,-0.36915563125139994,0.20074516128758,-0.09020078103479
574,287.25010925918366,0.2588762049270204,0.1807311364594694,-0.16482937231142858
575,287.74642477599997,-0.17908705509730002,-0.07009342968019999,-0.2955863065648
576,288.2477535,-0.3686100991456,0.3032569627087,-0.038216298352119996
577,288.74908232,0.24397203162659997,0.0442067125166572,-0.027495912497372
578,289.25041122,-0.026460255587800005,-0.086074963253198,-0.09614698767356
579,289.751739988,-0.3834789087584,0.2096238816623,-0.06175419467506
580,290.25306868,0.3493056715998,0.063137775828986,-0.12302944310328
581,290.74938457959183,-0.02950353138122449,-0.03565995487395918,-0.12066967616655103
582,291.24570056,-0.37918398772640005,0.104962086844,0.029677026886459998
583,291.747029184,0.16652538008665999,-0.0018434498055999982,-0.13308526665
584,292.24835768,0.027464618197000003,0.137269018494,-0.11751394630308001
585,292.74968688,-0.1252467460894,-0.009247950835799995,0.09959299359292001
586,293.25101614,0.0504997173886,-0.09886255854927999,-0.08652867534244
587,293.752345026,-0.1885093075832,0.1424730804528,0.031815917100492
588,294.25367386,0.149412061201,0.030751516167808003,0.011119408011800001
589,294.7499896959184,0.033327394835510206,-0.23354835037857144,0.0073455085017530624
590,295.24630551999996,-0.3576093992546,0.1566310710394,0.027299227114400006
591,295.74763477199997,0.3328092879124,0.032161516487399996,-0.14364708641774
592,296.2489642,-0.012707873897240011,-0.0738436558826,-0.09091894568028
593,296.750292988,-0.3163013514092,0.0670246139942,0.17341777581426002
594,297.25162167999997,0.1590147037926,-0.01684495056456,-0.09175716511778001
595,297.752950782,-0.030951517312159994,0.16114026896802,-0.1764445125249
596,298.25427988,0.05552258597058,-0.06284843659538,0.0740846975498
597,298.7505959040816,0.021097533477959184,-0.25600158090434694,0.024152717495102043
598,299.246912084,-0.1735487596251,0.056801173412940005,0.17382334155512003
599,299.748240872,0.2735244216034,0.045958855287860007,-0.09756883671396001
600,300.249569606,0.10526790132584,-0.19239526956196,0.02153139468518
601,300.750898432,-0.34502076209770005,0.1028399727136,0.111430819556
602,301.252227156,0.2282728290528,-0.020382618456800002,-0.1831966476892
603,301.753556498,-0.09536377742900001,0.09332022264640001,-0.11888243793139999
604,302.249872655102,-0.08130278454285714,-0.0033383040827142845,0.11667564173285716
605,302.74618844,0.06391959824181999,-0.227198429374,0.07516785998086001
606,303.24751754,-0.160709104021,0.1379878124338,0.0007823213967999987
607,303.74884632,0.1405261785325,0.07562162306372,-0.14760082840799998
608,304.25017504,0.0805290069242,-0.13790960572799998,0.049063296328464005
609,304.751503996,-0.35657183059894004,0.16006376284526,-0.014735489337320001
610,305.25283294,0.2969859530024,-0.06261479180326,0.0010161648650200033
611,305.754162084,-0.09671449060272,0.1213604617852,-0.2165813399416
612,306.2504779714286,-0.02884858029637143,0.018145363362244902,0.15315514104442857
613,306.74679374,0.04475404329682,-0.27408088562014,-0.03317423237702
614,307.24812276,-0.33878944687400003,0.15236631449364,-0.04180834656362
615,307.74945168,0.30554171551313997,-0.035500138797294,0.0353318729336
616,308.25078052000003,0.137910036049498,-0.01566567367466,-0.1826142087628
617,308.75210984,-0.22835983209280003,0.03450501808175,0.2512019887659
618,309.253439208,0.10331658174747,-0.10791905103346,-0.05408222123739999
619,309.74975487551023,-0.13547734825177551,0.08469613232081633,0.04346517222693878
620,310.2460705,0.1089139522642,-0.078319884873136,0.0023922770098599986
621,310.74739942,0.0995632892498,-0.17221334847161998,0.049805187687819996
622,311.24872826,-0.2990551121472,0.15506424061340002,0.029324240090600008
623,311.7500573,0.3124427543742,-0.09218832701622,-0.0258385302647
624,312.25138634,0.0075977049132200025,0.0688681929478,-0.20283392835400002
625,312.75271534,-0.20188720593414,0.04906058403706,0.1807182989012
626,313.25404434,0.10468835179380001,-0.11362152524140001,-0.04708946338226
627,313.7503599877551,-0.04261933902408164,0.0936947603522449,0.056389868375918376
628,314.24667561999996,0.1320842617702,-0.03585693137746,0.004424674651459995
629,314.748004276,-0.009845447057679998,-0.25415858191408,-0.004466078072960003
630,315.24933276,-0.329152514114,0.2126996146162,0.05680581445654
631,315.75066191,0.3138658246746,-0.060760046562945993,-0.005017078513307999
632,316.2519912,0.03167326782152,-0.121104382403,-0.1992871675284
633,316.75332006,-0.29143470376839997,0.051331768387040004,0.2959552502994
634,317.24963551224494,0.18779273039000002,-0.014206555654244897,-0.17949236346065306
635,317.74595143,-0.005786741646939997,0.07046848093538,-0.1326466326106
636,318.24728072,-0.1663887105114,0.0189600046334,0.051238320828340005
637,318.74860952800003,0.006488609675519999,-0.17456885969384,0.05140004433
638,319.24993828,-0.1724850587516,0.1095541526794,-0.043587924502000004
639,319.751267296,0.17513244900860003,0.1068518576394,-0.08031423207419999
640,320.25259642000003,0.003842157955205998,-0.16518370232652,-0.05996718748668
641,320.753925494,-0.242426405031,0.1884302461878,0.14739918600896
642,321.25024137755105,0.28088553995244897,0.01727438517602041,-0.06924522300617449
643,321.74655715,-0.0952325079354,0.029734764476,-0.0944011600496
644,322.247886258,-0.29674815641654,0.16599497704299998,-0.040330023018
645,322.749214976,0.0901632572916,0.10836129264796,-0.18529650244999998
646,323.25054356,-0.0627009224656,0.18595498251516,-0.36839240129326
647,323.75187273,-0.23192439665678,0.08253685674084,0.084818416545
648,324.253202,0.04084256485999999,0.049580613375600005,-0.18492908489754
649,324.7495178122449,-0.10204898949687755,0.2004788295163265,-0.17408224045546938
650,325.24583372,-0.09343633756200001,0.008559592071099999,0.1388171422128
651,325.74716239599996,-0.0026161758532000047,0.043513082344799996,-0.10762550052664001
652,326.24849078,-0.17896375468942,0.1879665278132,-0.2592794896761
653,326.749819924,-0.10564704990120001,0.15470295403335999,-0.0670055031024
654,327.25114922,0.020751810077089997,-0.05837599016752,-0.2891776696654
655,327.75247813199996,-0.19257663991611998,0.2789040615372,-0.05356657090942
656,328.25380692,0.043702975838532006,0.06784653570523201,-0.16963374429000003
657,328.7501228489796,-0.00028035731362653383,-0.22175524338795918,0.07577900957527756
658,329.24643900800004,-0.22234390303419999,0.2189137329186,0.027237427157599994
659,329.747767918,0.10063147414279999,0.16532277701466,-0.16136185106220002
660,330.24909679999996,0.08302085764848,-0.14363121966587,-0.10411649227742
661,330.75042582000003,-0.37178477071000005,0.21615980145480002,0.009509034562757998
662,331.25175486,0.31051116014628,0.0244167739894,-0.07531683093328
663,331.753083844,0.0013668630234000014,-0.0906986705209,-0.06519708597957448
664,332.2493995632653,-0.3277033907536735,0.10555555451244897,0.08516803709171429
665,332.745715448,0.22474804922629998,0.015055520870360002,-0.1788628163547
666,333.24704466000003,-0.05041903967252001,-0.026141014283134,-0.10337999895099999
667,333.748373792,-0.24502500861760002,0.09327970838482001,0.10975371921832
668,334.249702958,0.15728868110314,0.016765453862,-0.100646478421
669,334.751031974,-0.0266358796516,0.050181566141080006,-0.2150487077962
670,335.25236087999997,-0.28328687837446,0.18440712475964,0.06445207685998
671,335.75368998,0.03676863880778,0.07395324613996,-0.1567036294596
672,336.25000578571434,-0.08008686105814286,0.11617325531126531,-0.16252495126365304
673,336.746321546,-0.0764397341768,0.111175141637606,0.08466765833960001
674,337.24765064,0.0009340640766000003,-0.03076987605574,-0.15388709542391799
675,337.748979794,-0.15128018864607998,0.1831442719356,-0.1552680068876
676,338.25030899999996,-0.08562894639724,0.1328437257958,-0.0539953366948
677,338.75163815400003,-0.10603342034019998,-0.082117036879,-0.18808657997314815
678,339.25296734000005,-0.06600436154164199,0.25992258343842,-0.12261752798804
679,339.754296432,-0.056700348018466,0.086316118574,-0.052768764941199996
680,340.2506121346939,-0.045599042325616325,-0.035871419041469385,-0.09234009500271428
681,340.74692799999997,-0.12417145349468,0.22789778543377998,-0.13302890614596
682,341.24825716,-0.0011668832605400007,0.03457310108382,-0.05591821860499999
683,341.7495864,-0.027497075804400008,-0.06013933222627801,-0.065486082512
684,342.25091568000005,-0.14383987877794,0.2101803171796,-0.1550977948324
685,342.75224479800005,0.1030206751834,0.0711904401434,-0.0805519855014
686,343.25357382000004,-0.078614731762,-0.16740203495778,-0.0195836995886
687,343.7498896877551,-0.1531757412052857,0.11380988386061225,0.004626009530918367
688,344.24620546,0.19753306395599998,0.20341470511236,-0.18078850709236
689,344.747534788,-0.097429563446,-0.2898802060644,-0.029299301353586
690,345.24886432,-0.24756287745840003,0.1456565649042,0.07254555087996001
691,345.75019370200005,0.2826475393982,0.08717997550966,-0.09249803473206
692,346.25152335,0.034994976389599995,-0.0771647131002,0.0211379153536
693,346.752852572,-0.27067426055759997,0.046627251578399996,0.13312069624392
694,347.25418169999995,0.19801441157138,-0.027159248539399997,-0.2017986938276
695,347.75049775714285,0.03739569584997959,0.12971004821244897,-0.04867377948724489
696,348.24681384,-0.1525935070204,-0.046273920837,0.18773276729556
697,348.748143288,0.028690250024999996,-0.052561297640811196,-0.0655063063314
698,349.24947289999994,-0.06573865588238,0.0821632537494,-0.09026944510394
699,349.75080216000003,0.017284730547000002,0.025557435604,0.06669131142962
700,350.25213134,0.07828126847516,-0.2793987448874,0.06752254478528
701,350.75346070599994,-0.26276674973184,0.053024461119,0.0752815528964
702,351.2497766428571,0.3208824848567755,0.0358977625947551,-0.07574135407244899
703,351.746092746,0.047055581702759995,-0.0200434622949,-0.0643513191182
704,352.247422088,-0.3148017821166,0.007809508333800008,0.09356338059708
705,352.748751816,0.270129024911,-0.03720194569616,-0.1673323174954
706,353.25008178,-0.011872294562439998,0.15905937831988,-0.08029197932776
707,353.75141148,-0.09204459216232,-0.03002987138674,0.17333419578966003
708,354.25274132,-0.0924873026142,-0.19095866642494003,-0.034666991226520005
709,354.75407071200004,-0.1162108751526,0.18513885111580003,-0.027381662430399994
710,355.25038654897963,0.21728143648487755,0.06110352234640817,-0.046752494924285716
711,355.74670311,-0.026929012092000004,-0.2877874908254,0.03347369656048
712,356.24803328,-0.1455977584422,0.18394101463542,0.14084698232759998
713,356.74936311,0.226353651819642,0.009124271464599995,-0.07487185154504
714,357.250693,-0.0288722242762,-0.2227012366756,-0.0498186967917
715,357.75202292,-0.25627158501603203,0.1112361558656,0.0709755131572
716,358.25335284,0.24605203516592,0.03581433020296,-0.126755362408036
717,358.74966932040815,-0.019201197235306115,0.08123515440387756,-0.1862675054192245
718,359.24598544,-0.1130813688124,0.0033566893645999908,0.1788530995572
719,359.747315368,0.01031977352318,-0.28277205753928003,0.0176241575515
720,360.24864529999996,-0.146587081098,0.0889933350774,0.014890511700199996
721,360.74997511000004,0.2770660613456,0.06527408977940001,-0.097396599889508
722,361.25130498,0.05350470099344,-0.12720564481616,0.04649472171278
723,361.75263484000004,-0.33522380974362,0.1001439677186,0.1184345359293
724,362.25396472,0.26862807413616,-0.015299299951399998,-0.17131553681779998
725,362.7502812714286,0.018705335009999997,0.030883157816326532,-0.08412454705712245
726,363.24659782000003,-0.187559344935662,-0.006118730139199999,0.11781312716728
727,363.747927784,0.06543441168832,-0.046311745792686,-0.0831141117138
728,364.24925781999997,-0.0328482098412,0.144028110617,-0.0354207618822
729,364.750587608,0.140046603679,-0.06452099564354001,0.019800265614200004
730,365.25191714,0.023954097022400013,-0.26060659713644,0.11924193837236001
731,365.753247156,-0.2841885101478,0.07089820783499999,0.06743506590664
732,366.249564132653,0.31166711007285713,0.06388651637328571,-0.12183458506328572
733,366.74588050799997,0.05156798199340001,-0.11982516857832,0.036476930652299996
734,367.24720994,-0.308013840918,0.06580179242518,0.12138219742332
735,367.74853992,0.36403607115840003,0.013029848117599996,-0.1838030301938
736,368.24987016,0.01398021594846,-0.015725207472,-0.060866134212092
737,368.751199808,-0.2681608490576,0.025955455080800004,0.1610586666899
738,369.25252914,0.04131761095984,-0.029331955775639997,-0.1199746227525
739,369.75385878000003,-0.04221447998958,0.0665167994585,-0.03682738759298
740,370.25017507346934,0.012838000996734697,0.03630526318183674,-0.020040441081285717
741,370.746491386,0.06976339854858399,-0.2125743924796,0.0651779311332
742,371.24782103999996,-0.23834978217143998,0.0796510631644,-0.05246243418865999
743,371.7491506,0.16437261238280002,0.15281736121213998,-0.1433793287894
744,372.2504802,-0.014624640717600002,-0.09378628344480001,-0.044191875641179997
745,372.75180970599996,-0.3779435722868,0.14486238580136,0.0473467496812
746,373.253139058,0.26648232163794,0.06329538747752,-0.038722310655040004
747,373.74945545918365,0.06166327650148367,-0.11127363671695918,0.026901045058714285
748,374.24577198,-0.30510502114356003,0.1202652712494,0.078906495807
749,374.747101578,0.2645953484936,0.0067028129457460004,-0.25619533472016
750,375.24843137999994,-0.0708211726696,0.10969400455096,-0.1188252964938
751,375.74976084,-0.2694845451322,0.13215007194806,-0.035026073657239996
752,376.251090266,0.07631842408468001,0.12221024528294,-0.17878803528405998
753,376.752419652,-0.0675068961448,0.10316373906938,-0.1590387187888
754,377.25374883999996,-0.13884436374637998,0.09282438881819999,-0.03337535719192
755,377.7500650265306,-0.15270280776587755,-0.07341495275820407,-0.11755263119126122
756,378.24638101999994,-0.08150363162379999,0.37598616228,-0.19520400618654002
757,378.74771051999994,-0.0879488459954,0.10927065723338,-0.0698221939012
758,379.24903998,-0.04258418880113999,-0.1436166820668,-0.10774218749012
759,379.75036950000003,-0.1850466050772,0.2376425234266,-0.11839065901242
760,380.25169889999995,0.06471477398452001,0.0884739422404,0.0020908290852000005
761,380.753028614,0.025169953768599998,-0.21143717486784003,-0.08518223974068001
762,381.24934540816326,-0.19091156672938775,0.1521511271412245,0.02348960232342857
763,381.74566125999996,0.11719879121398,0.12918152055286,-0.0744391757996
764,382.24698994,0.008734553391799996,-0.16939520386898,-0.0660273598866
765,382.74831936000004,-0.34445182032939997,0.1300387340012,0.0015409837351
766,383.24964872,0.26801733778758263,0.172812455180892,-0.14991735016948002
767,383.750978084,-0.0691265143697,-0.108361347482148,-0.11034345326247999
768,384.25230752000004,-0.35630000479800006,0.1420740137226,-0.049602113962000004
769,384.753636832,0.21975274686082,0.2159530641088,-0.015977765937179998
770,385.2499529755102,0.08448938591918367,-0.1570227031565306,-0.14725757137034695
771,385.746269064,-0.33934292808474,0.1285934148772,0.0486099096415
772,386.24759870599996,0.36601155117600004,0.0045805242649999975,-0.09001289222480001
773,386.748927934,-0.0913733275958,-0.0477180799098,-0.0485893460503
774,387.2502571,-0.33017142850951997,0.11269055873119999,0.00170666298496
775,387.75158627999997,0.185621251752068,0.12395734603834001,-0.17390155380553998
776,388.25291552000004,-0.1089107903554,0.14892867658118,-0.20066648988261998
777,388.754244536,-0.2937387548352,0.13172656824684,0.03436639024812
778,389.25055997959186,-0.007292573641653062,0.0742912629297551,-0.18949802173795918
779,389.746875928,-0.0545386887898,0.18751838120679998,-0.23819599718349999
780,390.24820536,-0.1885860349225,0.17321914392556,-0.05128156541024
781,390.74953437,-0.06011455070616,-0.04281131017828001,-0.20890134436352
782,391.25086306,-0.041080005759400004,0.2393767629596,-0.18911046227650602
783,391.752192248,-0.0896489559794,0.099759514421206,0.010643402863440002
784,392.25352147999996,-0.12130864594020001,-0.046615242790104004,-0.1663989868702
785,392.74983731020404,-0.12700656020189796,0.22077475964259183,-0.11658518771008163
786,393.24615328,-0.0071121853608000045,0.09722004262402001,-0.04722823114184
787,393.74748217,-0.0115876366154,-0.15288162645186001,-0.015321797502000002
788,394.2488108,-0.213206003704,0.14607443544714,-0.044666441566227996
789,394.75013978000004,0.21867486772284198,0.0770148847861,-0.028909072394139996
790,395.25146878,0.022240134216999996,-0.1588743276904,-0.1309471526344
791,395.752797806,-0.4011849203736,0.17560432836659998,0.0651985567932
792,396.25412698,0.4163930497704,0.022240663771599996,-0.1922461618444
793,396.75044275102044,-0.06064570071591836,0.0032136433418367308,-0.08896829766122448
794,397.24675862000004,-0.2782433319036,0.1072636928906,0.08981011487640002
795,397.748087468,0.1323421985676,-0.014617178029200002,-0.2073376299852
796,398.249416152,-0.0516999410887,0.022586772905760007,-0.0346372218084
797,398.750745102,0.019992275987399995,-0.025462966276160005,0.18777683597896
798,399.2520742,-0.014650957730599995,-0.18798185095179998,0.028453687867664
799,399.75340310400003,-0.12886630048828,0.15519835573222,-0.09359960395617799
800,400.24971882244904,0.20247698172093878,0.11497484084816326,-0.08529493486448979
801,400.74603420799997,0.0488717944938,-0.303840261552,0.10304012944704001
802,401.24736226,-0.3808977097666,0.1406888337468,0.06498021453800001
803,401.74869119199997,0.3875547578952,-0.1204284654546,-0.12890194991457998
804,402.25002044,0.011579061276799998,-0.006138000787400004,-0.036145760106638
805,402.751349208,-0.18575651429819998,0.09594356366319999,0.17263103147858
806,403.25267797400005,0.0550623978652,-0.15158521938804,-0.0903168085978
807,403.75400687200005,-0.18634715072639998,0.0915436428018,0.006390512173080002
808,404.25032274081633,0.2710646924077347,0.11372451130571429,-0.10838318437920408
809,404.74663822,0.058132767452110004,-0.135011096284,-0.015888411948059997
810,405.24796686,-0.34749917451415996,0.026281986568,0.1247306620286
811,405.74929554000005,0.15468429897487598,-0.0317923856073,-0.06686028126924
812,406.25062412,-0.079356183097,0.0841404841956,-0.16006956831699998
813,406.75195284,0.11926218909844,1.8120112020004186e-05,0.0801505164674
814,407.25328164,0.05543341271138,-0.3002041844316,0.133492439314004
815,407.74959709183673,-0.3343151472989388,0.20978959171387754,-0.08089119317612245
816,408.2459125,0.2970207680196,0.03619665044792,-0.09580628939182001
817,408.747241274,0.0284553092324,-0.010170451328600004,-0.0779100539604
818,409.2485701,-0.26083057224199996,0.04833994010322,0.11529936309783201
819,409.749898598,0.05296901223726,-0.1178295060302,-0.09316909146702
820,410.25122647999996,-0.08917377230199999,0.10970293834862,-0.0459780378556
821,410.75255518,0.12000909954740001,0.0513408772412,0.0031215094348399997
822,411.25388432,0.1514900391198,-0.24263850038339999,0.17063891781831997
823,411.7501997142857,-0.2951200053840816,0.08368618733244897,-0.02184113495510204
824,412.24651538,0.232176619581,0.0314569287788,-0.1000432991662
825,412.74784396399997,-0.1649687172896,0.1363114639402,-0.18650306634376002
826,413.24917238,0.0403482060112,-0.055565486294,0.10388783640318
827,413.750501078,0.0641132582826,-0.2932002726268,0.16696518445954
828,414.25182975999996,-0.2584285326672,0.14470386646458,0.08207936479465999
829,414.75315843199996,0.35658656843240005,-0.04655363515099999,-0.09058027015586
830,415.2494736836735,-0.0015858740377346948,0.015294457424897958,-0.157483287086
831,415.745789148,-0.2138376758231,0.0010741600701400006,0.1624458388276
832,416.24711808,0.06872262165729999,-0.0795591019824,-0.02280528058553
833,416.748446748,-0.0901249910044,0.09316563994499999,0.024493145945800005
834,417.24977522,0.1424000712412,-0.004628646813779999,0.0396537664113
835,417.75110398600003,0.083050924919,-0.19115241341800002,-0.06774878113482
836,418.25243264,-0.3526893308941,0.09035963378686,0.039852516151160006
837,418.753761688,0.39706834957060005,-0.03662446367568,0.007627159134999994
838,419.2500779,0.03764673324830612,-0.05788414891744899,-0.15362443968112247
839,419.74639358,-0.2730293148634,0.0125503464046,0.11614310444902
840,420.24772186,0.1222436631123352,0.0577244788794,-0.0565300839812
841,420.749051264,-0.041841323412799995,0.1126672308156,-0.18763204898400002
842,421.25038132000003,-0.13590688852479998,0.021273754120292004,0.033796566906600004
843,421.751710636,0.0756019625844,-0.2508104810772,0.14368322815148202
844,422.25303978000005,-0.2124227686292,0.1311810450938,-0.006138303979740003
845,422.74935592244896,0.22650992360246938,0.029324202604959184,-0.05238893378033265
846,423.24567194,0.05048451651020001,-0.12837321331068,0.0146518772149
847,423.747001532,-0.35420330511796005,0.17607481750922002,-0.0033810347309999977
848,424.24833118000004,0.2812448782098,0.021363670787839996,-0.1335572400502
849,424.74966077600004,-0.1038708770401,0.1120367262942,-0.215380252602158
850,425.25099042,-0.19079859314619999,0.07876424657679999,0.0977375331196
851,425.752319928,-0.04015633614628,0.017872284965059996,-0.25667238477682003
852,426.253649,-0.0830895394672,0.20757921054266,-0.132841236566508
853,426.7499654857143,-0.09639313984387754,0.132307425942449,-0.057193739188736735
854,427.246282766,-0.1399163841163,-0.13764411733886,-0.07453593788768
855,427.747612454,-0.0027648203494000014,0.26140015775132,-0.18385398745819997
856,428.24894202,-0.053478423584094,0.12569787945226,-0.08994709805891998
857,428.75027195,-0.052959599758,-0.1105606260494,0.002850551827800002
858,429.25160224599995,-0.1533654421584,0.18281084117014199,-0.0529361472214
859,429.75293224200004,0.0807678048302,0.12446797418102001,-0.150118776446138
860,430.254262246,-0.051461127324599995,-0.13442311096318002,-0.09237035993539999
861,430.7505790367347,-0.2697849916181633,0.14349483579502653,-0.10323206573395918
862,431.24689568,0.08285062010716,0.25026269868188,-0.0952433653944
863,431.748225906,0.027118554785,-0.1465980831384,-0.08996484018946
864,432.24955606000003,-0.4186264004868,0.1771471291392,-0.0224245181687
865,432.75088626999997,0.3038631086014,0.15157982535825998,-0.20721745105458
866,433.25221619999996,-0.034300348538600006,-0.09686119561868001,-0.06726270811532001
867,433.753546628,-0.38480050489076,0.186413928638,0.0336991894936
868,434.24986399795915,0.3223232341091837,-0.02284550349897959,-0.12587977493510202
869,434.746181308,-0.005857746532199999,-0.1532381026106,-0.011460445410400004
870,435.24751232,-0.2885749856255,0.20313560744604,0.006357524818319999
871,435.74884309000004,0.2574706845309,0.11717214742268,-0.1279314612574
872,436.25017434,-0.073216754254,0.01605276098742,-0.1400825642529
873,436.751505136,-0.29104124441638,0.13001574062056,-0.018572066046672
874,437.25283556,0.07815620723732,0.045701819281600005,-0.12142637048114001
875,437.754166558,-0.0690914746564,0.0375507319014,-0.10525475396966
876,438.2504842265306,-0.231984007037551,0.16573453287355103,0.032801948715510204
877,438.74680209999997,0.16540435905756,0.0454479051928,-0.1206143715974
878,439.248133844,-0.0579178730342,0.009374085500799998,-0.126240775415108
879,439.749465144,-0.1540704575366736,0.21174200844924,0.009424174970599998
880,440.250796584,-0.0596476526578,-0.11697972675585999,-0.094341356121
881,440.75212808,-0.17396092592526,0.19775209847820002,-0.0845555826274
882,441.25345938,0.0935448950518,0.189198062156452,-0.14466416951032002
883,441.74977768775506,-0.10900062412552448,-0.12375975798610205,-0.1309305053787041
884,442.24609622,-0.2364757000266,0.1443160056682,-0.09615681931080002
885,442.747428056,0.0390713861626,0.24791291344406802,-0.1313579475259
886,443.24876018000003,-0.027061613616600005,-0.19248330031924,-0.060483753509399996
887,443.75009205199996,-0.29657104898476,0.2713140159118,-0.02500298379322
888,444.251423378,0.15978458187176,0.18975358356816,-0.23254412185540002
889,444.75275544600004,0.021978620594999998,-0.14968380758351998,-0.07923906538768
890,445.25408763,-0.41557658758419996,0.23960299262357998,-0.0106196820052
891,445.7504065306122,0.3632795950571429,0.11327619061620407,-0.1789318746142449
892,446.24672566000004,0.002941067441599994,-0.1597290850084,0.0152260698336
893,446.74805809,-0.3119938573065,0.026923725812280003,0.01698668387596
894,447.24939064,0.2527189581846,0.011718480890040003,-0.14059206179272
895,447.750723268,0.01676305184228,0.03388211156894,-0.02680764665694
896,448.2520563,-0.2344334621126,0.05280691462598,0.006661315839967998
897,448.753389,0.003673685006419999,-0.084166905652,-0.025350774523400003
898,449.2497080326531,-0.14605914360020408,0.08275867755918367,0.025420991606367346
899,449.74602759000004,0.26505801443446,-0.016609753574599997,-0.0280044896824
900,450.2473607,0.01966401243931539,-0.1288113206816,-0.00155548090438
901,450.74869380999996,-0.29342447901462,0.098723829236,0.161485347882
902,451.25002694,0.10306813679760002,0.0065207176320000015,-0.1903211449456
903,451.75136027,-0.1068554746272,0.15258667335282,-0.2161025215523658
904,452.2526937,0.09862966583119999,-0.062254760198400004,0.1128421406308
905,452.75402734000005,0.057559276837599996,-0.32453748427195994,0.04537090642648
906,453.250347377551,-0.3471343850652245,0.19405059395102042,0.10006691872510204
907,453.74666770000005,0.39239380629812204,-0.02139000794194,-0.17801452592928002
908,454.24800148,-0.004055156597359999,0.130063218906,-0.096042564143994
909,454.749335292,-0.09672396200440002,-0.0263775180138,0.1226537773734
910,455.250669006,0.080223488432,-0.28033991748676,0.08615600381380001
911,455.752003044,-0.3516713911246,0.1175748167739,0.03761245436552
912,456.25333725999997,0.385628808361,-0.033793655405658,-0.15167868367811999
913,456.74965798775514,-0.08063750336363265,0.14558893168159182,-0.15878322648612248
914,457.2459786,-0.011081793731048166,-0.027140469453799998,0.09842978364899999
915,457.74731287199995,-0.0148059374912,-0.20879237929816,0.0867452973504
916,458.2486471,-0.2808267326774,0.0813614166018,-0.0033268935125560025
917,458.749981424,0.38572582013858003,-0.015139368865792,-0.17311305246856
918,459.25131567999995,0.005257046875000002,0.024762636356260005,-0.09768380797902002
919,459.75265023599997,-0.1618355277005,0.003319439071800002,0.18071518870053999
920,460.25398538,-0.009553079198400006,-0.1161245857476,-0.013054200378999998
921,460.75030666326535,-0.17214747029142857,0.04327109648428571,0.02466744154940817
922,461.2466279,0.1926957055392,0.07467447657528,-0.15648210794019998
923,461.74796256,0.14435705571600002,-0.04402752289012,-0.009872698815400004
924,462.24929724000003,-0.2793932999639,0.047011251011399996,0.17154632186552
925,462.75063189599996,0.12619473233622,-0.12531292434879998,-0.04976526841588
926,463.25196594,0.029980576180400002,0.031162025583520006,-0.06550648015
927,463.75330078400003,0.028457554433200003,-0.049036009663439996,0.04564220707824
928,464.24962294897955,0.03588913050959183,-0.19966864875855103,0.13233392725357143
929,464.74594441399995,-0.28539938379578,0.05963909223899999,0.017751945252599998
930,465.24727914000005,0.32694523796712405,0.10155805461324001,-0.1467973694916
931,465.74861399,0.0530532708798,-0.0251252083798,-0.129448379967
932,466.24994934,-0.2483054502312,0.0602297805258,0.1759560389426
933,466.751284196,0.028996999018900002,-0.03979052819744,-0.12029230669224
934,467.25261886,-0.15161115571324,0.0782407801006,-0.15831273904218
935,467.753953692,0.14803308018706002,0.07197091353048,0.07283382109782
936,468.25027473469385,0.11050388988893878,-0.2474848363479592,0.04611136916551021
937,468.746596414,-0.36039091162840003,0.139629217541,0.026572212331418
938,469.2479322,0.31673022525592,-0.04570754401319999,-0.09970042374488002
939,469.749267234,-0.0184938152544,0.0931290882142,-0.209802198814
940,470.25060224000003,-0.1577998880272,-0.03094567095022,0.1469666988768
941,470.751937322,0.033134410905,-0.16637981253316,0.03669213719416
942,471.25327222,-0.0698090103224,0.012679002806600002,-0.021746788413999997
943,471.74959407551023,0.15753266291020407,0.07227414409102041,0.07738877418130612
944,472.24591611999995,0.10357854254588,-0.2472273736184,0.084653919017114
945,472.747251428,-0.28677895301698003,0.12999776386019998,0.05484019599960001
946,473.248586922,0.2456179539992,0.052574996555459996,-0.11589165851080001
947,473.74992225200003,-0.017829211354179995,-0.014850837895319997,-0.0646692766354
948,474.25125728,-0.3001384337226,0.09040854446875998,0.0938586438265
949,474.752592718,0.055858127266499996,0.085411707142,-0.20699306531938
950,475.253928202,-0.1579633581454,0.24115149102340003,-0.221796593671348
951,475.75025046938777,-0.06069036732979592,0.04732356032393877,0.03236182885814286
952,476.246572746,0.004344604220400003,-0.033476219478,-0.07995552897758
953,476.747908504,-0.08146200027459999,0.22565373177200002,-0.0359634848374
954,477.249244324,-0.011258360506000003,0.0946020060736,-0.11395247404603824
955,477.750580188,-0.03341161852151999,-0.18031245484580002,-0.13868141511819998
956,478.25191628,-0.21820449516,0.1943399214362,-0.143368482734
957,478.75325237,0.11681966494439999,0.24504395987506,-0.14651814365512
958,479.2495755938776,-0.08297083329585715,-0.13602267414310204,-0.12883865966918367
959,479.745898372,-0.38600188545869996,0.17722129620459998,-0.1419452056165
960,480.247233984,0.18545951042390002,0.2447666443092,-0.29143546881242
961,480.748570334,-0.1292030824391,-0.028969738710599997,-0.07668637666392
962,481.24990702,-0.347605331072,0.1363814538682,0.04665694271760001
963,481.75124347999997,0.3432880126288,0.03968097904918,-0.09163088694718001
964,482.25257962,-0.0173179591466,0.07527762930926,-0.26053570724836
965,482.75391626,-0.3085237692138,0.07140109464456,0.1056621875102
966,483.2502401122449,0.03116136973830612,-0.03020124225462857,-0.13042170615020407
967,483.74656351199997,-0.17433839243937999,0.0991806937698,-0.0037322256572800017
968,484.24790002000003,0.094752736768,0.03715432304626,0.00046041572508000004
969,484.749236946,0.17694289170000002,-0.123000943922,-0.08613164773370001
970,485.250573668,-0.313864908818,0.054476740802,0.11643010568240002
971,485.75191087999997,0.27814122222203996,0.08136776301559999,-0.09540194146096001
972,486.2532485,0.01225557025574,-0.0480772229326,-0.04655090396736
973,486.7495724795918,-0.3393112753269388,0.07159188036295919,0.0659550356167347
974,487.24589720000006,0.195620250424,0.022019656888859998,-0.16215768868538
975,487.747234686,-0.053510593936259995,0.13015380410192,-0.07296295810398
976,488.2485717,-0.308562380975,0.1252958000868,-0.02028139041048
977,488.749909378,0.0436636740273,0.10015322194313998,-0.25538581170146
978,489.25124804,-0.092287592812,0.10223701193577,-0.12274948445516
979,489.752585842,-0.15117937417628,0.1405631329928,-0.00027628276578000043
980,490.25392288,-0.084103214143,0.02618622798554,-0.1434839512487
981,490.750247489796,-0.20215026130734692,0.2825765997659388,-0.27395634999857144
982,491.24657258,-0.01893331551656,0.041709022284859995,-0.01792325525084
983,491.74791069400004,-0.030287790376380005,-0.03858604639854,-0.1957801621465
984,492.24924857999997,-0.2187763923248,0.25251109381452,-0.08897600307349601
985,492.750586692,0.03826414512587999,0.10975488531156,-0.10158476706674
986,493.25192450200007,-0.005185911994159997,-0.16401704295999997,-0.11244610282815999
987,493.753262704,-0.3461795476772,0.16871856355976,-0.06776038832918001
988,494.24958765510206,0.28124358451689796,0.17647114255610202,-0.13722887948581633
989,494.74591254,-0.06636948464552,-0.10339277585862,-0.01491899164818
990,495.24725146,-0.43209682896380003,0.2714880203114,-0.058749272667999994
991,495.74858978,0.35154784813859996,0.03288910968522,-0.09351456657008
992,496.2499278,-0.1298950923296,0.1569067448033,-0.2586187362689
993,496.75126622000005,-0.20301167960268,-0.040707267322440004,0.13469600681118
994,497.25260438600003,0.011365421859199998,-0.2091138099162,-0.03727902054658
995,497.753942954,-0.0390784422304,0.19147389231283998,-0.0298081821554
996,498.25026864897956,0.13583501888220817,0.06325794498632653,-0.10041852854124489
997,498.74659398000006,0.0972701555494,-0.1216441726066,-0.0023561055764000005
998,499.24793302,-0.3514984998864,0.0399166733004,0.04433900561538
999,499.74927192,0.32671449519920004,-0.058599011895256,-0.09132682332364
1000,500.25061137999995,-0.11026878509072001,0.094140333684,-0.069366488649324
1001,500.75195055999995,0.0016059055969999947,-0.053800877275072,0.09642086132302
1002,501.2532892,0.08311080421694,-0.25574113786521996,0.1019093246814
1003,501.74961489387755,-0.23860753223183673,0.1628139381657143,0.021719576733938782
1004,502.24594101199995,0.1632354333314,0.03399968681832,-0.08858233022326
1005,502.74728023999995,0.13091254871576,-0.065354397895,-0.013627578873134004
1006,503.24861909,-0.262235160695,0.0677854244602,0.055822357875759995
1007,503.74995845999996,0.03236811883619999,-0.05263957184024,-0.11143284989498
1008,504.25129846000004,-0.0797155879444,0.131757594575208,-0.0433924580966
1009,504.75263808000005,0.14424161371946,-0.04706884861126,0.009162394042299998
1010,505.25397788000004,0.0916577961108,-0.2632334060873,0.1544527875662
1011,505.75030429183676,-0.2872808281955102,0.11634738899897959,0.06968990949714286
1012,506.246630016,0.3282353548708,-0.03640419262422,-0.15284186920353998
1013,506.74797010000003,0.029567592460340006,0.0687750128274,-0.1401235011634
1014,507.249310416,-0.23451144755439998,0.0336791346224,0.1252503381672
1015,507.75065062,0.07316750774878,-0.1888209788424,-0.0223875372892
1016,508.25199088200003,-0.1424517284296,0.089285818413,0.01459560633522
1017,508.75333123999997,0.08860975527022,-0.002808018105000003,-0.11814655841045861
1018,509.24965828979595,0.17886392437959187,-0.03819020790061225,-0.01809537616881429
1019,509.74598552000003,-0.345569798292,0.0636895512294,0.08006935719741999
1020,510.247327074,0.32386743030376,-0.0574190872448,-0.14254113588778
1021,510.748667944,-0.170496657813,0.18279630381112,-0.10601688359039999
1022,511.250009036,-0.029652207912338004,-0.05853030503159999,0.17635856635824
1023,511.75135002,0.018761407065400002,-0.24721884727940002,0.01959801151254
1024,512.25269069,-0.2198554041836,0.06355598921899999,-0.0630681901676
1025,512.75403188,0.333271004258,0.062521269885,-0.062563366633
1026,513.2503602367347,0.08949442979481632,-0.04972864130061225,-0.03889092215832653
1027,513.74668822,-0.2897635890756,0.09433969296460001,0.12891097240802
1028,514.248028932,0.1156825350244,-0.11215089000079999,-0.10523067316616
1029,514.74937046,-0.007620684484700004,0.11555639382220001,-0.1285677326876
1030,515.250712292,-0.108056752077,0.028389671348454,0.09321294284869999
1031,515.75205416,0.0740587915881,-0.23578630603977999,0.088641828392
1032,516.253396002,-0.1300251396512,0.0668276071184,0.047807067063339995
1033,516.7497245469388,0.2091157083963265,0.13465856589387756,-0.18313080579067345
1034,517.24605356,0.021466496986799997,-0.2591710272482,0.2042911108936
1035,517.7473955,-0.26281873277580003,0.06238382817700001,-0.042601541784380005
1036,518.248737172,0.27097784636634,0.0148102974657,-0.0692403156242
1037,518.75007922,0.2037782542056,0.014244511350699995,-0.015137596578200001
1038,519.251420976,-0.2451670083664,-0.006397923150999995,0.06367318360634
1039,519.75276312,-0.018155425089419995,-0.07830476364896001,-0.041514242216840004
1040,520.2541063040001,-0.2517145718948,0.11312848444404,-0.03211494162542
1041,520.7504353285715,0.2671684142774694,-0.0640543632510204,-0.02704235055270408
1042,521.2467644000001,0.08749357448813999,-0.016093976901800006,-0.1401638026564
1043,521.74810698,-0.17637759576304,0.09577234184447998,0.11369631774604
1044,522.2494492000001,0.084741928460094,-0.18245210621802,0.10046974893832
1045,522.75079206,-0.11430433124709999,0.0334962158332,0.0586177329316
1046,523.2521349799999,0.25986709313038,0.12248725163132,-0.035183454932264005
1047,523.75347782,0.03960736822224,-0.13225029786554,-0.12919005996340002
1048,524.2498075857143,-0.3335093599255306,0.14253943468940816,0.041694269933836736
1049,524.746137086,0.2178844957418,0.06751197699200001,-0.158023033955
1050,525.247479882,-0.19986059282159999,0.025808737939200004,-0.0743508669422
1051,525.74882302,-0.023804058743379996,0.15220414714518,-0.04600880796877999
1052,526.250166256,0.01591144482866001,-0.1640716577582,0.002281847854660001
1053,526.751509724,-0.3044140670866,0.203520121669152,-0.065606213553872
1054,527.252853644,0.17348333812476,0.17554336571979998,-0.12476825942990001
1055,527.75419744,-0.0344254396345,0.015904107971279998,-0.30975813042644
1056,528.2505278142856,-0.37178723268959185,0.1685810625455102,0.12517238362693878
1057,528.7468583799999,0.08027504223008,0.08253253177142,-0.34512904146744
1058,529.24820288,-0.1928645648656,0.1813828928074,-0.29855778854139997
1059,529.74954713,-0.18138306819252,0.1975372233976,0.06890060961128
1060,530.250891504,-0.06893853659076,-0.10797900261634,-0.13155227498
1061,530.75223596,-0.2964912749664,0.2626934762996,-0.21018434735776
1062,531.25358066,0.0757378961896,0.18109613435522,-0.16418607833624002
1063,531.7499119244898,0.12135231010836735,-0.08355091466714284,-0.02081152532704082
1064,532.246243384,-0.3460071580878,0.12193474477234,0.11385554578708
1065,532.7475883459999,0.3022961685026,0.013432349280979996,-0.2232698327726
1066,533.248933362,-0.09077693998840002,0.0881705898442,-0.1141464022928
1067,533.75027856,-0.15415555894053998,-0.007812004398979997,0.16837226380770598
1068,534.251623902,0.018246267586200002,0.014593769202319999,-0.2808248438276
1069,534.752969284,-0.214264339661,0.17965191243439999,-0.2682129547754
1070,535.254314784,-0.04439356015414,0.1110739523528,0.03872575946772
1071,535.7506469489796,0.04679421708102041,-0.1928137086955102,-0.13110075978357144
1072,536.246978634,-0.38693454323364,0.25513206953494,0.06747754232856
1073,536.74832436,0.20336079426297998,0.10188288950464999,-0.15604213659798
1074,537.24967076,-0.18214932910846,0.17178158470180002,-0.17920519036944
1075,537.75101676,0.0881929433348,0.13628608198724,-0.05681109704580001
1076,538.252362456,0.0345506370038,-0.0404099595295,-0.11775073721879999
1077,538.753708544,-0.37431231079262,0.1247235550686,-0.008319195688799992
1078,539.2500412244898,0.036720536119183675,0.02420857153367347,-0.17635636352410203
1079,539.74637406,-0.1740773054636,0.21039680462574,-0.2337072233872
1080,540.24772054,0.01944091762798,0.1240894028972,-0.0729038123954
1081,540.74906702,0.1147159148582,-0.17148379200945998,0.03181019438282
1082,541.25041308,-0.4115049624778,0.1981558424268,-0.0650242827494
1083,541.7517596600001,0.18036338165300003,-0.0135654623816,-0.2029716349318
1084,542.25310634,-0.11451145006960001,0.25902090446563997,-0.1633443808679
1085,542.7494396142857,0.021312051435918366,-0.005779508993061226,-0.06109503810538775
1086,543.24577347,-0.04011554472122,-0.1424467981976,-0.007566703559999999
1087,543.74712042,-0.353524997027,0.1351507745666,0.011825986070800001
1088,544.24846708,0.3663026632722,0.0863127930454,-0.14061544967668
1089,544.74981414,-0.0725340357429,0.0341642298274,-0.22493758339056
1090,545.251161558,-0.2180496247108,0.064470762557,0.20346465036640002
1091,545.752508802,0.0027357995495999998,-0.17852109331705598,-0.059713078647
1092,546.253856284,-0.1673043619158,0.08765940174820001,-0.10037072071039999
1093,546.750190277551,0.18496904434244898,0.11180455556959183,-0.1496531733295102
1094,547.2465240839999,0.1228536739968,-0.08277237039924,0.0009363766114399974
1095,547.74787166,-0.35214576423460003,0.11510087267458001,0.08438012234519998
1096,548.24921918,0.10570712335015,-0.0354054342434,-0.13536892437
1097,548.75056686,-0.10093203198801999,0.020800335984296,-0.048962579186948005
1098,549.25191481,0.13659572546697998,0.06831951279333999,0.005480677782460004
1099,549.75326282,0.13582382627,-0.18142539046740003,0.06988801874008
1100,550.2495975163265,-0.38578844153679587,0.04211621784469388,0.06448629544020408
1101,550.745932202,0.23454934257889998,0.06469853088420001,-0.240116155961916
1102,551.2472804619999,-0.16354238957220002,0.08380879072580001,-0.19262003164983998
1103,551.74862878,0.005001500545600002,0.0331980616558,0.12004586361666
1104,552.249977506,0.1339536798582,-0.32321690232216,0.16934957194886
1105,552.7513259020001,-0.28272595697659997,0.0783053864214,0.0415243809684
1106,553.252673842,0.38042141466928003,-0.09674555783899999,-0.13197461224004317
1107,553.7540221200001,0.02135840401562,0.054444203266199996,-0.027100041262939998
1108,554.2503576979592,-0.09783785858591837,-0.03581438829142857,0.26343464989897963
1109,554.746693024,0.137823794575,-0.2391020347222,0.03148080333702
1110,555.24804237,-0.1937101377616,0.0329776315394,0.04547022821632
1111,555.7493912599999,0.2594180715562,0.012483557389799999,-0.1225680821394
1112,556.2507391439999,-0.01164210826399999,0.01544530169906,-0.1141078380444
1113,556.752088,-0.12184500539010001,0.053162301186,0.119004857691
1114,557.2534377439999,0.06619747325620001,-0.1896681049326,-0.0006360962636000001
1115,557.7497734571429,-0.29614312754734695,0.04927913174477551,-0.046859515190000006
1116,558.2461092240001,0.36930705489498,0.13352963599324,-0.07200686514328
1117,558.747458262,0.0402705046568,-0.014174281619599998,-0.13864674372302
1118,559.2488068,-0.2877827291676,0.06524723778035998,0.1781076501527
1119,559.7501559799999,0.0502309094678,-0.167354614101,-0.09054895340888
1120,560.25150582,-0.1358518318244,0.0424346892526,0.08271350962126
1121,560.7528549,0.2604776730928,0.01602025311334,-0.074170977622912
1122,561.254204284,0.1034443093532,-0.208247868048,0.16000968682516
1123,561.7505401999999,-0.31352020999614283,0.09377939068102041,0.027606830149991834
1124,562.246876116,0.2508115907722,-0.014793210396019997,-0.08501478804114
1125,562.748225746,-0.20886811396944002,0.13250392301784,-0.1386371448548
1126,563.249575436,0.1640304180408,-0.0286484565206,0.10758727294892
1127,563.750925242,0.067381852269,-0.24867729868840002,0.044173840251884
1128,564.2522740640001,-0.37122837932,0.1593619683544,-0.014605224579
1129,564.7536235,0.3333440776888,-0.06757320165882,-0.1444995339156
1130,565.2499602897959,-0.10148385425755102,0.15463587581632654,-0.08545076664581631
1131,565.7462961,-0.0868991396076,0.0694747878484,0.079357556189528
1132,566.2476457939999,0.025291451215799995,-0.2451205994544,-0.10166017025734
1133,566.748995324,-0.272121360749,0.08296802050462,0.043388605233400004
1134,567.25034531,0.29168426175,0.0761056695842,-0.0797371335306
1135,567.7516954,-0.049934987457634,0.0880406442476,-0.2603177389502
1136,568.253044516,-0.113685443992,0.1309747530242,0.0725920941654
1137,568.7493805,0.04933758407716326,-0.26490141765959185,0.07968774812793877
1138,569.24571658,-0.35815175814539996,0.1380865602146,-0.011655290521395996
1139,569.7470661,0.2798771105694,0.0833633911222,-0.0902556207602
1140,570.248415416,0.08132058806011999,0.0097964616006,-0.08699380654304
1141,570.7497654,-0.2907663090016,0.09533978929574001,-0.008632014131400002
1142,571.251115904,0.0511274296732,-0.07458602348644,-0.14771581838474002
1143,571.752466,-0.17572240206848,0.1867664983792,0.02761486827626
1144,572.25381621,0.1640594583384,0.10962545908440001,-0.2042546983371
1145,572.7501527469387,0.013311142600306117,-0.13241059543285713,0.016725601768653064
1146,573.246489374,-0.44334031378463995,0.1878372226618,0.0026512718597999953
1147,573.7478394,0.22356114105952,0.038428344665514,-0.25088227010144
1148,574.249189064,-0.11501888066876,0.16552311048436,-0.21178740728846002
1149,574.750539,-0.1502644975522,0.09679536266936,0.017517204268100002
1150,575.251889476,-0.08842247544212001,-0.15427987419939998,-0.071979358716
1151,575.7532398999999,-0.1936743089494,0.1142904134902,-0.08483426008304001
1152,576.249576689796,0.25715769371897956,0.20450923913077143,-0.1626901226557755
1153,576.745914186,-0.0262619668218,-0.06719966286242,0.002261634635620002
1154,577.2472641640001,-0.35543255163836,0.0704473635354,-0.023158457011372
1155,577.7486149,0.1340944629933,-0.13541235927460002,-0.23941874548640002
1156,578.249965496,-0.333601698875474,0.4054286572776,-0.11727892333682
1157,578.75131616,-0.025770803621400003,0.12047970203664,0.022077980152
1158,579.252667144,-0.09326194365411998,0.09357242907194,-0.07790095601866001
1159,579.7540181,-0.10640542462059999,0.2092982683136,-0.39712285311179996
1160,580.250355289796,-0.18639659819714285,0.151006123572,-0.055140981948979595
1161,580.7466928,-0.16562377474852,0.10820976702256001,0.05846102155680002
1162,581.248044678,-0.011733690694400006,0.07329891509554,-0.0989592280604
1163,581.74939602,-0.14196688907938002,0.3039524181191,-0.4821351707646
1164,582.2507470740001,-0.2877328774136,0.29490008814519997,0.0685606422112
1165,582.7520984199999,0.012876077921525998,-0.10123770814600003,-0.14406600516079998
1166,583.253449966,-0.1244273155836,0.17221347802098003,-0.36508318336979995
1167,583.7497882265305,-0.2877452980095918,0.2921447707702245,-0.1421241623155102
1168,584.246125542,0.0901415432216,-0.03214311957220001,0.11295090805180001
1169,584.7474770800001,-0.017265291803199998,0.031142784851000006,-0.10128404282
1170,585.248829308,-0.069179102753688,0.10460992568361999,-0.5098692198676
1171,585.75018132,-0.2488021649106,0.051665097478142005,0.18214966793880003
1172,586.251533012,0.007739730883200002,0.022205962669400003,0.0847575732176
1173,586.7528851,-0.6853265418814,-0.3061296005332,-0.10728994680884
1174,587.25423789,0.7706969068534,0.41403691786381996,-0.4721892887238134
1175,587.7505767653062,-0.43129622418775515,-0.1579957158787755,0.2819693315081633
1176,588.2469152680001,0.065456359114,-0.13588944547399998,0.15279377874404
1177,588.74826766,0.39860294400999996,0.45880440609379997,-0.10903671881999999
1178,589.249620576,-0.7401970320078999,-0.41168790402474004,0.16368212493040002
1179,589.750973266,0.6445334929480001,0.10569570272799998,-0.11914315181120001
1180,590.252325844,0.11537291540739998,0.23764970206399996,0.2129349620854
1181,590.7536785,-0.7381733453789999,-0.4984451168034,0.11025193595819999
1182,591.2500174183674,0.8251090087530613,0.4518315412725102,-0.19050450639232655
1183,591.7463566600001,-0.154388797322,-0.035687316807359995,0.2384325277582
1184,592.2477102600001,-0.49476313708020003,-0.35395402047666,0.2081578641
1185,592.7490634000001,0.82216885076386,0.40489837876798,-0.3249483221394
1186,593.25041604,-0.422120817506,-0.05446363437779999,0.251248613738
1187,593.751769,-0.106167074814,-0.2338991075012,0.1651359747034
1188,594.25312224,0.602210465674,0.4115359645874,-0.3946723330692
1189,594.7494619040816,-0.8593244967877551,-0.3847773200044898,0.3340927491966734
1190,595.245800818,0.5784639984319999,0.0309849236732,0.0330900510228
1191,595.7471538,0.08469332010599999,0.45903440743319995,0.02317630657838
1192,596.2485076,-0.7007594817594,-0.42523935935779994,0.08125963857739998
1193,596.749861,0.7469065693320001,0.12038141445542,-0.12207539530495602
1194,597.25121432,-0.131658340666,0.16401737526680002,0.15546573997260002
1195,597.7525676399999,-0.6480565451424001,-0.30346379466400003,0.1876533934477
1196,598.25392108,0.88357818099844,0.4797297516294,-0.32384350123239997
1197,598.7502609081632,-0.37618203915204085,-0.012047394855061224,0.19707582047867347
1198,599.246600428,-0.3546678090194,-0.019786365171800005,0.1260445008398
1199,599.74795382,0.584251852205,0.51617232113044,-0.59953373111436
1200,600.249307746,-0.7755711571325,-0.08396319341799999,0.2307977736666
1201,600.7506614,0.05504464717000001,0.11502252494561999,0.001476478275800014
1202,601.252014548,0.321950961324,0.6724182099596,-0.24375387830919998
1203,601.75336798,-0.8006419203898,-0.1098455165504,-0.03701390889833999
1204,602.2497076204081,0.3777634717142857,0.2922350025506041,-0.11660017528040817
1205,602.74604758,-0.1308568550286,0.49950572801500004,0.010016055733640004
1206,603.247401568,-0.7538225026604001,-0.1455525569576,-0.24705036689100002
1207,603.74875526,0.6645984696062,0.35092964845059993,-0.28547101380080003
1208,604.250108624,-0.23070843634,0.1828436298974,0.057934924364
1209,604.7514622399999,-0.616424915182,-0.20645406259079999,0.0606084144108
1210,605.25281537,0.6308881562448,0.5774811194382,-0.401348558121
1211,605.7541688599999,-0.56749462209028,-0.11982129541199998,0.113161070473
1212,606.2505093857143,0.17798827985510204,-0.07229813006555104,0.04959797928263266
1213,606.74684956,0.137304478559,0.5770217954042,-0.24324464872802
1214,607.24820324,-0.8191381066826,0.03506851374,-0.131037932331
1215,607.74955676,0.39640488642371996,0.33741506121452,-0.185437308797794
1216,608.25091006,-0.07670607091399999,0.650975332586022,0.05763497219216001
1217,608.75226356,-0.9509342447861999,-0.28632946324520003,-0.1451037916342
1218,609.2536175099999,0.6093394845516,0.50038357077156,-0.37038433243
1219,609.7499577244898,-0.31826195072163266,0.18864159762510205,0.0355964329544898
1220,610.2462977800001,-0.2646957268684,-0.1389887469912,0.06745232839380001
1221,610.74765142,0.6373305352344,0.5057118160927999,-0.42466512899945996
1222,611.249004548,-0.701428769484,-0.361421402987648,0.27991984466578
1223,611.75035796,0.35212328167400003,-0.015178867236400004,-0.013498201181400002
1224,612.251711848,0.1557760244442,0.538288031060738,0.009510882592400006
1225,612.75306544,-0.7171952746700001,-0.5126866366722408,0.20409724011080002
1226,613.249405844898,0.8279595071285714,0.37872713511816325,-0.35576372697857145
1227,613.7457459,-0.15382431506999997,-0.028843839878200016,0.21486075621671202
1228,614.247099272,-0.4473964743452,-0.5074724498028,0.24999220663480004
1229,614.7484526000001,0.7183028220245999,0.47449632808700004,-0.37633967236564
1230,615.249806004,-0.44403558715700003,-0.1940806292578,0.36902637007019995
1231,615.75115938,-0.0035191486819999883,-0.0547691872284,0.22984692194666
1232,616.25251318,0.46155460602,0.6177972853758,-0.39054152098239997
1233,616.75386672,-0.861042185555,-0.09289924554859999,0.023869171729799986
1234,617.2502063285714,0.42884109284816324,0.21576286575526532,-0.02757017705891837
1235,617.7465462,-0.0360348494418,0.584326080066,-0.0888306131561
1236,618.2478989140001,-1.0961564176660001,-0.0748361344418,-0.10173170145726002
1237,618.74925208,0.73542598726,0.46559547657420003,-0.36381882096920004
1238,619.250605736,-0.39883670627999995,0.343574571968,-0.10570909856647999
1239,619.75195918,-0.650489295734,0.060797548055000004,-0.1316889002238
1240,620.253312856,0.7296445888187201,0.6323256703374,-0.533509165468
1241,620.7496528285715,-0.677340301264653,-0.268608519384898,0.2861938932614286
1242,621.2459926399999,0.2752671840966,-0.06776516074226001,-0.084646834865
1243,621.74734612,0.22625466325937998,0.57486077583656,-0.004560186114
1244,622.2486998960001,-0.8140817993604,-0.64463609060092,0.045681487048400006
1245,622.75005354,0.77035343215,0.46114679679894005,-0.2088026879126
1246,623.251406356,-0.11110337144799998,0.044708153919020006,0.19222347747008
1247,623.7527592600001,-0.731543646521,-0.014772859206400004,0.075808923929
1248,624.254112586,0.6859207733825999,0.3369389019926,-0.306714732993
1249,624.7504520285714,-0.6846424686006122,-0.0005209422973469434,0.09315017158673468
1250,625.2467908499999,-0.05652850240766002,0.321382995344,-0.005834640873200007
1251,625.74814356,0.11097431543599999,1.0003684904719998,-0.447677330003
1252,626.24949652,-1.0620993849944,-0.0743969615448,-0.1687351173966
1253,626.75084944,0.6139149904619999,0.44207766651759994,-0.33921311493983397
1254,627.2522026080001,-0.1551291579074,0.1733932553946,-0.008859111244390002
1255,627.7535557,-0.626482573774,-0.2406493086798,0.0763333398672
1256,628.2498953102041,0.8313325347622449,0.4821604507122449,-0.3658774558504082
1257,628.746234922,-0.390236369664,0.013895150636039988,0.20453872708836
1258,629.247588142,0.07762258560640001,-0.309109338522,0.09836232737120001
1259,629.74894136,0.36614563156048,0.53680022682036,0.02411905126795999
1260,630.250294804,-0.8897116495646,-0.4424770146622,0.1094232640948
1261,630.75164814,0.8315858728761999,0.26517956226194,-0.16743051380819998
1262,631.253001208,-0.1931963241826,0.022391876798,0.045986866204800005
1263,631.7493407877552,-0.5705265402693878,-0.24989641824510203,0.3372043246738775
1264,632.245680452,0.8843819665158,0.46618059202772,-0.3211166263892
1265,632.74703366,-0.5091835099466,-0.2713605702334,0.2785487601366
1266,633.248386756,0.170651061248,-0.1452779176872,0.1577541159994
1267,633.74974014,0.2475231982796,0.599686200411,-0.0674286926723
1268,634.251093476,-0.9342134475244,-0.25816894655399997,-0.004891329463200001
1269,634.75244704,0.6189542282084001,0.3827106441366,-0.2471572569392
1270,635.253800688,-0.2375765023754,0.2694573852686,-0.001124036665200005
1271,635.7501409387755,-0.7471692450357144,0.03126831110816326,0.04656879040693878
1272,636.24648199,0.7270637708186,0.746603214644,-0.5052952571614
1273,636.7478363,-0.6528625452824001,-0.06876708591542,-0.0329605332108
1274,637.24918995,0.014263406284619995,-0.03630377043800001,-0.006850290425400005
1275,637.7505439199999,0.244152686714,0.5989700299608,-0.08878778132720001
1276,638.251897984,-0.7845192283456,-0.1421179708006,-0.1194577916006
1277,638.75325228,0.6212662732314,0.1336325001844,-0.10355689723219999
1278,639.2495936244898,-0.14502674802918364,0.3111664688612245,0.04481161769322041
1279,639.74593486,-0.6900749269240001,-0.2573653745248,0.1293220883568
1280,640.24728953,0.79258659885792,0.704835457674764,-0.33370806535568
1281,640.74864428,-0.7924822269259999,-0.18765157318745998,0.13549038142772202
1282,641.249998844,0.1426878962638,0.1339185808934,-0.18833671619420003
1283,641.7513536040001,0.016482682184600004,0.6714096849414,-0.07416720497087001
1284,642.252708614,-0.7761875282723599,-0.03356933118139999,-0.3091513236294
1285,642.7540638,0.5139009110362001,0.41109933496761997,-0.11709093169960001
1286,643.2504058857143,-0.2737777512122449,0.30910522024102044,-0.1664355393910204
1287,643.7467478220001,-0.900009572508,0.0957722610776,3.596888719999303e-05
1288,644.248103246,0.70017444518216,0.5038104518395999,-0.44676693058794004
1289,644.74945874,-0.53806350102248,0.10409647908400001,0.1610557737276
1290,645.2508136399999,-0.22869751276599998,-0.10626666367199998,-0.029500329983600013
1291,645.752169,0.53929340641898,0.67076840235158,-0.32484910800179995
1292,646.25352464,-0.824775987939,-0.2139504063184,0.09058446975340001
1293,646.7498667755102,0.5505964391,0.29148789474763265,-0.10870032183608162
1294,647.246209292,-0.09527337494799999,0.4309820345738,0.0765931238896
1295,647.74756532,-0.9178582613259999,-0.285831723443,-0.195723240427588
1296,648.248921308,0.7184670895954,0.6345779690316,-0.33041021394479997
1297,648.75027732,-0.5011198112619,0.0718598440344,0.0358274218422
1298,649.251633176,-0.24326169735039996,-0.105021165085,-0.0735415820316
1299,649.7529892,0.48507151042479996,0.6949130878122,-0.36949768922612003
1300,650.2493320959184,-0.8596556948493878,-0.36619825205612244,0.19472737717979594
1301,650.7456749,0.555640284231,0.2715222787366,-0.08709781301096
1302,651.2470308520001,-0.04852271099299999,0.386818734266,0.06303191495066
1303,651.74838714,-0.9228102860008001,-0.1925747395506,-0.06758965671360001
1304,652.24974364,0.73246190101418,0.6106002035072801,-0.2580763549709
1305,652.7511003,-0.44080622139139997,-0.05080553113867998,0.007615045063680001
1306,653.252456952,-0.5431182199396,0.17719079240559998,-0.039375214229540004
1307,653.75381372,0.6915980352587999,0.47653312181220003,-0.424795469014
1308,654.2501571122449,-0.6798766425840816,0.08437847913208164,0.10616192457428571
1309,654.74650064,-0.0458862953204,0.08571670744380003,-0.027265417476160018
1310,655.2478580759999,0.2602045324434,0.6779728072179999,-0.32322998603998004
1311,655.74921536,-0.865853375329944,-0.21917262685766,0.06535473966156
1312,656.250572452,0.558167139858,0.29041906546220003,-0.15997442787964
1313,656.75192966,-0.19842543732379997,0.3942804452064,-0.030450681530599998
1314,657.2532868999999,-0.6715465123958001,-0.321777486963,0.030339558345
1315,657.7496306040816,0.8378553235734694,0.7242155313997959,-0.4165044455904081
1316,658.245974308,-0.78535435037,-0.18045393920119998,0.219440204791924
1317,658.7473316400001,0.31220458954200003,0.05426694281760001,-0.05655109298740401
1318,659.248689094,-0.007630869273999981,0.733778985086484,-0.11764592803860001
1319,659.75004662,-0.828943639418,-0.23292838733700003,-0.09828553349959998
1320,660.25140453,0.6987872372784,0.34710642169940004,-0.18680306523168
1321,660.75276244,-0.293886020846,0.26952969572128,0.049040543638460006
1322,661.2541197840001,-0.7478476025402421,0.016077210267,-0.0762701901426
1323,661.7504637959183,0.6779201483073469,0.5928820346427489,-0.5306529692152653
1324,662.246807996,-0.7141282657092001,0.0447799448528,0.1219631096372
1325,662.74816592,0.110249499956,0.2292544987758,-0.11730254826506899
1326,663.249524356,-0.03471802334560002,0.78637601648948,-0.223043764604
1327,663.7508826400001,-1.100513994864,0.16823543040392,-0.3464323282256
1328,664.2522406740001,0.4652131853146,1.00349986920154,-0.58878687208784
1329,664.7535988000001,-0.9200769838320001,0.1574125272446,-0.2167493677044
1330,665.2499436122449,0.0886579808189796,0.4681619796804081,-0.40020332045020407
1331,665.7462883200001,0.1336197656826,0.4849332710874,-0.034266889206859996
1332,666.2476461519999,-0.795503031314,-0.51950964658368,-0.0312914253771
1333,666.7490042400001,0.8708824603648,0.39244259249979996,-0.23634735180802
1334,667.250363044,-0.32849168183419997,-0.051788105384000006,0.2321730440706
1335,667.7517217599999,0.015778524665800014,-0.26661081771179995,0.1767631884626
1336,668.25308022,0.3620206835452,0.5679081025130001,-0.20689907391092
1337,668.7494251122449,-0.9047018747083674,-0.3952964005140816,0.13626942205387754
1338,669.245772038,0.7602858924900001,0.3687432055862,-0.2631086321164
1339,669.747131684,-0.1303366776104,-0.03862495366420002,0.23215869436736
1340,670.248487706,-0.23892379461000002,-0.31799161026218004,0.17162692520939998
1341,670.74984484,0.6165137058519999,0.45866319410846,-0.31256791437299997
1342,671.2512039759999,-0.765477659303,-0.45762337358899996,0.2329855898248
1343,671.752562908,0.6231396562870001,0.2218171568968,-0.0957901113056
1344,672.253921342,-0.028618478500400002,0.0656381671464,0.26140292339516
1345,672.750266277551,-0.4181677145877551,-0.4394306318832653,0.12321021190389184
1346,673.246611264,0.79347158317036,0.6327409897236,-0.36451723599799996
1347,673.7479698660001,-0.8554496207619999,-0.5818912702504,0.453700759707
1348,674.2493283700001,0.7536166569799999,0.185498203985,-0.268144702287046
1349,674.75068696,-0.11198926915200001,0.07818645587059998,0.22175494050720002
1350,675.25204602,-0.435816614606,-0.4760967679136,0.2169245297892
1351,675.75340492,0.8313710776962,0.645559954498,-0.33951971890140004
1352,676.2497504326531,-0.678223265067347,-0.5910783154265307,0.370249332818449
1353,676.7460958,0.612613766534,0.139665745007,-0.06807782070743999
1354,677.24745425,-0.03580369816679998,0.2207272059966,0.26214018569139996
1355,677.7488129999999,-0.8509071243882,-0.29665316491362,0.0172330660856
1356,678.2501719899999,0.7597473109873999,0.8334797221728,-0.379519350563
1357,678.751530804,-1.0219663832776,0.10848279673028,-0.0702645196058
1358,679.252889192,0.1633739119182,0.49136765776800007,-0.2679808157184
1359,679.75424752,-0.1029762843736,0.8844845872048,-0.22034697178639998
1360,680.2505920816326,-0.8997070948797959,-0.2627043959901896,-0.26102314765571427
1361,680.7469367399999,0.8068583647903399,0.6117521092616,-0.480342878062
1362,681.24829604,-0.603446601844,-0.117163272063,0.25463722993640003
1363,681.74965516,0.0424102581362,0.16743000298086,-0.093991336552
1364,682.251013924,0.0512894020042,0.7660431068954,-0.036226595010532006
1365,682.7523729039999,-1.0801011921488,-0.18239443684152,-0.3052411940804
1366,683.2537320800001,0.6651700805378,1.02093618607268,-0.49633083616296
1367,683.7500778632652,-0.68269199882,-0.12994174514755102,0.07840585670357142
1368,684.24642326,0.0755128290024,-0.034243921086199995,-0.103443832699438
1369,684.74778264,0.30070048676952,0.6880137718998001,-0.1347396104288
1370,685.2491425200001,-0.8157002651156,-0.401864230949,0.0039053228237999893
1371,685.7505026,0.7391507655620001,0.15179858827440001,-0.07136191456899998
1372,686.2518628199999,-0.06763033405600001,0.057659070911,0.1988564883192
1373,686.7532231,-0.5186812043162,-0.3331154110856,0.1284896588488
1374,687.2495699163265,0.7046534331889797,0.48262642011571427,-0.2893385676881633
1375,687.74591684,-0.5318953160580999,-0.058695459740799996,0.08705065729340002
1376,688.24727758,0.4501071416767,0.19869496687954002,0.172699484834
1377,688.7486383600001,-0.2705715547036,0.12648448068663998,-0.1841269015002
1378,689.2499989219999,-0.19902109210066002,0.57520258146368,-0.44705746078060005
1379,689.751359644,-0.2793125474566,0.5662158677623,-0.548859477952
1380,690.252720838,-0.15285421365819998,0.10273962391397999,-0.44393187383284
1381,690.754082,-0.30374929808170004,0.32948967016754,-0.34908547313542004
1382,691.2504292285714,-0.13315586392740816,0.2715702001795918,-0.2581158877514286
1383,691.74677648,0.10758107655166001,-0.05709088377218,-0.131954287198958
1384,692.248137052,-0.4210870240796,0.0519007828842,-0.06316062139897599
1385,692.7494977599999,0.31541524562712,0.1688761772065,-0.01278866995794
1386,693.25085846,0.1158937178592,-0.0618535860652,-0.0717262292322
1387,693.7522192199999,-0.3033911915938,0.05153016147640001,0.10474712154670002
1388,694.25358064,0.171427429545,-0.07875846918874,-0.10255801610598
1389,694.7499282530612,0.10558691720020408,0.0556982644947551,-0.146200872053
1390,695.2462754420001,-0.13723455027,0.02050663693114,0.1506439778039
1391,695.74763616,0.036476517882,-0.33635596849914,0.062237286993200004
1392,696.2489966500001,0.005965139486200002,0.24828654162476,-0.031164538653200003
1393,696.75035714,-0.006021097144399996,0.0800393907228,-0.029349324674200004
1394,697.2517179920001,0.0891389558432,-0.21702861043488,-0.08444375175593999
1395,697.7530787600001,-0.3366893971004,0.11900670251964,-0.014582127775109999
1396,698.2494258530612,0.12828151306787755,0.02633792532326531,0.08215196727595918
1397,698.74577286,0.29674105985004,-0.08101860943771999,0.0068673077228799985
1398,699.247132908,-0.3931671199956,-0.0337558007282,0.1454155520254
1399,699.74849296,0.43507417976859997,0.1018249173448,-0.18168994364868
1400,700.249853256,-0.07559625286658,0.0348591683119,-0.11279847990188
1401,700.7512134,-0.2456892442678,0.0186322338725,0.1088007454
1402,701.2525734,0.021673443012799994,-0.2305531604064,-0.175944003165
1403,701.7539333999999,0.2637186545858,0.0253399040936,-0.0984184693526
1404,702.2502796285714,-0.1566326341346939,0.03126701887428572,0.3377846072804081
1405,702.7466258000001,0.03709953703139999,-0.3236174122933,0.15347990442012
1406,703.247985636,0.3999154759494,0.004975786997199998,0.06456136312656
1407,703.7493454400001,0.0621522993156,-0.191881295295,0.23432987212040002
1408,704.25070514,0.44597893400528,-0.551958693003414,0.26639775228650003
1409,704.75206476,0.2639033515034,-0.16710874532880002,0.4345613042276
1410,705.253424032,0.4957327292638,-0.16819589038860003,0.42278478328408
1411,705.7497696959184,-0.6829953595720816,-0.809855245172449,0.13743097096326531
1412,706.24611578,0.700648787267,0.49102652635219995,0.05590376528720001
1413,706.74747536,-0.28375276819699996,-0.36102892703502,0.20337736622058
1414,707.24883462,-0.11476087869400001,-0.10893729951692001,0.12362232909926
1415,707.7501938,0.572612386214,0.3951886612042,-0.05789535275885101
1416,708.251552992,-0.56388595541792,-0.7020459917092,0.13449467655199998
1417,708.75291208,0.6583854464662001,0.35919391762034003,-0.1048919983488
1418,709.2542709280001,0.0687972398186,-0.0856847818734,0.2481530145091
1419,709.7506161551021,-0.19106839320020408,-0.3767423746597959,0.21491844099265303
1420,710.246961218,0.7040343590313999,0.1716480548946,-0.2473835546462
1421,710.74831986,-0.8737358811228,-0.8418254932808,0.44822241244739996
1422,711.249678344,0.856394427286,0.3260854669146,-0.21344826199352
1423,711.751036826,0.31637208104360004,-0.2741985122022,0.21674545183740002
1424,712.25239575,-0.38859101953200004,-0.52431082075,0.301805307401
1425,712.7537546,1.08509127645316,0.158984149759,-0.19282918693940002
1426,713.2500992612245,-0.53427271723,-0.5910297693142857,0.40513097115367347
1427,713.7464439600001,0.52477571341,0.022238849185200013,0.0905906796613
1428,714.247802202,0.275028436464,0.09326916642739999,0.28485925973278
1429,714.749160404,0.0663675335804,0.12187300207242002,-0.164329898700346
1430,715.250519318,-0.1227990698853,-0.1593874440252,-0.07871490373379998
1431,715.7518780400001,0.10934819919974,-0.1201841542824,0.22781123318319998
1432,716.253235882,0.1451711028062,-0.24197321670152,0.3182680810292
1433,716.7495801408163,0.18462301183061222,-0.2097815710727347,0.1330772516529796
1434,717.2459248419999,0.08976472881880002,0.0005275554795999859,-0.078207886686
1435,717.74728302,0.0841214864218,-0.16314338818139998,0.0009565697514000071
1436,718.248640838,0.0566657386411,-0.3226407934172,0.34777192918079997
1437,718.74999856,0.1720736274128,-0.2601191024572,0.2930747229372
1438,719.251356758,0.2579648834518,-0.18135796269494,0.16282479519366
1439,719.7527147999999,0.185498764497,-0.17486001846080002,-0.15193497363236003
1440,720.2540723120001,0.131377575983,-0.05257914541423997,0.08856900758780001
1441,720.7504161714286,0.09497721241489795,-0.4533628283091837,0.32027597297734695
1442,721.24675972,0.35068405006144,-0.179547321403,0.538734262314
1443,721.74811684,0.277679651555648,-0.2475271844392,0.314438044716
1444,722.2494742480001,0.016429184709620005,0.0652951427716,-0.1013255089176
1445,722.7508315,0.15227701967249999,-0.23771503591399998,-0.02917848738340001
1446,723.252188368,0.021972670631599994,-0.0805410614504,0.21251243306166
1447,723.75354516,0.007472751827599991,-0.17672931934999997,0.4016662219236
1448,724.2498882163264,0.16127900205510204,-0.325535061455102,0.13792908555306124
1449,724.7462311,0.2119006091404,-0.009682714026200015,-0.0030467983866000027
1450,725.247587458,0.0654942274157,-0.1588768595574,-0.1800093194582
1451,725.7489436200001,-0.03463030493219999,-0.2058263742754,0.37621526639734
1452,726.250299924,0.11503654986560001,-0.1575936501756,0.41784380669660004
1453,726.7516561,0.3159876255844,-0.19534010102500002,0.0950987496136
1454,727.253012184,0.09814771712020001,0.04602622260953998,-0.069478160668
1455,727.7493545632653,-0.03154513959879592,-0.13741945793755103,-0.06729552418579592
1456,728.2456964,-0.047473370950399996,-0.017479808602707373,0.04380701076480001
1457,728.7470517400001,-0.113665384923,-0.050235325091994014,0.23273039474840002
1458,729.24840744,0.14783982995508,0.03994094643868,-0.020137659820599996
1459,729.74976312,-0.1155787994208,0.3212768442782,-0.27750612162419996
1460,730.251118572,-0.312587446391,0.08059508421510801,-0.4701170280286
1461,730.7524739,-0.03891627195224,0.1202354503698,-0.0027530089825999983
1462,731.2538283440001,-0.08479581314526,0.008566808671725998,-0.0032167681669999972
1463,731.7501691387756,0.016668795280612245,0.05539668192102042,-0.035992490123877556
1464,732.2465103,-0.05783408748704,0.2645410461986,-0.35184694777220005
1465,732.7478648399999,-0.214876861323,0.104758158190084,-0.338165068382
1466,733.24921888,-0.0681195732348,0.1169021962622,-0.042264342303702004
1467,733.7505728199999,-0.16122396364,0.019586704670640002,-0.014609584346000008
1468,734.251926942,0.039022738759799995,0.252353728924,-0.14782720021334
1469,734.753280904,-0.048254182644400005,0.31471289849199996,-0.5475461937371999
1470,735.2496209979591,-0.25821634226632656,0.028260732331224475,-0.17966591540489796
1471,735.74596104,-0.024473428803419996,0.18254684133520002,-0.0606948450464
1472,736.24731453,-0.1448948520298,-0.0018403058492000035,0.025296112700420002
1473,736.74866788,0.027486590762560006,0.1518472751992,-0.17043700804899997
1474,737.2500207200001,-0.0802037267408,0.31084258002200005,-0.36341172916856
1475,737.7513734,-0.16871815923580002,0.11733713434014,-0.417463138795092
1476,738.2527259799999,-0.0696194915736,0.05253006127310002,-0.04663346365399599
1477,738.7540784400001,-0.16486260732614,0.019525332578939986,0.11254170892480002
1478,739.2504171693878,0.11116774314877552,-0.0053652638502040785,-0.04111795238122449
1479,739.7467559060001,-0.03858006049958,0.321907940241,-0.24473972288232
1480,740.2481084619999,-0.10902842025286401,-0.08323331834534001,-0.3402454726706
1481,740.749460926,0.0320139426732,0.0037110698260000006,-0.04817860392464001
1482,741.250812578,-0.5018799805504,-0.25370558322000003,0.1748201682414
1483,741.75216404,-0.06841154361728,-0.08174494511620001,0.049163078402000016
1484,742.2535153800001,0.43475855544568,0.5021708189342,-0.1604919432439
1485,742.749853122449,-0.8192570695987755,-0.5817854125671428,0.0828073824487755
1486,743.246190834,0.692259801932,0.6620860459416,-0.1341929735221
1487,743.74754174,-0.42420368584240004,-0.012664644720799987,0.08652681898014
1488,744.2488928240001,-0.33790599585000003,0.0946865892156,-0.06969693580700001
1489,744.7502439000001,0.3244046325492,0.9157831909202,-0.277337447751008
1490,745.2515947640001,-1.084923616038,-0.3564739255184,-0.12714560385438
1491,745.75294522,0.616234288662,0.9566971467404,-0.5260049558404399
1492,746.254296084,-0.6211837397491999,0.162071578656,-0.006902887000339995
1493,746.7506324999999,0.1803796692869388,0.4101267098321837,-0.08651471582061224
1494,747.2469689999999,-0.1327575588298,0.726849170900862,-0.4893544401516
1495,747.748319,-0.13495676359859998,0.1336038906328,-0.6753493751206
1496,748.2496689520001,-0.2428949450546,0.1476489775349,-0.34877835501380006
1497,748.7510182999999,-0.205251473573228,0.11255943611486999,0.058956842091559984
1498,749.25236748,0.03871914313866599,-0.06755215112023999,-0.1056431923848
1499,749.75371636,-0.11529174633514001,0.16820413594434,-0.1535383208552
1500,750.2500521408163,0.08108026615567347,0.16161441088387757,-0.23258169248153063
1501,750.7463878399999,-0.0979187077642,0.004324764600879996,-0.4106611100902
1502,751.247736614,-0.11087991035874,0.025663211291199986,0.186977498834
1503,751.74908536,0.094431872356,-0.08697553229640001,0.1537618563602
1504,752.25043417,-0.002761318043279997,-0.25367973367479996,0.0589494500274
1505,752.75178294,0.07326255284504,0.2014273153972,-0.07975627856371999
1506,753.253131222,-0.008625375472800005,0.03189232868476,-0.46182552189029996
1507,753.7494660081633,-0.2359520601665306,-0.06837741824734694,0.11954548996938776
1508,754.2458003840001,0.15947637549552002,-0.15821303798308,0.25012204409399996
1509,754.74714832,0.06354575107259999,-0.25675635804908004,0.2049494936986
1510,755.248496572,0.146147378345,-0.03417747707576,0.029750824624999988
1511,755.749844722,0.0773105566278,0.003090674316660006,-0.4222647799173
1512,756.251192912,-0.154510864794,-0.0284080633756,0.2489115886856
1513,756.752541022,0.12411671650605999,-0.06066840938170401,0.2051286402854
1514,757.25388842,0.0954061574024,-0.36514135837,0.1779079117126
1515,757.7502222040815,0.4329326006785714,-0.3096593432040816,0.2456822344365306
1516,758.246556488,0.55446762653552,-0.20945135413048,0.274019566926
1517,758.7479041800001,0.3402134858078,-0.6698921583852,0.46099349676800006
1518,759.2492517679999,0.452495174182,-0.223957478441,0.523328224123
1519,759.7505992600001,0.2159293815345,-0.5658619950576,0.701079579284
1520,760.25194668,0.345332293289,-0.1270797037508,0.3807283150848
1521,760.75329394,0.1031863527316,-0.2708563992716,0.16846378189514
1522,761.2496277755102,0.20412530016081631,-0.07525778622387756,0.1066378198010204
1523,761.74596164,-0.0971388529504,0.1743557845126,-0.17664592830780002
1524,762.24730878,-0.06948834235918001,-0.05895266629019999,-0.0854547853874
1525,762.74865592,-0.0897651211716,-0.05202717405979999,0.08099382093215998
1526,763.250002952,-0.06405237168962001,-0.07592110809044,0.21278838786540002
1527,763.75134994,0.22195957047332002,-0.011819819464259997,-0.01753293658079999
1528,764.25269724,0.07385844329300001,0.12218562508959999,-0.09304732474170001
1529,764.7540446200001,0.06823193071860001,-0.1580509338392,-0.09675675201800002
1530,765.250378077551,-0.1324131672667347,-0.07378193272712653,-0.16312764756959183
1531,765.7467114799999,-0.1985581928236,-0.02458631301358001,0.13071616437300002
1532,766.2480583319999,0.09913121418627999,0.00651222917519999,-0.014590533681599998
1533,766.74940508,-0.034006492702200006,-0.10894289167712,0.05503642695300001
1534,767.2507517700001,0.20767056794080002,-0.03456878768908,0.03870637434839999
1535,767.752098442,0.0035400053370000057,0.21472884937739997,-0.2620145503578
1536,768.2534453119999,-0.1510654078454,-0.013901670249060003,-0.23697504064500002
1537,768.7497787061225,-0.1926286097602041,0.2526373159522449,-0.16615618236942858
1538,769.246111914,-0.2701368642993,0.011292809281399996,-0.047195281022660004
1539,769.7474584820001,-0.003747693862599999,0.18758115703619999,-0.21375738048499998
1540,770.248805502,-0.08252677029318,0.18700036589775998,-0.125677751167456
1541,770.7501526,-0.15898756674974002,0.3053594283762,-0.12619237899520003
1542,771.25149876,-0.15098769094222,0.6473179420078,-0.5726040573052
1543,771.7528448600001,-0.2522216105718,0.14102349287399998,-0.5121210039727999
1544,772.2541917540001,-0.2811852009698,0.41270343026140005,-0.39586088613554
1545,772.7505253163265,-0.2688343467534694,0.16604533085393874,-0.10148798578571429
1546,773.2468581720001,0.06056163912599999,0.2492737755946,-0.2310615131084
1547,773.7482043199999,-0.04528930508361999,-0.01017817045298,-0.22466024763658002
1548,774.249550838,0.0423124163192,0.1785235429376,-0.2886013212538
1549,774.7508972200001,-0.1345618006674,0.032683252871400004,-0.2351785385118
1550,775.2522438640001,-0.260777743322,0.1389009055128,-0.02254253795720001
1551,775.75359038,0.164951125764,0.005223519432799984,-0.1570791749661
1552,776.2499233428572,-0.02491852707377551,-0.049219367776346945,0.15510314651142856
1553,776.74625612,0.11702463883238,-0.2465375024538,0.007023164032399999
1554,777.2476027600001,-0.1034400176557,0.2618501147106,-0.248333609336
1555,777.7489495,-0.26576082519352,0.27057340093800003,-0.03480213585460001
1556,778.250295758,-0.08752493202799999,0.1239481677326,-0.2633924361988
1557,778.75164206,-0.18774120183746,0.4025699411224,-0.15134401394840002
1558,779.2529882739999,-0.10336644172662,0.2386308673748,-0.6923772122932
1559,779.7543343220001,-0.256744521601,0.07786715148692003,-0.1534222726734
1560,780.2506671653061,-0.08118175203632655,0.30916733491079595,-0.007938247135610204
1561,780.74700002,-0.020216778170680003,0.258823018948,-0.3846038527402
1562,781.24834586,-0.003204286800320002,0.11112952186840001,-0.2582458270077204
1563,781.7496916599999,-0.131172274747188,-0.0037636352518999948,0.10290051351974
1564,782.25103794,-0.17281671646271998,-0.03133554429459999,-0.08581886169901999
1565,782.75238426,-0.29221743357962,0.31932060301099996,-0.06016566544023999
1566,783.2537304000001,-0.137163648218628,0.39442761621960004,-0.19550103290406998
1567,783.7500631448979,-0.07274646974355102,0.6050166759783673,-0.36535184119322445
1568,784.2463955379999,-0.26446060384206,0.167596553376684,-0.5747464328489
1569,784.747741346,-0.1677668494482,0.175291182891,-0.0431063037446
1570,785.2490870280001,-0.37615839286060004,0.3022029726656,-0.22594663306659998
1571,785.75043254,-0.11231559560639999,0.4272186574798,-0.2095877003664
1572,786.25177838,-0.1106166343752,0.69959003206402,-0.5484075384658
1573,786.75312418,-0.309833646407,0.41278704026924,-0.43388686998332
1574,787.2494565224489,-0.22196308515612248,0.05750990467714287,-0.17524659198265305
1575,787.74578894,-0.2624982620916,0.3503610483442,-0.2070108766422
1576,788.247134696,-0.2025413601044,0.552031995415,-0.284562671546
1577,788.74848042,-0.09214248419700001,0.5548259494452,-0.560642538035
1578,789.2498257940001,-0.08933928071874,0.1720951078428,-0.2290966963344
1579,789.7511709,-0.34364323512920003,0.10072521198080002,-0.32369540336075997
1580,790.25251657,-0.2647387251806,0.38960810765914,-0.1084009832762
1581,790.753862326,-0.19642628118619998,0.37765426313826,-0.3468863492594
1582,791.250194312245,0.10638147747795917,0.38666656631816326,-0.3519702540579184
1583,791.746526346,-0.312278867518,0.335260468846476,-0.26881217489764003
1584,792.247871686,-0.39249137496078,0.240146078076,-0.3313053833546
1585,792.74921696,-0.15314426524656,0.5669790852712,-0.1405234344014
1586,793.2505625140001,-0.14006841467859998,0.4490535585752,-0.4721298993096
1587,793.75190802,-0.0692704719878,0.52184133475086,-0.43702055560860004
1588,794.25325363,-0.018428630818400005,0.1738633259388,-0.33958545016926
1589,794.7495859204082,-0.3211239168073469,-0.14185753917775512,-0.20901714723265305
