"Time (s)","Acceleration x (m/s^2)","Acceleration y (m/s^2)","Acceleration z (m/s^2)"
3.533504000E-3,-3.163311481E0,4.603790760E0,8.827122688E0
1.227996200E-2,-3.139383316E0,4.357329845E0,9.451649666E0
2.227996200E-2,0.000000000E0,0.000000000E0,0.000000000E0
3.227996200E-2,0.000000000E0,0.000000000E0,0.000000000E0
4.227996200E-2,0.000000000E0,0.000000000E0,0.000000000E0
5.227996200E-2,-1.935793519E0,3.730410576E0,1.126301575E1
6.227996200E-2,-1.402194023E0,3.431307554E0,1.071745300E1
7.227996200E-2,-7.968099117E-1,3.115455151E0,1.004985523E1
8.227996200E-2,-7.968099117E-1,3.115455151E0,1.004985523E1
9.227996200E-2,-7.968099117E-1,3.115455151E0,1.004985523E1
1.022799620E-1,-7.968099117E-1,3.115455151E0,1.004985523E1
1.122799620E-1,-7.968099117E-1,3.115455151E0,1.004985523E1
1.222799620E-1,-1.775474429E0,4.194618225E0,7.472784996E0
1.322799620E-1,-1.517049551E0,4.333401680E0,7.116254330E0
1.422799620E-1,-1.289731383E0,4.194618225E0,6.654439926E0
1.522799620E-1,-1.289731383E0,4.194618225E0,6.654439926E0
1.622799620E-1,-1.289731383E0,4.194618225E0,6.654439926E0
1.722799620E-1,-1.289731383E0,4.194618225E0,6.654439926E0
1.822799620E-1,-1.328016520E0,3.677768469E0,1.072702408E1
1.922799620E-1,-1.071984529E0,3.565305710E0,1.150947666E1
2.022799620E-1,-1.320838094E0,3.326023579E0,1.188275719E1
2.122799620E-1,-1.203589797E0,3.414557934E0,1.129651546E1
2.222799620E-1,-1.203589797E0,3.414557934E0,1.129651546E1
2.322799620E-1,-8.853443861E-1,2.837887764E0,9.576076508E0
2.422799620E-1,-6.652047038E-1,2.603390932E0,9.083154678E0
2.522799620E-1,-3.948157430E-1,2.352144718E0,8.807980537E0
2.622799620E-1,-1.363908947E-1,2.282752752E0,8.673981667E0
2.722799620E-1,8.614161611E-2,2.392822742E0,8.903693199E0
2.822799620E-1,2.105683982E-1,2.409572363E0,9.513862610E0
2.922799620E-1,-1.411765367E-1,2.273181438E0,9.690931320E0
3.022799620E-1,-2.536391914E-1,2.292324066E0,9.367900848E0
3.122799620E-1,-5.982056856E-1,1.938186288E0,9.250652313E0
3.222799620E-1,2.584248483E-1,1.859223247E0,9.858428955E0
3.322799620E-1,7.800601721E-1,1.584048629E0,1.046381378E1
3.422799620E-1,9.332008362E-1,1.304088354E0,1.083230782E1
3.522799620E-1,1.158126116E0,1.119840980E0,1.113858986E1
3.622799620E-1,1.574477315E0,7.896314859E-1,1.079880905E1
3.722799620E-1,1.727617979E0,3.900300860E-1,1.001396275E1
3.822799620E-1,1.500299811E0,-1.890329868E-1,9.262616158E0
3.922799620E-1,1.112662554E0,3.349951655E-2,8.408378601E0
4.022799620E-1,7.752745152E-1,1.555334777E-1,8.310273170E0
4.122799620E-1,5.958128572E-1,7.657032460E-2,8.563912392E0
4.222799620E-1,4.139583111E-1,1.674975827E-2,8.992227554E0
4.322799620E-1,-5.982056633E-2,7.633104324E-1,1.008096218E1
4.422799620E-1,-5.766702294E-1,1.172483087E0,9.822537422E0
4.522799620E-1,-6.460621357E-1,1.493121386E0,9.463613510E0
4.622799620E-1,-6.460621357E-1,1.493121386E0,9.463613510E0
4.722799620E-1,-6.460621357E-1,1.493121386E0,9.463613510E0
4.822799620E-1,-1.098305583E0,1.404586911E0,7.810173035E0
4.922799620E-1,-1.471585870E0,1.406979680E0,9.856036186E0
5.022799620E-1,-1.471585870E0,1.406979680E0,9.856036186E0
5.122799620E-1,-1.471585870E0,1.406979680E0,9.856036186E0
5.222799620E-1,-1.471585870E0,1.406979680E0,9.856036186E0
5.322799620E-1,-2.340180635E0,2.038684845E0,1.082512951E1
5.422799620E-1,-1.605584025E0,2.129612207E0,1.104287624E1
5.522799620E-1,-1.311266780E0,1.873580098E0,1.048534870E1
5.622799620E-1,-1.064806104E0,1.607976794E0,9.894321442E0
5.722799620E-1,-1.064806104E0,1.607976794E0,9.894321442E0
5.822799620E-1,-6.173482537E-1,5.503492355E-1,8.508877754E0
5.922799620E-1,-6.173482537E-1,5.503492355E-1,8.508877754E0
6.022799620E-1,-9.499505758E-1,6.077769399E-1,7.412964344E0
6.122799620E-1,-1.117448211E0,9.882357717E-1,7.128218651E0
6.222799620E-1,-1.153340459E0,1.177268744E0,7.235895634E0
6.322799620E-1,-1.378265858E0,1.359123230E0,7.499105930E0
6.422799620E-1,-1.378265858E0,1.359123230E0,7.499105930E0
6.522799620E-1,-2.079362869E0,2.201396942E0,8.719446182E0
6.622799620E-1,-1.667797327E0,1.658226132E0,9.061619759E0
6.722799620E-1,-1.256231904E0,8.303094506E-1,9.793823242E0
6.822799620E-1,-1.253839016E0,4.139583111E-1,1.028435135E1
6.922799620E-1,-1.646261930E0,5.024927482E-2,1.110509014E1
7.022799620E-1,-2.091326952E0,-2.536391914E-1,1.194736385E1
7.122799620E-1,-2.981456995E0,-1.986042857E-1,1.242592812E1
7.222799620E-1,-3.151347399E0,1.435693540E-2,1.227278709E1
7.322799620E-1,-3.689732552E0,3.038884699E-1,1.227278709E1
7.422799620E-1,-3.890729666E0,3.924229145E-1,1.207418346E1
7.522799620E-1,-3.728017569E0,2.751746178E-1,1.170329571E1
7.622799620E-1,-3.510270834E0,3.828516230E-2,1.127976608E1
7.722799620E-1,-3.445664644E0,-1.363908947E-1,1.082034397E1
7.822799620E-1,-3.431307554E0,-7.657032460E-2,1.013838959E1
7.922799620E-1,-3.919443607E0,0.000000000E0,9.963713646E0
8.022799620E-1,-3.749552965E0,-4.139583111E-1,9.616754532E0
8.122799620E-1,-3.749552965E0,-4.139583111E-1,9.616754532E0
8.222799620E-1,-3.510270834E0,-8.877372146E-1,8.760123253E0
8.322799620E-1,-3.534198999E0,-9.475577474E-1,8.551948547E0
8.422799620E-1,-3.519842148E0,-8.303094506E-1,8.499305725E0
8.522799620E-1,-3.519842148E0,-8.303094506E-1,8.499305725E0
8.622799620E-1,-3.519842148E0,-8.303094506E-1,8.499305725E0
8.722799620E-1,-3.519842148E0,-8.303094506E-1,8.499305725E0
8.822799620E-1,-3.165704250E0,-2.464607358E-1,9.463613510E0
8.922799620E-1,-2.615355253E0,-3.062812984E-1,9.564111710E0
9.022799620E-1,-3.749552965E0,2.392822690E-2,8.965906143E0
9.122799620E-1,-4.405186653E0,4.091726840E-1,8.961120605E0
9.222799620E-1,-4.405186653E0,4.091726840E-1,8.961120605E0
9.322799620E-1,-4.405186653E0,4.091726840E-1,8.961120605E0
9.422799620E-1,-4.405186653E0,4.091726840E-1,8.961120605E0
9.522799620E-1,-4.405186653E0,4.091726840E-1,8.961120605E0
9.622799620E-1,-2.311466694E0,-1.914258115E-2,9.511469841E0
9.722799620E-1,-2.158325911E0,-1.746760458E-1,9.226723671E0
9.822799620E-1,-1.777867198E0,-1.818545163E-1,8.949156761E0
9.922799620E-1,-1.777867198E0,-1.818545163E-1,8.949156761E0
1.002279962E0,-8.877372146E-1,-2.536391914E-1,8.465806961E0
1.012279962E0,-8.925228715E-1,-3.278166950E-1,8.271987915E0
1.022279962E0,-8.518448472E-1,-5.551348329E-1,8.042277336E0
1.032279962E0,-7.872386575E-1,-8.063812256E-1,7.764709473E0
1.042279962E0,-7.776673436E-1,-9.643075466E-1,7.623532772E0
1.052279962E0,-7.704889178E-1,-1.055234790E0,7.523034573E0
1.062279962E0,-8.398807645E-1,-8.303094506E-1,7.195217609E0
1.072279962E0,-6.867401004E-1,-5.479564071E-1,7.451249599E0
1.082279962E0,-2.297109663E-1,-7.178468257E-2,8.030312538E0
1.092279962E0,3.637090325E-1,3.206382394E-1,8.767302513E0
1.102279962E0,1.158126116E0,5.335994363E-1,9.406186104E0
1.112279962E0,1.763510346E0,5.766702294E-1,9.832108498E0
1.122279962E0,1.864008784E0,4.163511395E-1,9.839286804E0
1.132279962E0,1.095912814E0,-1.196411345E-2,9.528220177E0
1.142279962E0,6.723831892E-1,-3.110669367E-2,9.810572624E0
1.152279962E0,3.254238665E-1,1.555334777E-1,9.968499184E0
1.162279962E0,-7.178468257E-2,4.761717021E-1,1.026042366E1
1.172279962E0,-3.517449200E-1,7.824530005E-1,1.064088249E1
1.182279962E0,-4.929214716E-1,9.164510965E-1,1.069830990E1
1.192279962E0,-4.163511395E-1,8.757730722E-1,1.049491978E1
1.202279962E0,-2.105683982E-1,7.417750359E-1,1.035613632E1
1.212279962E0,-2.727817893E-1,8.135597110E-1,1.014078236E1
1.222279962E0,-2.727817893E-1,8.135597110E-1,1.014078236E1
1.232279962E0,-2.727817893E-1,8.135597110E-1,1.014078236E1
1.242279962E0,-2.368894368E-1,1.095912814E0,9.360722542E0
1.252279962E0,-6.939185411E-2,9.619147182E-1,9.116654396E0
1.262279962E0,-2.392822644E-3,9.068797827E-1,9.186046600E0
1.272279962E0,-2.392822644E-3,9.068797827E-1,9.186046600E0
1.282279962E0,-2.392822644E-3,9.068797827E-1,9.186046600E0
1.292279962E0,-2.392822644E-3,9.068797827E-1,9.186046600E0
1.302279962E0,-5.288137794E-1,1.002592683E0,1.058106136E1
1.312279962E0,-6.939185411E-2,9.451649189E-1,1.013599682E1
1.322279962E0,4.331009090E-1,9.164510965E-1,9.623932838E0
1.332279962E0,8.327022791E-1,8.877372146E-1,9.504291534E0
1.342279962E0,8.327022791E-1,8.877372146E-1,9.504291534E0
1.352279962E0,8.327022791E-1,8.877372146E-1,9.504291534E0
1.362279962E0,8.327022791E-1,8.877372146E-1,9.504291534E0
1.372279962E0,0.000000000E0,1.651047617E-1,1.017906761E1
1.382279962E0,-3.134597540E-1,2.249253243E-1,9.724431038E0
1.392279962E0,-4.666004181E-1,3.732803464E-1,9.509077072E0
1.402279962E0,-3.900300860E-1,4.642075896E-1,9.683753014E0
1.412279962E0,-3.900300860E-1,4.642075896E-1,9.683753014E0
1.422279962E0,-7.034898400E-1,1.287338614E0,1.020060253E1
1.432279962E0,-9.284151793E-1,1.828116536E0,1.000199890E1
1.442279962E0,-1.012163997E0,2.031506538E0,9.812965393E0
1.452279962E0,-1.052842021E0,2.490928411E0,9.056833267E0
1.462279962E0,-1.347159147E0,3.122633457E0,7.599604607E0
1.472279962E0,-1.428515077E0,3.661018610E0,7.343572617E0
1.482279962E0,-1.428515077E0,3.661018610E0,7.343572617E0
1.492279962E0,-1.332802176E0,3.357130051E0,8.025527000E0
1.502279962E0,-1.447657704E0,2.945564747E0,8.085348129E0
1.512279962E0,-1.414158225E0,2.545963287E0,8.245666504E0
1.522279962E0,-1.476371527E0,2.132004976E0,8.224131584E0
1.532279962E0,-1.588834286E0,1.969292998E0,8.410771370E0
1.542279962E0,-1.751546144E0,2.031506538E0,8.700303078E0
1.552279962E0,-1.576870084E0,2.108076811E0,9.195617676E0
1.562279962E0,-1.306481123E0,2.033899307E0,9.224330902E0
1.572279962E0,-1.036092162E0,1.916650891E0,9.061619759E0
1.582279962E0,-8.733802438E-1,1.751546144E0,8.934800148E0
1.592279962E0,-8.590233326E-1,1.586441398E0,8.731410027E0
1.602279962E0,-9.858429432E-1,1.521835208E0,8.338987350E0
1.612279962E0,-1.119840980E0,1.473978758E0,8.030312538E0
1.622279962E0,-1.641476393E0,1.574477315E0,7.953742504E0
1.632279962E0,-1.909472466E0,1.761117458E0,8.061419487E0
1.642279962E0,-2.007578135E0,1.887937069E0,8.236095428E0
1.652279962E0,-2.067398787E0,2.050648928E0,8.451449394E0
1.662279962E0,-2.189432621E0,2.232503414E0,8.803194046E0
1.672279962E0,-1.993221283E0,2.132004976E0,9.260223389E0
1.682279962E0,-1.552941918E0,1.806581140E0,9.724431038E0
1.692279962E0,-1.552941918E0,1.806581140E0,9.724431038E0
1.702279962E0,-1.552941918E0,1.806581140E0,9.724431038E0
1.712279962E0,-1.552941918E0,1.806581140E0,9.724431038E0
1.722279962E0,-8.494520187E-1,1.593619823E0,1.025085258E1
1.732279962E0,-4.139583111E-1,1.438086390E0,1.029870892E1
1.742279962E0,-2.081755698E-1,1.361516118E0,1.052124119E1
1.752279962E0,-2.967100143E-1,1.426122308E0,1.094955635E1
1.762279962E0,-2.967100143E-1,1.426122308E0,1.094955635E1
1.772279962E0,-2.967100143E-1,1.426122308E0,1.094955635E1
1.782279962E0,-2.967100143E-1,1.426122308E0,1.094955635E1
1.782279962E0,-1.134197950E0,1.404586911E0,1.112183952E1
1.802279962E0,-1.055234790E0,1.182054400E0,1.077966595E1
1.812279962E0,-9.427721500E-1,1.177268744E0,1.057627583E1
1.822279962E0,-8.829515576E-1,1.246660590E0,1.028195858E1
1.832279962E0,-8.829515576E-1,1.246660590E0,1.028195858E1
1.842279962E0,-6.436693072E-1,1.481157184E0,9.774680138E0
1.852279962E0,-6.340979934E-1,1.557727575E0,9.832108498E0
1.862279962E0,-6.029912829E-1,1.603191137E0,1.000439167E1
1.872279962E0,-5.647061467E-1,1.610369682E0,1.017906761E1
1.882279962E0,-5.264210105E-1,1.584048629E0,1.032024384E1
1.892279962E0,-5.192425251E-1,1.485942841E0,1.037767220E1
1.902279962E0,-7.393822074E-1,1.268195987E0,1.034656525E1
1.912279962E0,-7.010970116E-1,1.064806104E0,1.027956581E1
1.922279962E0,-7.250252366E-1,9.403793216E-1,1.021256733E1
1.932279962E0,-8.662018180E-1,8.709874153E-1,1.012881851E1
1.942279962E0,-9.690931439E-1,7.609176040E-1,1.009531879E1
1.952279962E0,-1.158126116E0,7.082754970E-1,1.005703354E1
1.962279962E0,-1.294517040E0,7.226324677E-1,9.951749802E0
1.972279962E0,-1.347159147E0,7.082754970E-1,9.741181374E0
1.982279962E0,-1.287338614E0,6.867401004E-1,9.614361763E0
1.992279962E0,-1.184447169E0,6.867401004E-1,9.439684868E0
2.002279962E0,-1.086341500E0,6.867401004E-1,9.178867340E0
2.012279962E0,-1.055234790E0,7.393822074E-1,8.975478172E0
2.022279962E0,-1.107876897E0,8.470591903E-1,8.930013657E0
2.032279962E0,-1.203589797E0,1.004985452E0,8.906085968E0
2.042279962E0,-1.351944804E0,1.411765337E0,9.219545364E0
2.052279962E0,-1.294517040E0,1.560120344E0,9.528220177E0
2.062279962E0,-1.076770186E0,1.560120344E0,9.772287369E0
2.072279962E0,-7.298108935E-1,1.428515077E0,9.963713646E0
2.082279962E0,-4.618147612E-1,1.292124271E0,1.020538902E1
2.092279962E0,-4.067798555E-1,1.210768223E0,1.035135078E1
2.102279962E0,-4.953143001E-1,1.088734269E0,1.026042366E1
2.112279962E0,-6.747759581E-1,8.614161611E-1,9.856036186E0
2.122279962E0,-6.747759581E-1,8.614161611E-1,9.856036186E0
2.132279962E0,-6.747759581E-1,8.614161611E-1,9.856036186E0
2.142279962E0,-6.747759581E-1,8.614161611E-1,9.856036186E0
2.152279962E0,-3.349951804E-1,1.229910851E0,9.485149384E0
2.162279962E0,-2.129612118E-1,1.339980721E0,9.621540070E0
2.172279962E0,-2.536391914E-1,1.488335729E0,9.829715729E0
2.182279962E0,-2.536391914E-1,1.488335729E0,9.829715729E0
2.192279962E0,-2.536391914E-1,1.488335729E0,9.829715729E0
2.202279962E0,-2.536391914E-1,1.488335729E0,9.829715729E0
2.212279962E0,-2.847459018E-1,1.052842021E0,1.080120182E1
2.212279962E0,-2.847459018E-1,1.052842021E0,1.080120182E1
2.232279962E0,-5.958128572E-1,6.604190469E-1,1.020060253E1
2.242279962E0,-7.441678643E-1,5.790630579E-1,1.006660461E1
2.252279962E0,-7.441678643E-1,5.790630579E-1,1.006660461E1
2.262279962E0,-7.441678643E-1,5.790630579E-1,1.006660461E1
2.272279962E0,-8.183453679E-1,6.029912829E-1,9.169296265E0
2.282279962E0,-6.867401004E-1,7.274180651E-1,8.953942299E0
2.292279962E0,-7.298108935E-1,7.968099117E-1,8.848658562E0
2.302279962E0,-9.427721500E-1,8.303094506E-1,8.863015175E0
2.312279962E0,-1.165304661E0,9.332008362E-1,8.961120605E0
2.322279962E0,-1.165304661E0,9.332008362E-1,8.961120605E0
2.332279962E0,-1.165304661E0,9.332008362E-1,8.961120605E0
2.342279962E0,-5.479564071E-1,1.395015597E0,9.470791817E0
2.352279962E0,-1.220339537E-1,1.253839016E0,9.588040352E0
2.362279962E0,2.249253243E-1,1.060020447E0,9.779465675E0
2.372279962E0,3.445664644E-1,9.643075466E-1,1.006899738E1
2.382279962E0,3.445664644E-1,8.374879360E-1,1.016471100E1
2.392279962E0,1.746760458E-1,7.680960894E-1,1.001396275E1
2.402279962E0,-6.699903309E-2,9.044869542E-1,9.803394318E0
2.412279962E0,-4.881358147E-1,1.093519926E0,9.729216576E0
2.422279962E0,-6.197410822E-1,1.368694544E0,9.722038269E0
2.432279962E0,-6.269195080E-1,1.395015597E0,9.410971642E0
2.442279962E0,-6.197410822E-1,1.244267821E0,8.889336586E0
2.452279962E0,-6.675975323E-1,1.251446247E0,8.573483467E0
2.462279962E0,-1.107876897E0,1.540977836E0,8.322237015E0
2.472279962E0,-1.112662554E0,1.593619823E0,8.453842163E0
2.482279962E0,-9.116654396E-1,1.579262972E0,8.559126854E0
2.492279962E0,-5.383850932E-1,1.442872047E0,8.714659691E0
2.502279962E0,-2.344966233E-1,1.217946768E0,9.020941734E0
2.512279962E0,-5.982056633E-2,8.614161611E-1,9.504291534E0
2.522279962E0,-1.435693651E-1,5.838487148E-1,9.901499748E0
2.532279962E0,-5.742774606E-1,4.019941986E-1,1.009771156E1
2.542279962E0,-8.087740541E-1,4.977070987E-1,1.010728264E1
2.552279962E0,-1.100698471E0,6.293123364E-1,1.004985523E1
2.562279962E0,-1.098305583E0,7.513462901E-1,9.769894600E0
2.572279962E0,-9.236295223E-1,9.116654396E-1,9.506684303E0
2.582279962E0,-1.055234790E0,1.064806104E0,9.169296265E0
2.592279962E0,-1.545763373E0,8.877372146E-1,8.575876236E0
2.602279962E0,-1.993221283E0,9.858429432E-1,8.532805443E0
2.612279962E0,-2.237289190E0,1.196411371E0,8.382058144E0
2.622279962E0,-2.189432621E0,1.318445325E0,8.697910309E0
2.632279962E0,-1.976471543E0,1.299302697E0,9.068798065E0
2.642279962E0,-1.694118381E0,1.229910851E0,9.193224907E0
2.652279962E0,-1.493121386E0,1.179661512E0,9.200403214E0
2.662279962E0,-1.251446247E0,1.153340459E0,9.394221306E0
2.672279962E0,-6.891329288E-1,1.105484009E0,9.942177773E0
2.682279962E0,-6.891329288E-1,1.105484009E0,9.942177773E0
2.692279962E0,-6.891329288E-1,1.105484009E0,9.942177773E0
2.702279962E0,-1.962114573E-1,7.465606928E-1,9.839286804E0
2.712279962E0,1.459621787E-1,7.609176040E-1,9.863214493E0
2.722279962E0,4.857429862E-1,7.274180651E-1,9.956535339E0
2.732279962E0,8.709874153E-1,6.317051649E-1,9.982855797E0
2.742279962E0,8.709874153E-1,6.317051649E-1,9.982855797E0
2.752279962E0,-2.632104978E-2,1.409372568E0,9.853643417E0
2.762279962E0,-5.886343718E-1,1.646261930E0,9.789037704E0
2.772279962E0,-7.513462901E-1,1.536192179E0,9.652647018E0
2.782279962E0,-5.024927258E-1,1.220339537E0,9.365508080E0
2.792279962E0,-2.153540403E-2,8.949156404E-1,9.061619759E0
2.802279962E0,4.498506486E-1,6.939185858E-1,8.788837433E0
2.812279962E0,6.149554253E-1,5.790630579E-1,9.087940216E0
2.822279962E0,3.589234129E-2,7.585247755E-1,9.652647018E0
2.832279962E0,3.589234129E-2,7.585247755E-1,9.652647018E0
2.842279962E0,1.083948612E0,1.849651933E0,1.129890823E1
2.852279962E0,1.225125194E0,1.739582062E0,1.161236858E1
2.862279962E0,1.241874933E0,2.153540373E0,1.121994495E1
2.872279962E0,1.607976794E0,2.734996319E0,9.547362328E0
2.882279962E0,-3.397808075E-1,2.141576290E0,9.511469841E0
2.892279962E0,-1.385444283E0,1.385444283E0,9.781859398E0
2.902279962E0,-1.691725612E0,1.086341500E0,9.939785004E0
2.912279962E0,-1.308874011E0,1.208375454E0,9.927821159E0
2.922279962E0,-6.580262184E-1,1.517049551E0,9.561718941E0
2.932279962E0,-1.244267747E-1,1.820937991E0,8.927620888E0
2.942279962E0,-1.555334777E-1,1.919043779E0,8.260024071E0
2.952279962E0,-7.776673436E-1,2.170290232E0,7.561319351E0
2.962279962E0,-9.427721500E-1,2.407179594E0,7.362715244E0
2.972279962E0,-8.207381964E-1,2.553141832E0,7.331608772E0
2.982279962E0,-5.742774606E-1,2.490928411E0,7.525427341E0
2.992279962E0,-1.914258152E-1,2.524427891E0,7.891529083E0
3.002279962E0,-3.326023519E-1,2.562713146E0,8.066205025E0
3.012279962E0,-5.718846321E-1,2.622533560E0,8.152346611E0
3.022279962E0,-8.279166222E-1,3.050848961E0,8.678768158E0
3.032279962E0,-8.279166222E-1,3.050848961E0,8.678768158E0
3.042279962E0,-8.279166222E-1,3.050848961E0,8.678768158E0
3.052279962E0,-7.106683254E-1,2.254039049E0,8.673981667E0
3.062279962E0,-6.819544435E-1,2.177468538E0,9.894321442E0
3.072279962E0,-5.264210105E-1,1.763510346E0,1.148076344E1
3.082279962E0,-1.674975902E-1,7.609176040E-1,1.266042423E1
3.092279962E0,-1.674975902E-1,7.609176040E-1,1.266042423E1
3.102279962E0,-1.674975902E-1,7.609176040E-1,1.266042423E1
3.112279962E0,-1.674975902E-1,7.609176040E-1,1.266042423E1
3.112279962E0,3.828516304E-1,1.706082582E0,1.266521072E1
3.132279962E0,-3.948157430E-1,2.084148407E0,1.030588722E1
3.142279962E0,-6.197410822E-1,1.823330879E0,9.154939651E0
3.152279962E0,-6.197410822E-1,1.823330879E0,9.154939651E0
3.162279962E0,-6.197410822E-1,1.823330879E0,9.154939651E0
3.172279962E0,-5.264210105E-1,2.218146563E0,6.448657036E0
3.182279962E0,-1.280160069E0,2.873780012E0,6.979863644E0
3.192279962E0,-1.581655741E0,3.086741209E0,7.671389580E0
3.202279962E0,-1.380658627E0,2.813959360E0,8.348558426E0
3.212279962E0,-9.260223508E-1,2.390429735E0,9.102297783E0
3.222279962E0,-9.260223508E-1,2.390429735E0,9.102297783E0
3.232279962E0,4.546362907E-2,1.722832322E0,1.217468166E1
3.242279962E0,2.871387079E-2,1.622333765E0,1.284945774E1
3.252279962E0,6.125625968E-1,1.574477315E0,1.320359516E1
3.262279962E0,6.699903607E-1,1.581655741E0,1.284945774E1
3.272279962E0,5.814558864E-1,1.466800332E0,1.211486149E1
3.282279962E0,3.876372576E-1,1.423729420E0,1.092084217E1
3.292279962E0,2.584248483E-1,1.373480201E0,8.338987350E0
3.302279962E0,3.541377485E-1,1.526620865E0,7.252645493E0
3.312279962E0,3.038884699E-1,1.572084427E0,6.518048763E0
3.322279962E0,6.460621208E-2,1.696511269E0,6.271588326E0
3.332279962E0,-4.331009090E-1,2.076970100E0,6.388836384E0
3.342279962E0,-7.154539824E-1,2.589034081E0,6.668796539E0
3.352279962E0,-6.221339107E-1,2.979064226E0,6.958328247E0
3.362279962E0,-2.991028428E-1,3.125026464E0,7.424928665E0
3.372279962E0,-1.483550072E-1,2.883351326E0,7.630711555E0
3.382279962E0,-3.972085714E-1,2.778067112E0,7.800601959E0
3.392279962E0,-8.135596663E-2,2.890529871E0,8.350951195E0
3.402279962E0,-1.914258115E-2,2.892922640E0,8.863015175E0
3.412279962E0,-2.344966233E-1,2.727817774E0,9.281759262E0
3.422279962E0,-3.613162339E-1,2.481357098E0,9.583254814E0
3.432279962E0,-4.546363056E-1,2.225325108E0,9.461220741E0
3.442279962E0,-3.900300860E-1,2.100898266E0,9.052047729E0
3.452279962E0,-3.804588020E-1,1.993221283E0,8.484949112E0
3.462279962E0,-4.546363056E-1,1.875972986E0,8.085348129E0
3.472279962E0,-6.484549642E-1,1.830509305E0,7.759923935E0
3.482279962E0,-8.709874153E-1,1.866401672E0,7.515855789E0
3.492279962E0,-1.028913736E0,1.981257200E0,7.384250641E0
3.502279962E0,-1.028913736E0,1.981257200E0,7.384250641E0
3.512279962E0,-1.028913736E0,1.981257200E0,7.384250641E0
3.522279962E0,-1.366301775E0,2.818745136E0,7.580461979E0
3.532279962E0,-1.390229940E0,2.924029350E0,8.264809608E0
3.542279962E0,-1.430907965E0,2.864208698E0,8.958727837E0
3.552279962E0,-1.213161111E0,2.560320139E0,9.446864128E0
3.562279962E0,-7.034898400E-1,2.294716835E0,9.812965393E0
3.572279962E0,-7.034898400E-1,2.294716835E0,9.812965393E0
3.582279962E0,-7.034898400E-1,2.294716835E0,9.812965393E0
3.592279962E0,-3.014956415E-1,2.366501570E0,9.858428955E0
3.602279962E0,-1.770688742E-1,2.163111687E0,9.724431038E0
3.612279962E0,2.871387079E-2,1.921436548E0,9.597611427E0
3.622279962E0,-3.828516230E-2,1.741974831E0,9.662218094E0
3.632279962E0,-3.397808075E-1,1.679761529E0,9.930213928E0
3.642279962E0,-3.397808075E-1,1.679761529E0,9.930213928E0
3.652279962E0,-1.028913736E0,1.849651933E0,1.218903828E1
3.662279962E0,-6.795616150E-1,1.780260086E0,1.249053383E1
3.672279962E0,-1.746760458E-1,1.773081541E0,1.253599739E1
3.682279962E0,2.919243574E-1,1.775474429E0,1.232064342E1
3.692279962E0,8.709874153E-1,1.569691658E0,1.185882950E1
3.702279962E0,7.872386575E-1,1.196411371E0,1.149990559E1
3.712279962E0,8.853443712E-2,7.489534616E-1,1.072223854E1
3.722279962E0,-2.871387079E-2,7.537391186E-1,1.050209904E1
3.732279962E0,-1.268195957E-1,1.012163997E0,1.043270683E1
3.742279962E0,-1.555334777E-1,1.344766378E0,1.032502937E1
3.752279962E0,-1.722832322E-1,1.703689694E0,1.015274620E1
3.762279962E0,-2.297109663E-1,1.926222205E0,9.817750931E0
3.772279962E0,-1.483550072E-1,2.069791555E0,9.528220177E0
3.782279962E0,-1.962114573E-1,2.414358139E0,9.006584167E0
3.792279962E0,4.546362907E-2,2.471785784E0,9.073583603E0
3.802279962E0,1.172483116E-1,2.464607239E0,9.219545364E0
3.812279962E0,3.828516230E-2,2.536391973E0,9.422935486E0
3.822279962E0,-2.009970993E-1,2.498106956E0,9.635896683E0
3.832279962E0,-2.153540403E-1,2.359323025E0,9.741181374E0
3.842279962E0,-7.178468257E-2,2.062613010E0,9.829715729E0
3.852279962E0,5.910272002E-1,2.122433662E0,1.039202881E1
3.862279962E0,7.298108935E-1,2.151147604E0,1.046381378E1
3.872279962E0,2.464607358E-1,2.086541414E0,1.035135078E1
3.882279962E0,-2.656033039E-1,2.096112728E0,9.958928108E0
3.892279962E0,-6.269195080E-1,1.868794441E0,9.458827972E0
3.902279962E0,-8.614161611E-1,1.354337573E0,8.946763992E0
3.912279962E0,-6.867401004E-1,8.446664214E-1,8.621339798E0
3.922279962E0,-1.507478207E-1,5.359922647E-1,8.662017822E0
3.932279962E0,9.571290761E-2,7.872386575E-1,8.748159409E0
3.942279962E0,9.571290761E-2,7.872386575E-1,8.748159409E0
3.952279962E0,9.571290761E-2,7.872386575E-1,8.748159409E0
3.962279962E0,9.236295223E-1,2.084148407E0,7.525427341E0
3.972279962E0,1.222732425E0,2.766103029E0,6.568298340E0
3.982279962E0,1.483550072E0,3.089133978E0,5.623133183E0
3.992279962E0,1.483550072E0,3.089133978E0,5.623133183E0
4.002279962E0,1.483550072E0,3.089133978E0,5.623133183E0
4.012279962E0,1.483550072E0,3.089133978E0,5.623133183E0
4.022279962E0,1.483550072E0,3.089133978E0,5.623133183E0
4.032279962E0,1.483550072E0,3.089133978E0,5.623133183E0
4.042279962E0,-2.471785784E0,2.675175667E0,1.147358418E1
4.052279962E0,-8.111668825E-1,2.244467735E0,1.344287777E1
4.062279962E0,-8.111668825E-1,2.244467735E0,1.344287777E1
4.072279962E0,-8.111668825E-1,2.244467735E0,1.344287777E1
4.082279962E0,-8.111668825E-1,2.244467735E0,1.344287777E1
4.092279962E0,1.698904037E-1,1.438086390E0,1.339023590E1
4.102279962E0,-7.489534616E-1,1.186840057E0,1.278724384E1
4.112279962E0,-1.299302697E0,8.757730722E-1,1.213400364E1
4.122279962E0,-1.277767301E0,5.312066078E-1,1.124626637E1
4.132279962E0,-1.277767301E0,5.312066078E-1,1.124626637E1
4.142279962E0,-1.277767301E0,5.312066078E-1,1.124626637E1
4.152279962E0,5.766702294E-1,1.928615093E0,8.781659126E0
4.162279962E0,7.178468108E-1,2.373680115E0,8.774480820E0
4.172279962E0,6.699903607E-1,2.723032236E0,9.071190834E0
4.182279962E0,5.694918036E-1,2.780459881E0,9.652647018E0
4.192279962E0,2.081755698E-1,2.694318295E0,1.045663452E1
4.202279962E0,2.081755698E-1,2.694318295E0,1.045663452E1
4.212279962E0,-2.392822653E-1,1.820937991E0,1.384487152E1
4.222279962E0,6.005984545E-1,1.567298889E0,1.446939850E1
4.232279962E0,1.749153376E0,1.062413216E0,1.443350601E1
4.242279962E0,2.440679073E0,6.436693072E-1,1.400758362E1
4.252279962E0,2.273181438E0,3.684946895E-1,1.326341629E1
4.262279962E0,1.828116536E0,2.991028428E-1,1.222014523E1
4.272279962E0,1.828116536E0,2.991028428E-1,1.222014523E1
4.282279962E0,7.298108935E-1,7.513462901E-1,8.961120605E0
4.292279962E0,5.288137794E-1,7.609176040E-1,7.917850018E0
4.302279962E0,7.513462901E-1,8.805587292E-1,6.960721016E0
4.312279962E0,1.036092162E0,1.112662554E0,6.202196121E0
4.322279962E0,1.117448211E0,1.385444283E0,5.639883041E0
4.332279962E0,1.050449133E0,1.832902193E0,5.501099110E0
4.342279962E0,1.363908947E-1,2.672782898E0,6.309873104E0
4.352279962E0,-5.168496966E-1,3.058027267E0,6.553941250E0
4.362279962E0,-5.551348329E-1,3.208775282E0,6.917650223E0
4.372279962E0,-7.441678643E-1,3.187239647E0,7.759923935E0
4.382279962E0,-9.810572863E-1,3.129812002E0,8.638090134E0
4.392279962E0,-8.494520187E-1,2.907279491E0,9.667003632E0
4.402279962E0,-4.737788737E-1,2.309073925E0,1.067677498E1
4.412279962E0,3.876372576E-1,1.543370605E0,1.188036442E1
4.422279962E0,3.589234054E-1,1.395015597E0,1.190668583E1
4.432279962E0,4.737788737E-1,1.306481123E0,1.158365440E1
4.442279962E0,5.192425251E-1,1.119840980E0,1.099262714E1
4.452279962E0,4.378865361E-1,8.303094506E-1,1.020538902E1
4.462279962E0,4.642075896E-1,6.077769399E-1,9.463613510E0
4.472279962E0,5.766702294E-1,6.053841114E-1,8.678768158E0
4.482279962E0,4.929214716E-1,9.547362328E-1,7.051648140E0
4.492279962E0,5.024927258E-1,1.287338614E0,6.735795975E0
4.502279962E0,5.144568682E-1,1.684547186E0,6.223731518E0
4.512279962E0,7.752745152E-1,2.031506538E0,5.761917114E0
4.522279962E0,6.029912829E-1,2.526820660E0,5.603990555E0
4.532279962E0,4.929214716E-1,2.967100143E0,5.501099110E0
4.542279962E0,5.048855543E-1,3.297309637E0,5.429314613E0
4.552279962E0,5.048855543E-1,3.297309637E0,5.429314613E0
4.562279962E0,5.048855543E-1,3.297309637E0,5.429314613E0
4.572279962E0,5.048855543E-1,3.297309637E0,5.429314613E0
4.582279962E0,-7.250252366E-1,3.981656790E0,8.516056061E0
4.592279962E0,-1.198804140E0,3.775874138E0,9.315258980E0
4.602279962E0,-1.684547186E0,3.613162279E0,1.003549862E1
4.612279962E0,-1.777867198E0,2.947957516E0,1.056191921E1
4.622279962E0,-1.777867198E0,2.947957516E0,1.056191921E1
4.632279962E0,-1.777867198E0,2.947957516E0,1.056191921E1
4.642279962E0,-4.331009090E-1,1.631905079E0,1.193779182E1
4.652279962E0,-3.349951804E-1,1.596012712E0,1.189711380E1
4.662279962E0,-1.100698411E-1,1.634297848E0,1.169611740E1
4.672279962E0,1.052841991E-1,1.744367719E0,1.131565857E1
4.682279962E0,2.153540403E-1,1.940579176E0,1.083470058E1
4.692279962E0,2.153540403E-1,1.940579176E0,1.083470058E1
4.702279962E0,2.153540403E-1,1.940579176E0,1.083470058E1
4.712279962E0,-2.009970993E-1,2.967100143E0,8.774480820E0
4.722279962E0,-3.493520916E-1,3.062813044E0,8.578269005E0
4.732279962E0,-4.307080805E-1,3.148954630E0,8.606983185E0
4.742279962E0,-5.000999570E-1,3.122633457E0,8.796015739E0
4.752279962E0,-5.192425251E-1,3.046063185E0,9.075976372E0
4.762279962E0,-5.192425251E-1,3.046063185E0,9.075976372E0
4.772279962E0,-4.713860750E-1,2.536391973E0,9.592825890E0
4.782279962E0,-3.661018610E-1,2.333002090E0,9.729216576E0
4.792279962E0,-4.163511395E-1,2.167897224E0,9.899106979E0
4.802279962E0,-5.503492355E-1,2.029113531E0,1.016231823E1
4.812279962E0,-4.402793646E-1,1.947757602E0,1.037049294E1
4.822279962E0,-1.363908947E-1,1.883151412E0,1.045663452E1
4.832279962E0,2.416750938E-1,1.837687731E0,1.023410225E1
4.842279962E0,2.703889608E-1,1.923829436E0,9.911071777E0
4.852279962E0,3.110669553E-1,2.084148407E0,9.556933403E0
4.862279962E0,2.440679073E-1,2.258824587E0,9.107083321E0
4.872279962E0,4.546362907E-2,2.335394859E0,8.568697929E0
4.882279962E0,-5.742774159E-2,2.392822742E0,7.948956966E0
4.892279962E0,-3.110669367E-2,2.533999205E0,7.611568928E0
4.902279962E0,-5.024927482E-2,2.801995277E0,7.515855789E0
4.912279962E0,-1.244267747E-1,2.890529871E0,7.666603565E0
4.922279962E0,-2.464607358E-1,2.904886723E0,7.958528042E0
4.932279962E0,-3.732803464E-1,2.823530674E0,8.391629219E0
4.942279962E0,-5.312066078E-1,2.780459881E0,8.867800713E0
4.952279962E0,-5.862415433E-1,2.739781857E0,9.272188187E0
4.962279962E0,-6.556333899E-1,2.658426046E0,9.597611427E0
4.972279962E0,-4.785645306E-1,2.328216314E0,1.002353382E1
4.982279962E0,-4.642075896E-1,2.194218397E0,1.011685371E1
4.992279962E0,-3.326023519E-1,2.007578135E0,1.013599682E1
5.002279962E0,-1.746760458E-1,1.899901152E0,1.034177971E1
5.012279962E0,-1.890329868E-1,1.837687731E0,1.053081226E1
5.022279962E0,-2.847459018E-1,1.789831281E0,1.060977554E1
5.032279962E0,-2.632105052E-1,1.816152334E0,1.049731255E1
5.042279962E0,3.828516230E-2,1.940579176E0,9.812965393E0
5.052279962E0,1.435693651E-1,2.000399828E0,9.468399048E0
5.062279962E0,1.435693651E-1,2.012363911E0,9.188439369E0
5.072279962E0,9.571290761E-2,2.036292076E0,8.944371223E0
5.082279962E0,8.614161611E-2,2.053041935E0,8.712266922E0
5.092279962E0,-3.589234129E-2,2.108076811E0,8.604590416E0
5.102279962E0,-1.986042857E-1,2.234896421E0,8.595019341E0
5.112279962E0,-4.977070987E-1,2.316252232E0,8.609375954E0
5.122279962E0,-6.029912829E-1,2.316252232E0,8.717052460E0
5.132279962E0,-6.747759581E-1,2.328216314E0,8.913264275E0
5.142279962E0,-6.269195080E-1,2.266003132E0,9.123832703E0
5.152279962E0,-4.809573591E-1,2.129612207E0,9.315258980E0
5.162279962E0,-2.895315289E-1,1.938186288E0,9.523433685E0
5.172279962E0,-2.009970993E-1,1.811366796E0,9.602396965E0
5.182279962E0,-2.488535494E-1,1.835294962E0,9.633503914E0
5.192279962E0,-2.488535494E-1,1.835294962E0,9.633503914E0
5.202279962E0,-2.488535494E-1,1.835294962E0,9.633503914E0
5.212279962E0,-2.488535494E-1,1.835294962E0,9.633503914E0
5.222279962E0,-8.614161611E-2,1.854437590E0,1.012164021E1
5.232279962E0,-7.178467698E-3,1.847259045E0,1.004985523E1
5.242279962E0,3.349951655E-2,1.844866276E0,9.961320877E0
5.252279962E0,3.349951655E-2,1.844866276E0,9.961320877E0
5.262279962E0,3.349951655E-2,1.844866276E0,9.961320877E0
5.272279962E0,3.349951655E-2,1.844866276E0,9.961320877E0
5.282279962E0,-5.264209956E-2,1.909472466E0,1.009531879E1
5.292279962E0,1.100698411E-1,1.828116536E0,9.997213364E0
5.302279962E0,1.004985496E-1,1.751546144E0,9.894321442E0
5.312279962E0,-5.742774159E-2,1.694118381E0,9.779465675E0
5.322279962E0,-5.742774159E-2,1.694118381E0,9.779465675E0
5.332279962E0,-5.742774159E-2,1.694118381E0,9.779465675E0
5.342279962E0,-1.268195957E-1,1.679761529E0,9.324830055E0
5.352279962E0,-1.531406492E-1,1.739582062E0,9.303294182E0
5.362279962E0,-4.546362907E-2,1.763510346E0,9.492327690E0
5.372279962E0,0.000000000E0,1.756331801E0,9.896714211E0
5.382279962E0,9.571290575E-3,1.722832322E0,1.027238750E1
5.392279962E0,9.571290575E-3,1.722832322E0,1.027238750E1
5.402279962E0,5.192425251E-1,1.428515077E0,1.005942631E1
5.402279962E0,5.192425251E-1,1.428515077E0,1.005942631E1
5.422279962E0,3.948157430E-1,1.414158225E0,9.662218094E0
5.432279962E0,2.177468538E-1,1.483550072E0,9.528220177E0
5.442279962E0,1.722832322E-1,1.462014675E0,9.339186668E0
5.452279962E0,2.153540403E-1,1.428515077E0,9.150154114E0
5.462279962E0,1.292124242E-1,1.600798368E0,8.994620323E0
5.472279962E0,4.785645381E-2,1.694118381E0,9.157332420E0
5.482279962E0,-4.785645381E-2,1.677368641E0,9.494720459E0
5.492279962E0,-8.853443712E-2,1.631905079E0,9.894321442E0
5.502279962E0,-3.828516230E-2,1.607976794E0,1.013360405E1
5.512279962E0,-4.067798331E-2,1.588834286E0,1.028913784E1
5.522279962E0,2.153540403E-2,1.567298889E0,1.032024384E1
5.532279962E0,2.632105052E-1,1.471585870E0,9.884750366E0
5.542279962E0,4.402793646E-1,1.485942841E0,9.786644936E0
5.552279962E0,2.249253243E-1,1.409372568E0,9.614361763E0
5.562279962E0,5.982056633E-2,1.392622828E0,9.516255379E0
5.572279962E0,9.571290761E-2,1.411765337E0,9.482755661E0
5.582279962E0,2.225325108E-1,1.404586911E0,9.516255379E0
5.592279962E0,4.378865361E-1,1.418943882E0,9.607182503E0
5.602279962E0,5.024927258E-1,1.517049551E0,9.851250648E0
5.612279962E0,3.876372576E-1,1.615155339E0,9.954142570E0
5.622279962E0,2.991028428E-1,1.703689694E0,9.899106979E0
5.632279962E0,2.488535494E-1,1.722832322E0,9.621540070E0
5.642279962E0,2.943171859E-1,1.746760488E0,9.288937569E0
5.652279962E0,3.828516304E-1,1.847259045E0,8.824729919E0
5.662279962E0,3.708875179E-1,1.899901152E0,8.504091263E0
5.672279962E0,1.076770201E-1,1.885544300E0,8.231309891E0
5.682279962E0,-9.810572863E-2,1.907079697E0,8.360522270E0
5.692279962E0,-2.679961324E-1,1.933400750E0,8.707481384E0
5.702279962E0,-2.847459018E-1,1.974078655E0,9.140582085E0
5.712279962E0,-3.756731451E-1,2.014756680E0,9.549755096E0
5.722279962E0,-4.067798555E-1,1.902294040E0,9.856036186E0
5.732279962E0,-3.158525825E-1,1.746760488E0,1.004985523E1
5.742279962E0,2.632104978E-2,1.445264935E0,1.010010433E1
5.752279962E0,2.344966233E-1,1.272981644E0,1.001635551E1
5.762279962E0,3.086741269E-1,1.189232826E0,9.779465675E0
5.772279962E0,3.637090325E-1,1.304088354E0,9.444471359E0
5.782279962E0,5.072783828E-1,1.543370605E0,9.164510727E0
5.792279962E0,5.910272002E-1,1.780260086E0,8.874979019E0
5.802279962E0,5.479564071E-1,1.785045743E0,8.525627136E0
5.812279962E0,5.479564071E-1,1.785045743E0,8.525627136E0
5.822279962E0,5.479564071E-1,1.785045743E0,8.525627136E0
5.832279962E0,5.479564071E-1,1.785045743E0,8.525627136E0
5.842279962E0,-1.459621787E-1,2.127219439E0,8.370093346E0
5.852279962E0,-1.292124242E-1,2.000399828E0,8.944371223E0
5.862279962E0,-1.507478207E-1,1.837687731E0,9.559326172E0
5.872279962E0,-6.699903309E-2,1.708475351E0,1.002831936E1
5.882279962E0,-6.699903309E-2,1.708475351E0,1.002831936E1
5.892279962E0,-1.196411345E-2,1.610369682E0,1.018385315E1
5.902279962E0,-1.411765367E-1,1.622333765E0,9.626325607E0
5.912279962E0,-2.727817893E-1,1.648654819E0,8.992227554E0
5.922279962E0,-5.359922647E-1,1.646261930E0,8.341380119E0
5.932279962E0,-6.987041831E-1,1.775474429E0,7.905886173E0
5.942279962E0,-7.130611539E-1,1.983649969E0,7.539783955E0
5.952279962E0,-6.484549642E-1,2.196611166E0,7.795815945E0
5.962279962E0,-3.541377485E-1,2.172683001E0,8.341380119E0
5.972279962E0,-6.460621208E-2,2.012363911E0,8.951549530E0
5.982279962E0,-1.100698411E-1,1.885544300E0,9.631111145E0
5.992279962E0,-1.459621787E-1,1.864008784E0,1.020060253E1
6.002279962E0,-1.483550072E-1,1.818545222E0,1.060020447E1
6.012279962E0,-2.727817893E-1,1.727617979E0,1.077009487E1
6.022279962E0,-2.464607358E-1,1.572084427E0,1.049491978E1
6.032279962E0,-2.967100143E-1,1.471585870E0,1.010728264E1
6.042279962E0,-3.421736360E-1,1.409372568E0,9.791430473E0
6.052279962E0,-2.440679073E-1,1.438086390E0,9.549755096E0
6.062279962E0,-7.657032460E-2,1.509871125E0,9.434899330E0
6.072279962E0,5.742774159E-2,1.617548108E0,9.434899330E0
6.082279962E0,1.220339537E-1,1.653440475E0,9.554540634E0
6.092279962E0,1.603191197E-1,1.703689694E0,9.784252167E0
6.102279962E0,9.571290761E-2,1.749153376E0,9.772287369E0
6.112279962E0,8.614161611E-2,1.761117458E0,9.710074425E0
6.122279962E0,6.460621208E-2,1.746760488E0,9.533005714E0
6.132279962E0,-2.871387079E-2,1.720439434E0,9.300901413E0
6.142279962E0,-8.135596663E-2,1.765903115E0,9.166903496E0
6.152279962E0,-2.033899277E-1,1.818545222E0,9.233902931E0
6.162279962E0,-4.785645306E-1,1.844866276E0,9.396614075E0
6.172279962E0,-4.642075896E-1,1.890329838E0,9.377471924E0
6.182279962E0,-3.158525825E-1,1.935793519E0,9.425328255E0
6.192279962E0,-1.770688742E-1,1.856830359E0,9.600004196E0
6.202279962E0,-1.603191197E-1,1.718046665E0,9.848857880E0
6.212279962E0,-2.033899277E-1,1.639083505E0,1.003549862E1
6.222279962E0,-2.129612118E-1,1.643869162E0,1.016949654E1
6.232279962E0,-2.129612118E-1,1.643869162E0,1.016949654E1
6.242279962E0,-2.129612118E-1,1.643869162E0,1.016949654E1
6.252279962E0,-2.129612118E-1,1.643869162E0,1.016949654E1
6.262279962E0,-2.727817893E-1,1.684547186E0,9.413364410E0
6.272279962E0,-1.722832322E-1,1.866401672E0,9.408578873E0
6.282279962E0,-1.244267747E-1,2.005185366E0,9.408578873E0
6.292279962E0,-1.244267747E-1,2.005185366E0,9.408578873E0
6.302279962E0,-1.244267747E-1,2.005185366E0,9.408578873E0
6.312279962E0,-1.244267747E-1,2.005185366E0,9.408578873E0
6.322279962E0,-7.657032609E-1,1.775474429E0,1.025085258E1
6.332279962E0,-8.422735929E-1,1.732403636E0,1.045902824E1
6.342279962E0,-6.173482537E-1,1.670190215E0,1.052841949E1
6.352279962E0,-2.823530734E-1,1.557727575E0,1.045663452E1
6.362279962E0,-2.823530734E-1,1.557727575E0,1.045663452E1
6.372279962E0,-2.823530734E-1,1.557727575E0,1.045663452E1
6.382279962E0,9.810572863E-2,1.493121386E0,9.549755096E0
6.392279962E0,1.411765367E-1,1.627119422E0,9.303294182E0
6.402279962E0,3.828516230E-2,1.710868239E0,9.107083321E0
6.412279962E0,-8.374879509E-2,1.770688772E0,8.930013657E0
6.422279962E0,-5.503492057E-2,1.832902193E0,8.764909744E0
6.432279962E0,-5.503492057E-2,1.832902193E0,8.764909744E0
6.442279962E0,-4.067798331E-2,1.909472466E0,8.712266922E0
6.452279962E0,-3.828516230E-2,1.914258122E0,8.870193481E0
6.462279962E0,-1.339980662E-1,1.935793519E0,9.171689034E0
6.472279962E0,-1.842473447E-1,1.995614052E0,9.513862610E0
6.482279962E0,-9.571290761E-2,1.974078655E0,9.781859398E0
6.492279962E0,-5.264209956E-2,1.883151412E0,9.994820595E0
6.502279962E0,-1.148554832E-1,1.698904037E0,1.018624592E1
6.512279962E0,-1.866401732E-1,1.667797327E0,1.012403297E1
6.522279962E0,-2.584248483E-1,1.684547186E0,1.002353382E1
6.532279962E0,-3.014956415E-1,1.674975872E0,9.975677490E0
6.542279962E0,-2.177468538E-1,1.691725612E0,9.853643417E0
6.552279962E0,-5.024927482E-2,1.727617979E0,9.729216576E0
6.562279962E0,1.124626622E-1,1.777867198E0,9.597611427E0
6.572279962E0,3.278166950E-1,1.883151412E0,8.961120605E0
6.582279962E0,2.560320199E-1,1.957328916E0,8.678768158E0
6.592279962E0,1.914258115E-2,2.024327993E0,8.475378036E0
6.602279962E0,-3.158525825E-1,2.043470621E0,8.386843681E0
6.612279962E0,-5.814558864E-1,2.139183521E0,8.365307808E0
6.622279962E0,-6.963114142E-1,2.220539331E0,8.456234932E0
6.632279962E0,-7.465606928E-1,2.301895380E0,8.621339798E0
6.642279962E0,-6.173482537E-1,2.060220242E0,9.489934921E0
6.652279962E0,-4.666004181E-1,1.859223247E0,1.002353382E1
6.662279962E0,-4.666004181E-1,1.859223247E0,1.002353382E1
6.672279962E0,-4.666004181E-1,1.859223247E0,1.002353382E1
6.682279962E0,-3.230310678E-1,1.665404558E0,1.078205872E1
6.692279962E0,-2.009970993E-1,1.691725612E0,1.054516983E1
6.702279962E0,-2.297109663E-1,1.706082582E0,1.017428207E1
6.712279962E0,-2.297109663E-1,1.706082582E0,1.017428207E1
6.722279962E0,-2.297109663E-1,1.706082582E0,1.017428207E1
6.732279962E0,-1.962114573E-1,2.065006018E0,8.836693764E0
6.742279962E0,-2.679961324E-1,2.148754835E0,8.757730484E0
6.752279962E0,-4.689932466E-1,2.215753794E0,8.877371788E0
6.762279962E0,-7.106683254E-1,2.165504456E0,9.147761345E0
6.772279962E0,-6.843472719E-1,2.043470621E0,9.540184021E0
6.782279962E0,-6.843472719E-1,2.043470621E0,9.540184021E0
6.792279962E0,-6.843472719E-1,2.043470621E0,9.540184021E0
6.802279962E0,7.178468257E-2,1.639083505E0,1.030827999E1
6.812279962E0,2.297109663E-1,1.526620865E0,9.939785004E0
6.822279962E0,1.818545163E-1,1.471585870E0,9.504291534E0
6.832279962E0,-9.571290761E-2,1.524227977E0,9.054440498E0
6.842279962E0,-2.608176768E-1,1.694118381E0,8.726624489E0
6.852279962E0,-2.009970993E-1,2.132004976E0,8.322237015E0
6.862279962E0,-1.435693651E-1,2.210968018E0,8.240880966E0
6.872279962E0,-1.435693651E-1,2.210968018E0,8.240880966E0
6.882279962E0,-1.627119333E-1,2.311466694E0,8.305487633E0
6.892279962E0,-3.302095234E-1,2.423929453E0,8.489734650E0
6.902279962E0,-5.982056856E-1,2.433500528E0,8.841479301E0
6.912279962E0,-6.125625968E-1,2.342573404E0,9.250652313E0
6.922279962E0,-6.125625968E-1,2.342573404E0,9.250652313E0
6.932279962E0,-5.144568682E-1,1.907079697E0,1.036092186E1
6.942279962E0,-4.857429862E-1,1.753939033E0,1.060259724E1
6.952279962E0,-3.828516304E-1,1.639083505E0,1.070070267E1
6.962279962E0,-2.560320199E-1,1.536192179E0,1.069113159E1
6.972279962E0,-2.177468538E-1,1.471585870E0,1.052124119E1
6.982279962E0,-2.679961324E-1,1.538584948E0,1.021735287E1
6.992279962E0,-2.679961324E-1,1.538584948E0,1.021735287E1
7.002279962E0,-2.560320199E-1,1.904686809E0,8.949156761E0
7.012279962E0,-2.751746178E-1,2.007578135E0,8.688339233E0
7.022279962E0,-2.201396823E-1,2.112862349E0,8.461020470E0
7.032279962E0,-2.081755698E-1,2.196611166E0,8.303094864E0
7.042279962E0,-2.727817893E-1,2.254039049E0,8.243273735E0
7.052279962E0,-4.331009090E-1,2.301895380E0,8.276773453E0
7.062279962E0,-7.585247755E-1,2.323430777E0,8.623732567E0
7.072279962E0,-9.092726111E-1,2.246860504E0,8.956335068E0
7.082279962E0,-8.159525394E-1,2.148754835E0,9.355937004E0
7.092279962E0,-6.293123364E-1,2.000399828E0,9.667003632E0
7.102279962E0,-5.024927258E-1,1.864008784E0,9.824930191E0
7.112279962E0,-4.091726840E-1,1.785045743E0,9.839286804E0
7.122279962E0,-4.522434771E-1,1.758724689E0,9.736394882E0
7.132279962E0,-6.699903607E-1,1.770688772E0,9.482755661E0
7.142279962E0,-6.843472719E-1,1.804188251E0,9.425328255E0
7.152279962E0,-6.556333899E-1,1.859223247E0,9.408578873E0
7.162279962E0,-5.742774606E-1,1.911865234E0,9.446864128E0
7.172279962E0,-4.283152521E-1,1.969292998E0,9.597611427E0
7.182279962E0,-3.828516304E-1,2.009970903E0,9.815358162E0
7.192279962E0,-4.498506486E-1,2.055434704E0,1.002114105E1
7.202279962E0,-5.359922647E-1,2.191825628E0,9.824930191E0
7.212279962E0,-5.359922647E-1,2.191825628E0,9.824930191E0
7.222279962E0,-5.359922647E-1,2.191825628E0,9.824930191E0
7.232279962E0,-5.359922647E-1,2.191825628E0,9.824930191E0
7.242279962E0,-6.819544435E-1,1.971685886E0,9.396614075E0
7.252279962E0,-4.977070987E-1,2.026720762E0,9.188439369E0
7.262279962E0,-3.828516304E-1,2.062613010E0,9.004191399E0
7.272279962E0,-3.828516304E-1,2.062613010E0,9.004191399E0
7.282279962E0,-3.828516304E-1,2.062613010E0,9.004191399E0
7.292279962E0,-6.987041831E-1,2.170290232E0,8.872586250E0
7.302279962E0,-9.930213690E-1,2.313859463E0,9.176474571E0
7.312279962E0,-1.069591761E0,2.234896421E0,9.518648148E0
7.322279962E0,-9.332008362E-1,2.160718918E0,9.779465675E0
7.332279962E0,-6.556333899E-1,1.945364833E0,9.968499184E0
7.342279962E0,-6.556333899E-1,1.945364833E0,9.968499184E0
7.352279962E0,1.531406492E-1,1.751546144E0,1.038485050E1
7.362279962E0,1.387837082E-1,1.749153376E0,1.043270683E1
7.372279962E0,4.785645287E-3,1.753939033E0,1.042313576E1
7.382279962E0,-2.656033039E-1,1.808973908E0,1.014796066E1
7.392279962E0,-2.727817893E-1,1.921436548E0,9.798608780E0
7.402279962E0,-1.866401732E-1,2.024327993E0,9.497113228E0
7.412279962E0,-1.938186288E-1,2.098505497E0,9.229117393E0
7.422279962E0,-1.531406492E-1,2.208575249E0,9.207581520E0
7.432279962E0,-1.890329868E-1,2.335394859E0,9.458827972E0
7.442279962E0,-3.493520916E-1,2.333002090E0,9.832108498E0
7.452279962E0,-4.498506486E-1,2.206182480E0,1.020060253E1
7.462279962E0,-4.139583111E-1,2.021935225E0,1.039681435E1
7.472279962E0,-2.249253243E-1,1.794616938E0,1.029870892E1
7.482279962E0,5.264209956E-2,1.663011789E0,9.803394318E0
7.492279962E0,1.363908947E-1,1.660618901E0,9.578469276E0
7.502279962E0,1.004985496E-1,1.653440475E0,9.358329773E0
7.512279962E0,-7.896314561E-2,1.713261008E0,9.052047729E0
7.522279962E0,-2.847459018E-1,1.859223247E0,8.671588898E0
7.532279962E0,-3.900300860E-1,2.036292076E0,8.437092781E0
7.542279962E0,-4.474578202E-1,2.263610125E0,8.336593628E0
7.552279962E0,-4.402793646E-1,2.600998163E0,8.621339798E0
7.562279962E0,-4.354937077E-1,2.636890650E0,9.068798065E0
7.572279962E0,-3.445664644E-1,2.555534601E0,9.621540070E0
7.582279962E0,-1.890329868E-1,2.347358942E0,1.017906761E1
7.592279962E0,-9.332008660E-2,2.129612207E0,1.066002464E1
7.602279962E0,-1.746760458E-1,1.959721804E0,1.102134132E1
7.612279962E0,-3.038884699E-1,1.808973908E0,1.121515942E1
7.622279962E0,-4.474578202E-1,1.524227977E0,1.103569794E1
7.632279962E0,-4.235295951E-1,1.435693622E0,1.064566803E1
7.642279962E0,-2.895315289E-1,1.454836130E0,1.022931671E1
7.652279962E0,-1.411765367E-1,1.490728498E0,9.765109062E0
7.662279962E0,-8.614161611E-2,1.497906923E0,9.320044518E0
7.672279962E0,-2.871387079E-2,1.596012712E0,8.874979019E0
7.682279962E0,-7.417750359E-2,1.818545222E0,8.494520187E0
7.692279962E0,-7.417750359E-2,1.818545222E0,8.494520187E0
7.702279962E0,-7.417750359E-2,1.818545222E0,8.494520187E0
7.712279962E0,-7.417750359E-2,1.818545222E0,8.494520187E0
7.722279962E0,-7.417750359E-2,1.818545222E0,8.494520187E0
7.732279962E0,-2.536391914E-1,2.474178553E0,8.190631866E0
7.742279962E0,-3.732803464E-1,2.392822742E0,8.539983749E0
7.752279962E0,-6.005984545E-1,2.301895380E0,8.877371788E0
7.762279962E0,-6.005984545E-1,2.301895380E0,8.877371788E0
7.772279962E0,-6.005984545E-1,2.301895380E0,8.877371788E0
7.782279962E0,-1.107876897E0,2.127219439E0,1.007856941E1
7.792279962E0,-9.786644578E-1,1.971685886E0,1.034417248E1
7.802279962E0,-8.398807645E-1,1.813759565E0,1.051167011E1
7.812279962E0,-5.790630579E-1,1.698904037E0,1.070309544E1
7.822279962E0,-2.608176768E-1,1.624726534E0,1.082752228E1
7.832279962E0,-2.608176768E-1,1.624726534E0,1.082752228E1
7.842279962E0,-2.608176768E-1,1.624726534E0,1.082752228E1
7.852279962E0,-1.507478207E-1,1.856830359E0,9.422935486E0
7.862279962E0,-2.105683982E-1,1.899901152E0,8.946763992E0
7.872279962E0,-2.584248483E-1,1.928615093E0,8.618947029E0
7.882279962E0,-2.799602449E-1,2.012363911E0,8.372486115E0
7.892279962E0,-3.493520916E-1,2.172683001E0,8.185846329E0
7.902279962E0,-3.493520916E-1,2.172683001E0,8.185846329E0
7.912279962E0,-5.000999570E-1,2.297109842E0,8.757730484E0
7.922279962E0,-3.876372576E-1,2.311466694E0,9.267401695E0
7.932279962E0,-3.373879790E-1,2.292324066E0,9.676574707E0
7.942279962E0,-2.297109663E-1,2.199003935E0,1.003071213E1
7.952279962E0,-1.028913707E-1,2.048256159E0,1.039202881E1
7.962279962E0,-4.067798331E-2,1.880758643E0,1.064806080E1
7.972279962E0,-1.196411345E-2,1.660618901E0,1.062891865E1
7.982279962E0,-1.339980662E-1,1.658226132E0,1.054277611E1
7.992279962E0,-3.326023519E-1,1.658226132E0,1.035613632E1
8.002279962E0,-3.517449200E-1,1.670190215E0,1.011924744E1
8.002279962E0,-3.517449200E-1,1.670190215E0,1.011924744E1
8.022279962E0,-8.853443712E-2,1.679761529E0,9.415757179E0
8.032279962E0,-5.742774159E-2,1.801795483E0,9.260223389E0
8.042279962E0,-1.531406492E-1,1.998006940E0,9.073583603E0
8.052279962E0,3.110669367E-2,2.055434704E0,8.980263710E0
8.062279962E0,5.742774159E-2,2.108076811E0,8.836693764E0
8.072279962E0,7.178467698E-3,2.127219439E0,8.855836868E0
8.082279962E0,-1.052841991E-1,2.134397745E0,8.968298912E0
8.092279962E0,-2.967100143E-1,2.120040894E0,9.049654961E0
8.102279962E0,-4.235295951E-1,2.117648125E0,9.121439934E0
8.112279962E0,-3.445664644E-1,2.167897224E0,9.454042435E0
8.122279962E0,-3.948157430E-1,2.088934183E0,9.729216576E0
8.132279962E0,-4.761717021E-1,2.043470621E0,9.980463028E0
8.142279962E0,-5.000999570E-1,2.007578135E0,1.019820976E1
8.152279962E0,-4.354937077E-1,1.935793519E0,1.033938694E1
8.162279962E0,-3.517449200E-1,1.792224169E0,1.037049294E1
8.172279962E0,-2.703889608E-1,1.629512191E0,1.013599682E1
8.182279962E0,-2.703889608E-1,1.629512191E0,1.013599682E1
8.192279962E0,-2.703889608E-1,1.629512191E0,1.013599682E1
8.202279962E0,-2.703889608E-1,1.629512191E0,1.013599682E1
8.212279962E0,-2.703889608E-1,1.629512191E0,1.013599682E1
8.222279962E0,-3.493520916E-1,1.940579176E0,8.752944946E0
8.232279962E0,-5.982056856E-1,2.067398787E0,8.575876236E0
8.242279962E0,-6.747759581E-1,2.165504456E0,8.453842163E0
8.252279962E0,-6.747759581E-1,2.165504456E0,8.453842163E0
8.262279962E0,-6.747759581E-1,2.165504456E0,8.453842163E0
8.272279962E0,-6.747759581E-1,2.165504456E0,8.453842163E0
8.282279962E0,-1.914258152E-1,1.854437590E0,8.930013657E0
8.292279962E0,-1.028913707E-1,1.818545222E0,9.023334503E0
8.302279962E0,-8.853443712E-2,1.883151412E0,9.056833267E0
8.312279962E0,-1.890329868E-1,1.933400750E0,9.049654961E0
8.322279962E0,-1.890329868E-1,1.933400750E0,9.049654961E0
8.332279962E0,-1.890329868E-1,1.933400750E0,9.049654961E0
8.342279962E0,-6.460621357E-1,1.978864312E0,9.858428955E0
8.352279962E0,-6.317051649E-1,1.959721804E0,1.004746246E1
8.362279962E0,-4.953143001E-1,1.974078655E0,1.017906761E1
8.372279962E0,-4.235295951E-1,2.029113531E0,1.026520920E1
8.382279962E0,-5.000999570E-1,2.079362869E0,1.027717304E1
8.392279962E0,-5.000999570E-1,2.079362869E0,1.027717304E1
8.402279962E0,-1.148554832E-1,1.777867198E0,1.031067276E1
8.412279962E0,1.411765367E-1,1.672582984E0,1.017906761E1
8.422279962E0,3.230310678E-1,1.627119422E0,9.975677490E0
8.432279962E0,3.565305769E-1,1.579262972E0,9.678967476E0
8.442279962E0,2.919243574E-1,1.605584025E0,9.339186668E0
8.452279962E0,1.890329868E-1,1.696511269E0,9.083154678E0
8.462279962E0,-4.067798331E-2,1.978864312E0,8.587840080E0
8.472279962E0,-1.076770201E-1,2.067398787E0,8.499305725E0
8.482279962E0,-1.172483116E-1,2.163111687E0,8.511270523E0
8.492279962E0,-1.172483116E-1,2.163111687E0,8.511270523E0
8.502279962E0,-1.052841991E-1,2.242074728E0,8.860622406E0
8.512279962E0,-9.332008660E-2,2.189432621E0,9.145368576E0
8.522279962E0,4.785645381E-2,2.165504456E0,9.363115311E0
8.532279962E0,-2.632104978E-2,2.067398787E0,9.643074989E0
8.542279962E0,-1.100698411E-1,1.962114573E0,9.812965393E0
8.552279962E0,-2.105683982E-1,1.921436548E0,1.000199890E1
8.562279962E0,-2.967100143E-1,1.983649969E0,1.016710377E1
8.572279962E0,-3.469592929E-1,2.055434704E0,1.027956581E1
8.582279962E0,-2.847459018E-1,2.033899307E0,1.039442158E1
8.592279962E0,-2.560320199E-1,1.966900229E0,1.054277611E1
8.602279962E0,-5.072783828E-1,1.916650891E0,1.067677498E1
8.612279962E0,-6.771687865E-1,1.878365755E0,1.065045357E1
8.622279962E0,-5.383850932E-1,1.813759565E0,1.060259724E1
8.632279962E0,-1.770688742E-1,1.739582062E0,1.050688457E1
8.642279962E0,1.172483116E-1,1.720439434E0,1.028913784E1
8.652279962E0,3.278166950E-1,1.749153376E0,9.911071777E0
8.662279962E0,4.163511395E-1,1.789831281E0,9.449256897E0
8.672279962E0,4.163511395E-1,1.789831281E0,9.449256897E0
8.682279962E0,4.163511395E-1,1.789831281E0,9.449256897E0
8.692279962E0,4.163511395E-1,1.789831281E0,9.449256897E0
8.702279962E0,-3.397808075E-1,2.421536446E0,7.298109055E0
8.712279962E0,-4.594219327E-1,2.529213428E0,7.542177200E0
8.722279962E0,-3.972085714E-1,2.541177750E0,8.023134232E0
8.732279962E0,-3.134597540E-1,2.455035925E0,8.638090134E0
8.742279962E0,-3.134597540E-1,2.455035925E0,8.638090134E0
8.752279962E0,-3.134597540E-1,2.455035925E0,8.638090134E0
8.762279962E0,-4.283152521E-1,1.873580098E0,1.068634605E1
8.772279962E0,-4.307080805E-1,1.751546144E0,1.094955635E1
8.782279962E0,-3.684946895E-1,1.639083505E0,1.101177025E1
8.792279962E0,-2.703889608E-1,1.524227977E0,1.086102200E1
8.802279962E0,-1.507478207E-1,1.531406522E0,1.049970531E1
8.812279962E0,-1.507478207E-1,1.531406522E0,1.049970531E1
8.822279962E0,-4.546362907E-2,1.749153376E0,9.202795982E0
8.832279962E0,-2.703889608E-1,1.694118381E0,8.891729355E0
8.842279962E0,-3.206382394E-1,1.849651933E0,8.592626572E0
8.852279962E0,-4.761717021E-1,2.084148407E0,8.451449394E0
8.862279962E0,-4.283152521E-1,2.254039049E0,8.439485550E0
8.872279962E0,-8.135596663E-2,2.368894339E0,8.563912392E0
8.882279962E0,2.081755698E-1,2.383251429E0,8.896514893E0
8.892279962E0,2.464607358E-1,2.325823545E0,9.020941734E0
8.902279962E0,9.092725813E-2,2.225325108E0,9.049654961E0
8.912279962E0,-1.268195957E-1,2.103291035E0,8.977870941E0
8.922279962E0,-3.876372576E-1,1.988435626E0,8.918049812E0
8.932279962E0,-6.604190469E-1,1.909472466E0,8.946763992E0
8.942279962E0,-6.604190469E-1,1.935793519E0,9.071190834E0
8.952279962E0,1.674975827E-2,2.151147604E0,9.456435204E0
8.962279962E0,2.464607358E-1,2.136790514E0,9.547362328E0
8.972279962E0,2.823530734E-1,2.048256159E0,9.662218094E0
8.982279962E0,2.344966233E-1,2.026720762E0,9.753145218E0
8.992279962E0,-4.785645381E-2,2.060220242E0,9.700503349E0
9.002279962E0,-3.182454109E-1,2.050648928E0,9.688538551E0
9.012279962E0,-5.527420044E-1,2.026720762E0,9.762716293E0
9.022279962E0,-4.307080805E-1,1.904686809E0,9.973284721E0
9.032279962E0,1.196411345E-2,1.914258122E0,9.856036186E0
9.042279962E0,4.187439680E-1,1.914258122E0,9.365508080E0
9.052279962E0,4.187439680E-1,1.914258122E0,9.365508080E0
9.062279962E0,9.571290761E-2,1.792224169E0,9.707681656E0
9.072279962E0,-3.230310678E-1,1.966900229E0,9.657432556E0
9.082279962E0,-5.694918036E-1,2.167897224E0,9.463613510E0
9.092279962E0,-5.694918036E-1,2.167897224E0,9.463613510E0
9.102279962E0,-5.694918036E-1,2.167897224E0,9.463613510E0
9.112279962E0,-5.694918036E-1,2.167897224E0,9.463613510E0
9.122279962E0,3.134597540E-1,2.060220242E0,9.439684868E0
9.132279962E0,5.527420044E-1,2.014756680E0,9.298508644E0
9.142279962E0,5.575276613E-1,1.983649969E0,9.131011009E0
9.152279962E0,3.326023519E-1,1.998006940E0,8.930013657E0
9.162279962E0,-2.823530734E-1,2.275574446E0,8.556734085E0
9.172279962E0,-5.407779217E-1,2.380858421E0,8.420342445E0
9.182279962E0,-7.322037220E-1,2.390429735E0,8.389236450E0
9.192279962E0,-7.082754970E-1,2.390429735E0,8.602197647E0
9.202279962E0,-5.790630579E-1,2.301895380E0,9.040083885E0
9.212279962E0,-4.283152521E-1,2.091326952E0,9.544969559E0
9.222279962E0,-2.632105052E-1,1.842473388E0,1.003310490E1
9.232279962E0,2.464607358E-1,1.677368641E0,1.049731255E1
9.242279962E0,3.469592929E-1,1.710868239E0,1.035374355E1
9.252279962E0,7.657032460E-2,1.672582984E0,1.002831936E1
9.262279962E0,-1.196411327E-1,1.694118381E0,9.533005714E0
9.272279962E0,5.982056633E-2,1.780260086E0,9.064012527E0
9.282279962E0,2.871387079E-2,1.763510346E0,8.630910873E0
9.292279962E0,-3.254238665E-1,1.686939955E0,8.480163574E0
9.302279962E0,-3.852444589E-1,1.890329838E0,8.348558426E0
9.312279962E0,-9.332008660E-2,1.954936147E0,8.492127419E0
9.322279962E0,1.842473447E-1,2.021935225E0,8.918049812E0
9.332279962E0,2.009970993E-1,2.136790514E0,9.456435204E0
9.342279962E0,2.009970993E-1,2.136790514E0,9.456435204E0
9.352279962E0,1.172483116E-1,2.187039852E0,1.029392338E1
9.362279962E0,1.316052526E-1,2.031506538E0,1.041356373E1
9.372279962E0,-3.230310678E-1,1.684547186E0,1.026281643E1
9.382279962E0,-3.230310678E-1,1.684547186E0,1.026281643E1
9.392279962E0,-3.230310678E-1,1.684547186E0,1.026281643E1
9.402279962E0,-3.684946895E-1,1.639083505E0,9.970891953E0
9.412279962E0,-2.416750938E-1,1.665404558E0,9.942177773E0
9.422279962E0,-1.435693651E-1,1.715653777E0,1.001635551E1
9.432279962E0,-1.435693651E-1,1.715653777E0,1.001635551E1
9.442279962E0,-1.435693651E-1,1.715653777E0,1.001635551E1
9.452279962E0,-1.435693651E-1,1.715653777E0,1.001635551E1
9.462279962E0,-1.435693651E-1,1.715653777E0,1.001635551E1
9.472279962E0,-2.249253243E-1,1.861616015E0,9.370293617E0
9.482279962E0,-2.512463629E-1,1.873580098E0,9.095118523E0
9.492279962E0,-2.009970993E-1,1.885544300E0,8.901300430E0
9.502279962E0,-2.009970993E-1,1.885544300E0,8.901300430E0
9.512279962E0,6.939185411E-2,1.794616938E0,9.315258980E0
9.512279962E0,6.939185411E-2,1.794616938E0,9.315258980E0
9.532279962E0,-1.148554832E-1,1.928615093E0,9.894321442E0
9.542279962E0,-6.699903309E-2,1.868794441E0,1.012164021E1
9.552279962E0,-2.392822644E-3,1.773081541E0,1.028435135E1
9.562279962E0,4.785645287E-3,1.741974831E0,1.039202881E1
9.572279962E0,2.177468538E-1,1.646261930E0,1.028913784E1
9.582279962E0,3.397808075E-1,1.615155339E0,1.014078236E1
9.592279962E0,4.235295951E-1,1.646261930E0,1.003789139E1
9.602279962E0,3.326023519E-1,1.708475351E0,9.982855797E0
9.612279962E0,1.603191197E-1,1.825723648E0,9.891928673E0
9.622279962E0,-4.785645381E-2,1.916650891E0,9.774680138E0
9.632279962E0,-2.009970993E-1,1.974078655E0,9.623932838E0
9.642279962E0,-3.876372576E-1,1.875972986E0,9.444471359E0
9.652279962E0,-1.890329868E-1,1.820937991E0,9.506684303E0
9.662279962E0,1.674975827E-2,1.818545222E0,9.604789734E0
9.672279962E0,4.785645381E-2,1.789831281E0,9.609575272E0
9.682279962E0,5.264209956E-2,1.770688772E0,9.506684303E0
9.692279962E0,4.546362907E-2,1.773081541E0,9.403793335E0
9.702279962E0,-3.828516230E-2,1.780260086E0,9.288937569E0
9.712279962E0,-3.589234129E-2,1.911865234E0,8.724231720E0
9.722279962E0,-1.220339537E-1,1.945364833E0,8.389236450E0
9.732279962E0,-2.057827413E-1,2.002792597E0,8.118846893E0
9.742279962E0,-2.153540403E-1,2.048256159E0,7.884350777E0
9.752279962E0,-1.746760458E-1,2.069791555E0,7.764709473E0
9.762279962E0,2.153540403E-2,2.184647083E0,7.905886173E0
9.772279962E0,-1.435693540E-2,2.318645239E0,8.126026154E0
9.782279962E0,-3.038884699E-1,2.222932339E0,8.970691681E0
9.792279962E0,-3.445664644E-1,2.275574446E0,9.427721024E0
9.802279962E0,-3.732803464E-1,2.100898266E0,1.003549862E1
9.812279962E0,-2.751746178E-1,1.954936147E0,1.048534870E1
9.822279962E0,-1.148554832E-1,1.818545222E0,1.072702408E1
9.832279962E0,2.321037948E-1,1.639083505E0,1.067438221E1
9.842279962E0,1.722832322E-1,1.701296926E0,1.058345413E1
9.852279962E0,-1.196411327E-1,1.916650891E0,9.745966911E0
9.862279962E0,-1.196411327E-1,1.916650891E0,9.745966911E0
9.872279962E0,-2.057827413E-1,2.031506538E0,8.788837433E0
9.882279962E0,-2.129612118E-1,2.167897224E0,8.434700012E0
9.892279962E0,-1.339980662E-1,2.325823545E0,8.214560509E0
9.902279962E0,-1.196411345E-2,2.392822742E0,8.176275253E0
9.912279962E0,-1.196411345E-2,2.392822742E0,8.176275253E0
9.922279962E0,-1.196411345E-2,2.392822742E0,8.176275253E0
9.932279962E0,-1.196411345E-2,2.392822742E0,8.176275253E0
9.942279962E0,-1.196411345E-2,2.392822742E0,8.176275253E0
9.952279962E0,-1.196411345E-2,2.392822742E0,8.176275253E0
9.962279962E0,-3.445664644E-1,1.959721804E0,9.533005714E0
9.972279962E0,-2.177468538E-1,1.866401672E0,9.561718941E0
9.982279962E0,-1.244267747E-1,1.840080619E0,9.607182503E0
9.992279962E0,-1.244267747E-1,1.840080619E0,9.607182503E0
1.000227996E1,-1.244267747E-1,1.840080619E0,9.607182503E0
1.001227996E1,-1.244267747E-1,1.840080619E0,9.607182503E0
1.002227996E1,-8.374879509E-2,2.187039852E0,9.772287369E0
1.003227996E1,-1.555334777E-1,2.177468538E0,9.757930756E0
1.004227996E1,-1.698904037E-1,2.153540373E0,9.683753014E0
1.005227996E1,-7.896314561E-2,2.132004976E0,9.609575272E0
1.006227996E1,-7.896314561E-2,2.132004976E0,9.609575272E0
1.007227996E1,-7.896314561E-2,2.132004976E0,9.609575272E0
1.008227996E1,4.067798331E-2,2.148754835E0,9.442078590E0
1.009227996E1,-2.584248483E-1,2.081755638E0,9.444471359E0
1.010227996E1,-3.349951804E-1,2.151147604E0,9.243474007E0
1.011227996E1,-4.139583111E-1,2.299502611E0,9.085547447E0
1.012227996E1,-4.857429862E-1,2.304288149E0,9.090332985E0
1.013227996E1,-1.387837082E-1,2.103291035E0,9.506684303E0
1.014227996E1,-1.890329868E-1,2.017149448E0,9.698110580E0
1.015227996E1,-8.374879509E-2,2.029113531E0,9.856036186E0
1.016227996E1,7.657032460E-2,1.950150490E0,9.891928673E0
1.017227996E1,1.339980662E-1,1.861616015E0,9.891928673E0
1.018227996E1,8.614161611E-2,1.887937069E0,9.824930191E0
1.019227996E1,3.589234129E-2,1.995614052E0,9.645467758E0
1.020227996E1,-2.392822690E-2,2.182254314E0,9.150154114E0
1.021227996E1,-2.392822644E-3,2.194218397E0,8.937192917E0
1.022227996E1,-1.339980662E-1,2.213361025E0,8.740981102E0
1.023227996E1,-2.632105052E-1,2.316252232E0,8.678768158E0
1.024227996E1,-3.756731451E-1,2.414358139E0,8.755337715E0
1.025227996E1,-4.570291340E-1,2.426322222E0,8.922835350E0
1.026227996E1,-4.642075896E-1,2.330609322E0,9.238688469E0
1.027227996E1,-3.708875179E-1,2.158325911E0,1.013838959E1
1.028227996E1,-2.512463629E-1,2.108076811E0,1.047817039E1
1.029227996E1,-1.627119333E-1,2.060220242E0,1.066241741E1
1.030227996E1,-7.417750359E-2,2.019542217E0,1.060020447E1
1.031227996E1,9.571290575E-3,2.019542217E0,1.032024384E1
1.032227996E1,-2.392822644E-3,2.057827473E0,9.942177773E0
1.033227996E1,-6.699903309E-2,2.100898266E0,9.499505997E0
1.034227996E1,2.392822644E-3,2.201396942E0,8.740981102E0
1.035227996E1,3.828516230E-2,2.175075769E0,8.532805443E0
1.036227996E1,1.124626622E-1,2.184647083E0,8.475378036E0
1.037227996E1,1.866401732E-1,2.287538528E0,8.542376518E0
1.038227996E1,9.810572863E-2,2.392822742E0,8.752944946E0
1.039227996E1,-6.939185411E-2,2.469393015E0,9.037691116E0
1.040227996E1,-1.555334777E-1,2.505285263E0,9.375079155E0
1.041227996E1,-1.555334777E-1,2.505285263E0,9.375079155E0
1.042227996E1,-1.555334777E-1,2.505285263E0,9.375079155E0
1.043227996E1,-1.555334777E-1,2.505285263E0,9.375079155E0
1.044227996E1,-2.871387303E-1,2.172683001E0,1.026760197E1
1.045227996E1,-3.517449200E-1,2.086541414E0,1.060499001E1
1.046227996E1,-2.321037948E-1,2.012363911E0,1.099501991E1
1.047227996E1,-1.866401732E-1,1.966900229E0,1.102612686E1
1.048227996E1,-1.866401732E-1,1.966900229E0,1.102612686E1
1.049227996E1,-1.866401732E-1,1.966900229E0,1.102612686E1
1.050227996E1,-1.866401732E-1,1.966900229E0,1.102612686E1
1.051227996E1,-9.810572863E-2,1.969292998E0,1.000439167E1
1.052227996E1,-9.092725813E-2,2.009970903E0,9.614361763E0
1.053227996E1,2.153540403E-2,2.031506538E0,9.245866776E0
1.054227996E1,1.555334777E-1,2.019542217E0,8.989834785E0
1.055227996E1,1.555334777E-1,2.019542217E0,8.989834785E0
1.056227996E1,1.555334777E-1,2.019542217E0,8.989834785E0
1.057227996E1,3.158525825E-1,2.490928411E0,8.157132149E0
1.058227996E1,1.507478207E-1,2.548356056E0,8.145168304E0
1.059227996E1,-7.417750359E-2,2.596212626E0,8.207381248E0
1.060227996E1,-2.536391914E-1,2.653640270E0,8.367700577E0
1.061227996E1,-2.919243574E-1,2.684746981E0,8.518448830E0
1.062227996E1,-2.919243574E-1,2.684746981E0,8.518448830E0
1.063227996E1,5.982056633E-2,2.447857618E0,9.401400566E0
1.064227996E1,-1.435693651E-1,2.467000246E0,9.844072342E0
1.065227996E1,-5.742774159E-2,2.469393015E0,1.015274620E1
1.066227996E1,-1.579262912E-1,2.428714991E0,1.038724327E1
1.067227996E1,-1.890329868E-1,2.268395901E0,1.052124119E1
1.068227996E1,-1.196411345E-2,2.158325911E0,1.046620655E1
1.069227996E1,3.014956415E-1,2.213361025E0,9.946963310E0
1.070227996E1,2.297109663E-1,2.299502611E0,9.702896118E0
1.071227996E1,8.135596663E-2,2.359323025E0,9.437292099E0
1.072227996E1,-2.392822690E-2,2.447857618E0,9.224330902E0
1.073227996E1,-6.460621208E-2,2.526820660E0,9.054440498E0
1.074227996E1,-1.052841991E-1,2.562713146E0,8.956335068E0
1.075227996E1,-1.579262912E-1,2.538784742E0,8.961120605E0
1.076227996E1,2.033899277E-1,2.478964329E0,9.169296265E0
1.077227996E1,3.565305769E-1,2.423929453E0,9.209974289E0
1.078227996E1,3.876372576E-1,2.438286304E0,9.178867340E0
1.079227996E1,3.110669553E-1,2.474178553E0,9.131011009E0
1.080227996E1,9.092725813E-2,2.517249346E0,9.040083885E0
1.081227996E1,-1.914258115E-2,2.550748825E0,8.886942863E0
1.082227996E1,2.392822644E-3,2.591426849E0,8.817551613E0
1.083227996E1,9.571290575E-3,2.636890650E0,9.032905579E0
1.084227996E1,-3.110669367E-2,2.648854733E0,9.241081238E0
1.085227996E1,-7.657032460E-2,2.615355253E0,9.449256897E0
1.086227996E1,-1.196411327E-1,2.543570518E0,9.635896683E0
1.087227996E1,-1.339980662E-1,2.498106956E0,9.846465111E0
1.088227996E1,-1.244267747E-1,2.452643156E0,9.942177773E0
1.089227996E1,-1.196411345E-2,2.411965132E0,9.901499748E0
1.090227996E1,1.531406492E-1,2.316252232E0,9.482755661E0
1.091227996E1,3.349951655E-2,2.378465652E0,9.162117958E0
1.092227996E1,-6.460621208E-2,2.416750908E0,8.898907661E0
1.093227996E1,-1.459621787E-1,2.433500528E0,8.681160927E0
1.094227996E1,-1.531406492E-1,2.543570518E0,8.458627701E0
1.095227996E1,-1.292124242E-1,2.656033039E0,8.233702660E0
1.096227996E1,-7.896314561E-2,2.804388046E0,8.068597794E0
1.097227996E1,-2.297109663E-1,2.998206854E0,8.059026718E0
1.098227996E1,-2.488535494E-1,2.981456995E0,8.226524353E0
1.099227996E1,-2.991028428E-1,2.914458036E0,8.635697365E0
1.100227996E1,-2.895315289E-1,2.868994236E0,9.111868858E0
1.101227996E1,-3.326023519E-1,2.857030153E0,9.600004196E0
1.102227996E1,-3.684946895E-1,2.744567633E0,1.002353382E1
1.103227996E1,-2.919243574E-1,2.560320139E0,1.030110168E1
1.104227996E1,-2.919243574E-1,2.560320139E0,1.030110168E1
1.105227996E1,-2.919243574E-1,2.560320139E0,1.030110168E1
1.106227996E1,-2.919243574E-1,2.560320139E0,1.030110168E1
1.107227996E1,-2.919243574E-1,2.560320139E0,1.030110168E1
1.108227996E1,3.589234054E-1,2.440679073E0,9.621540070E0
1.109227996E1,2.823530734E-1,2.555534601E0,9.181260109E0
1.110227996E1,2.799602449E-1,2.636890650E0,8.755337715E0
1.111227996E1,2.799602449E-1,2.636890650E0,8.755337715E0
1.112227996E1,2.799602449E-1,2.636890650E0,8.755337715E0
1.113227996E1,2.799602449E-1,2.636890650E0,8.755337715E0
1.114227996E1,-3.421736360E-1,2.986242771E0,8.245666504E0
1.115227996E1,-2.847459018E-1,2.955136061E0,8.587840080E0
1.116227996E1,-1.292124242E-1,2.835494757E0,8.910871506E0
1.117227996E1,4.785645287E-3,2.708675146E0,9.257830620E0
1.118227996E1,4.785645287E-3,2.708675146E0,9.257830620E0
1.119227996E1,-1.028913707E-1,2.459821701E0,9.724431038E0
1.120227996E1,-1.507478207E-1,2.467000246E0,9.710074425E0
1.121227996E1,-1.603191197E-1,2.531606436E0,9.705288887E0
1.122227996E1,-1.028913707E-1,2.553141832E0,9.710074425E0
1.123227996E1,-1.196411345E-2,2.483749866E0,9.748359680E0
1.124227996E1,1.316052526E-1,2.411965132E0,9.868000984E0
1.125227996E1,2.703889608E-1,2.359323025E0,1.001156998E1
1.126227996E1,3.756731451E-1,2.416750908E0,9.891928673E0
1.127227996E1,3.924229145E-1,2.593819857E0,9.650253296E0
1.128227996E1,2.512463629E-1,2.746960402E0,9.420542717E0
1.129227996E1,1.914258115E-2,2.816352367E0,9.219545364E0
1.130227996E1,-8.135596663E-2,2.818745136E0,8.975478172E0
1.131227996E1,-2.153540403E-2,2.766103029E0,8.784051895E0
1.132227996E1,4.307080805E-2,2.646461725E0,8.518448830E0
1.133227996E1,7.896314561E-2,2.610569477E0,8.568697929E0
1.134227996E1,9.092725813E-2,2.629712105E0,8.729017258E0
1.135227996E1,5.503492057E-2,2.636890650E0,8.999405861E0
1.136227996E1,1.914258115E-2,2.682354212E0,9.370293617E0
1.137227996E1,-3.349951655E-2,2.711068153E0,9.755537987E0
1.138227996E1,-4.785645381E-2,2.677568436E0,1.008574772E1
1.139227996E1,7.178467698E-3,2.457428932E0,1.036092186E1
1.140227996E1,8.135596663E-2,2.356930256E0,1.025563812E1
1.141227996E1,9.092725813E-2,2.301895380E0,9.954142570E0
1.142227996E1,1.148554832E-1,2.311466694E0,9.533005714E0
1.143227996E1,1.363908947E-1,2.421536446E0,9.102297783E0
1.144227996E1,1.387837082E-1,2.543570518E0,8.803194046E0
1.145227996E1,1.172483116E-1,2.696711063E0,8.690732002E0
1.146227996E1,-3.349951655E-2,2.845066071E0,8.915657043E0
1.147227996E1,1.196411345E-2,2.830709219E0,9.233902931E0
1.148227996E1,-2.871387079E-2,2.730210543E0,9.664610863E0
1.149227996E1,-5.264209956E-2,2.581855536E0,1.009771156E1
1.150227996E1,6.699903309E-2,2.483749866E0,1.036570740E1
1.151227996E1,1.555334777E-1,2.361716032E0,1.049731255E1
1.152227996E1,1.411765367E-1,2.244467735E0,1.055474091E1
1.153227996E1,2.081755698E-1,2.112862349E0,1.032024384E1
1.154227996E1,3.014956415E-1,2.210968018E0,1.003789139E1
1.155227996E1,3.014956415E-1,2.210968018E0,1.003789139E1
1.156227996E1,3.014956415E-1,2.210968018E0,1.003789139E1
1.157227996E1,3.278166950E-1,2.567498684E0,8.980263710E0
1.158227996E1,3.637090325E-1,2.545963287E0,8.697910309E0
1.159227996E1,1.986042857E-1,2.531606436E0,8.542376518E0
1.160227996E1,1.986042857E-1,2.531606436E0,8.542376518E0
1.161227996E1,1.986042857E-1,2.531606436E0,8.542376518E0
1.162227996E1,1.986042857E-1,2.531606436E0,8.542376518E0
1.163227996E1,2.392822690E-2,2.565105915E0,9.399007797E0
1.164227996E1,-4.785645381E-2,2.608176708E0,9.695717812E0
1.165227996E1,-7.178467698E-3,2.598605394E0,9.846465111E0
1.166227996E1,9.332008660E-2,2.529213428E0,9.901499748E0
1.167227996E1,9.332008660E-2,2.529213428E0,9.901499748E0
1.168227996E1,9.332008660E-2,2.529213428E0,9.901499748E0
1.169227996E1,-1.292124242E-1,2.617748022E0,9.377471924E0
1.170227996E1,-7.896314561E-2,2.550748825E0,9.255437851E0
1.171227996E1,-3.110669367E-2,2.450250387E0,9.119047165E0
1.172227996E1,4.067798331E-2,2.400001049E0,9.097511292E0
1.173227996E1,-2.632104978E-2,2.376072884E0,9.284152031E0
1.174227996E1,-2.632104978E-2,2.376072884E0,9.284152031E0
1.175227996E1,-2.632104978E-2,2.376072884E0,9.284152031E0
1.176227996E1,-2.871387079E-2,2.464607239E0,1.002831936E1
1.177227996E1,-5.503492057E-2,2.335394859E0,1.001396275E1
1.178227996E1,5.024927482E-2,2.423929453E0,9.999606133E0
1.179227996E1,1.028913707E-1,2.586641312E0,9.793823242E0
1.180227996E1,3.828516230E-2,2.612962246E0,9.322437286E0
1.181227996E1,3.349951655E-2,2.589034081E0,8.707481384E0
1.182227996E1,4.785645381E-2,2.629712105E0,8.480163574E0
1.183227996E1,-4.546362907E-2,2.699103832E0,8.504091263E0
1.184227996E1,-1.770688742E-1,2.756531715E0,8.664410591E0
1.185227996E1,-1.387837082E-1,2.723032236E0,8.920442581E0
1.186227996E1,-4.785645381E-2,2.646461725E0,9.205188751E0
1.187227996E1,7.178467698E-3,2.481357098E0,9.135796547E0
1.188227996E1,2.632104978E-2,2.218146563E0,1.005703354E1
1.189227996E1,1.244267747E-1,2.385644197E0,1.000917721E1
1.190227996E1,2.392822644E-3,2.474178553E0,9.884750366E0
1.191227996E1,1.268195957E-1,2.371287346E0,9.767501831E0
1.192227996E1,1.962114573E-1,2.244467735E0,9.566504478E0
1.193227996E1,1.244267747E-1,2.222932339E0,9.410971642E0
1.194227996E1,2.153540403E-2,2.220539331E0,9.260223389E0
1.195227996E1,-7.178468257E-2,2.522035122E0,9.186046600E0
1.196227996E1,-2.632104978E-2,2.536391973E0,9.372686386E0
1.197227996E1,1.914258115E-2,2.531606436E0,9.600004196E0
1.198227996E1,-3.110669367E-2,2.495713949E0,9.832108498E0
1.199227996E1,-1.244267747E-1,2.445464849E0,1.007378292E1
1.200227996E1,-2.392822690E-2,2.335394859E0,1.020778179E1
1.201227996E1,9.092725813E-2,2.210968018E0,1.015992451E1
1.202227996E1,3.828516230E-2,2.244467735E0,9.879964828E0
1.203227996E1,2.153540403E-2,2.306680918E0,9.583254814E0
1.204227996E1,6.939185411E-2,2.402393818E0,9.207581520E0
1.205227996E1,1.004985496E-1,2.481357098E0,8.858229637E0
1.206227996E1,1.914258152E-1,2.550748825E0,8.499305725E0
1.207227996E1,2.273181528E-1,2.624926329E0,8.123632431E0
1.208227996E1,1.124626622E-1,2.730210543E0,7.903493404E0
1.209227996E1,-2.967100143E-1,2.861815929E0,8.006384850E0
1.210227996E1,-2.871387303E-1,2.830709219E0,8.310273170E0
1.211227996E1,-2.488535494E-1,2.746960402E0,8.743373871E0
1.212227996E1,-3.397808075E-1,2.610569477E0,9.255437851E0
1.213227996E1,-3.565305769E-1,2.366501570E0,9.734002113E0
1.214227996E1,-2.943171859E-1,2.141576290E0,1.018146038E1
1.215227996E1,-1.411765367E-1,2.033899307E0,1.046620655E1
1.216227996E1,-1.411765367E-1,2.033899307E0,1.046620655E1
1.217227996E1,-1.411765367E-1,2.033899307E0,1.046620655E1
1.218227996E1,-1.435693651E-1,2.344966173E0,9.286544800E0
1.219227996E1,-2.129612118E-1,2.435893536E0,8.755337715E0
1.220227996E1,-2.033899277E-1,2.574677229E0,8.312665939E0
1.221227996E1,-1.363908947E-1,2.675175667E0,8.032705307E0
1.222227996E1,-1.028913707E-1,2.711068153E0,7.968099594E0
1.223227996E1,-1.028913707E-1,2.711068153E0,7.968099594E0
1.224227996E1,-1.028913707E-1,2.543570518E0,8.987442017E0
1.225227996E1,-9.092725813E-2,2.385644197E0,9.427721024E0
1.226227996E1,-1.052841991E-1,2.316252232E0,9.817750931E0
1.227227996E1,-2.201396823E-1,2.251646042E0,1.015753174E1
1.228227996E1,-3.086741269E-1,2.184647083E0,1.024845982E1
1.229227996E1,-2.536391914E-1,2.048256159E0,1.011685371E1
1.230227996E1,9.092725813E-2,2.012363911E0,9.528220177E0
1.231227996E1,2.512463629E-1,2.100898266E0,9.162117958E0
1.232227996E1,4.091726840E-1,2.182254314E0,8.755337715E0
1.233227996E1,4.618147612E-1,2.316252232E0,8.350951195E0
1.234227996E1,4.498506486E-1,2.462214470E0,8.063812256E0
1.235227996E1,1.890329868E-1,2.565105915E0,7.934599876E0
1.236227996E1,-1.268195957E-1,2.687139750E0,7.970492363E0
1.237227996E1,-4.115654826E-1,2.718246460E0,8.501698494E0
1.238227996E1,-4.115654826E-1,2.622533560E0,8.937192917E0
1.239227996E1,-3.110669553E-1,2.450250387E0,9.410971642E0
1.240227996E1,-1.842473447E-1,2.316252232E0,9.796216011E0
1.241227996E1,-1.244267747E-1,2.208575249E0,1.010010433E1
1.242227996E1,-1.411765367E-1,2.148754835E0,1.032981491E1
1.243227996E1,-1.842473447E-1,2.100898266E0,1.042074299E1
1.244227996E1,-2.895315289E-1,2.151147604E0,1.027238750E1
1.245227996E1,-2.799602449E-1,2.172683001E0,1.009531879E1
1.246227996E1,-2.608176768E-1,2.201396942E0,9.927821159E0
1.247227996E1,-2.273181528E-1,2.201396942E0,9.829715729E0
1.248227996E1,-7.417750359E-2,2.172683001E0,9.786644936E0
1.249227996E1,1.004985496E-1,2.155933142E0,9.760323524E0
1.250227996E1,1.387837082E-1,2.120040894E0,9.779465675E0
1.251227996E1,2.368894368E-1,2.141576290E0,9.655039787E0
1.252227996E1,2.057827413E-1,2.165504456E0,9.528220177E0
1.253227996E1,1.220339537E-1,2.167897224E0,9.375079155E0
1.254227996E1,7.178467698E-3,2.182254314E0,9.229117393E0
1.255227996E1,-5.024927482E-2,2.232503414E0,9.097511292E0
1.256227996E1,-2.632104978E-2,2.325823545E0,9.061619759E0
1.257227996E1,1.004985496E-1,2.325823545E0,9.303294182E0
1.258227996E1,2.201396823E-1,2.301895380E0,9.317651749E0
1.259227996E1,3.254238665E-1,2.289931297E0,9.300901413E0
1.260227996E1,2.057827413E-1,2.266003132E0,9.382257462E0
1.261227996E1,-7.657032460E-2,2.244467735E0,9.442078590E0
1.262227996E1,-2.464607358E-1,2.230110645E0,9.528220177E0
1.263227996E1,-2.799602449E-1,2.187039852E0,9.611968994E0
1.264227996E1,-6.460621208E-2,2.017149448E0,9.870393753E0
1.265227996E1,-6.460621208E-2,2.017149448E0,9.870393753E0
1.266227996E1,-6.460621208E-2,2.017149448E0,9.870393753E0
1.267227996E1,-6.460621208E-2,2.017149448E0,9.870393753E0
1.268227996E1,2.632104978E-2,2.041077614E0,1.043988514E1
1.269227996E1,1.220339537E-1,2.069791555E0,1.015513897E1
1.270227996E1,7.178468257E-2,2.141576290E0,9.786644936E0
1.271227996E1,7.178468257E-2,2.141576290E0,9.786644936E0
1.272227996E1,7.178468257E-2,2.141576290E0,9.786644936E0
1.273227996E1,7.178468257E-2,2.141576290E0,9.786644936E0
1.274227996E1,7.178468257E-2,2.141576290E0,9.786644936E0
1.275227996E1,-3.948157430E-1,2.400001049E0,9.080761909E0
1.276227996E1,-3.589234054E-1,2.349751949E0,9.322437286E0
1.277227996E1,-2.392822653E-1,2.230110645E0,9.554540634E0
1.278227996E1,-2.392822653E-1,2.230110645E0,9.554540634E0
1.279227996E1,-2.392822653E-1,2.230110645E0,9.554540634E0
1.280227996E1,-2.392822690E-2,1.986042738E0,9.997213364E0
1.281227996E1,-9.571290761E-2,1.995614052E0,9.994820595E0
1.282227996E1,7.178468257E-2,2.093719721E0,9.784252167E0
1.283227996E1,1.842473447E-1,2.187039852E0,9.468399048E0
1.284227996E1,3.565305769E-1,2.163111687E0,9.202795982E0
1.285227996E1,3.565305769E-1,2.163111687E0,9.202795982E0
1.286227996E1,4.354937077E-1,2.213361025E0,8.255238533E0
1.287227996E1,2.081755698E-1,2.301895380E0,8.118846893E0
1.288227996E1,0.000000000E0,2.416750908E0,8.042277336E0
1.289227996E1,-1.100698411E-1,2.502892494E0,8.130811691E0
1.290227996E1,-1.842473447E-1,2.524427891E0,8.403593063E0
1.291227996E1,-2.536391914E-1,2.495713949E0,8.851051331E0
1.292227996E1,-1.603191197E-1,2.409572363E0,9.884750366E0
1.293227996E1,-1.674975827E-2,2.287538528E0,1.038724327E1
1.294227996E1,6.460621208E-2,2.148754835E0,1.075334454E1
1.295227996E1,6.221338734E-2,2.036292076E0,1.085145092E1
1.296227996E1,-5.264209956E-2,1.995614052E0,1.066720295E1
1.297227996E1,-1.914258152E-1,1.981257200E0,1.025085258E1
1.298227996E1,-1.986042857E-1,1.986042738E0,9.805787086E0
1.299227996E1,6.699903309E-2,2.163111687E0,9.166903496E0
1.300227996E1,2.033899277E-1,2.232503414E0,9.145368576E0
1.301227996E1,8.374879509E-2,2.337787628E0,9.119047165E0
1.302227996E1,1.004985496E-1,2.419143677E0,9.066405296E0
1.303227996E1,1.411765367E-1,2.450250387E0,9.083154678E0
1.304227996E1,-7.657032460E-2,2.407179594E0,9.190832138E0
1.305227996E1,-3.948157430E-1,2.397608280E0,9.250652313E0
1.306227996E1,-3.708875179E-1,2.275574446E0,9.288937569E0
1.307227996E1,-1.435693651E-1,2.177468538E0,9.343972206E0
1.308227996E1,-1.435693651E-1,2.177468538E0,9.343972206E0
1.309227996E1,-1.435693651E-1,2.177468538E0,9.343972206E0
1.310227996E1,4.666004181E-1,2.127219439E0,9.824930191E0
1.311227996E1,3.924229145E-1,2.213361025E0,9.911071777E0
1.312227996E1,2.560320199E-1,2.294716835E0,9.958928108E0
1.313227996E1,2.560320199E-1,2.294716835E0,9.958928108E0
1.314227996E1,2.560320199E-1,2.294716835E0,9.958928108E0
1.315227996E1,2.560320199E-1,2.294716835E0,9.958928108E0
1.316227996E1,-2.129612118E-1,2.309073925E0,1.002114105E1
1.317227996E1,-8.853443712E-2,2.244467735E0,9.968499184E0
1.318227996E1,3.110669367E-2,2.110469580E0,9.944570541E0
1.319227996E1,1.076770201E-1,2.036292076E0,9.853643417E0
1.320227996E1,1.076770201E-1,2.036292076E0,9.853643417E0
1.321227996E1,1.076770201E-1,2.036292076E0,9.853643417E0
1.322227996E1,1.674975827E-2,2.378465652E0,8.834300995E0
1.323227996E1,-7.657032460E-2,2.443071842E0,8.587840080E0
1.324227996E1,-2.177468538E-1,2.490928411E0,8.396414757E0
1.325227996E1,-2.751746178E-1,2.562713146E0,8.195417404E0
1.326227996E1,-3.014956415E-1,2.600998163E0,8.142775536E0
1.327227996E1,-3.014956415E-1,2.600998163E0,8.142775536E0
1.328227996E1,-2.656033039E-1,2.543570518E0,8.965906143E0
1.329227996E1,-2.464607358E-1,2.440679073E0,9.358329773E0
1.330227996E1,-2.392822653E-1,2.335394859E0,9.686145782E0
1.331227996E1,-1.651047617E-1,2.256431818E0,9.879964828E0
1.332227996E1,-5.264209956E-2,2.153540373E0,9.884750366E0
1.333227996E1,7.657032460E-2,2.043470621E0,9.784252167E0
1.334227996E1,3.517449200E-1,2.093719721E0,9.358329773E0
1.335227996E1,4.211367965E-1,2.249253273E0,9.059226990E0
1.336227996E1,3.972085714E-1,2.328216314E0,8.676374435E0
1.337227996E1,3.948157430E-1,2.397608280E0,8.307880402E0
1.338227996E1,3.517449200E-1,2.471785784E0,8.011170387E0
1.339227996E1,1.172483116E-1,2.541177750E0,7.879564762E0
1.340227996E1,-1.890329868E-1,2.641676188E0,7.905886173E0
1.341227996E1,-3.661018610E-1,2.921636343E0,8.303094864E0
1.342227996E1,-3.613162339E-1,2.888136864E0,8.731410027E0
1.343227996E1,-3.206382394E-1,2.761317253E0,9.233902931E0
1.344227996E1,-2.273181528E-1,2.555534601E0,9.662218094E0
1.345227996E1,-1.411765367E-1,2.316252232E0,9.997213364E0
1.346227996E1,-1.292124242E-1,2.184647083E0,1.023649502E1
1.347227996E1,-1.531406492E-1,2.148754835E0,1.029153061E1
1.348227996E1,-9.810572863E-2,2.098505497E0,9.920642853E0
1.349227996E1,-1.866401732E-1,2.096112728E0,9.640682220E0
1.350227996E1,-2.081755698E-1,2.182254314E0,9.403793335E0
1.351227996E1,-1.651047617E-1,2.366501570E0,9.205188751E0
1.352227996E1,-8.614161611E-2,2.495713949E0,9.140582085E0
1.353227996E1,-1.674975827E-2,2.548356056E0,9.152546883E0
1.354227996E1,-3.828516230E-2,2.593819857E0,9.200403214E0
1.355227996E1,-1.172483116E-1,2.541177750E0,9.391828537E0
1.356227996E1,-2.201396823E-1,2.555534601E0,9.568898201E0
1.357227996E1,-2.727817893E-1,2.524427891E0,9.700503349E0
1.358227996E1,-2.608176768E-1,2.502892494E0,9.784252167E0
1.359227996E1,-3.517449200E-1,2.433500528E0,9.846465111E0
1.360227996E1,-3.086741269E-1,2.352144718E0,9.927821159E0
1.361227996E1,-1.052841991E-1,2.323430777E0,9.937392235E0
1.362227996E1,-1.052841991E-1,2.323430777E0,9.937392235E0
1.363227996E1,-1.052841991E-1,2.323430777E0,9.937392235E0
1.364227996E1,-1.052841991E-1,2.323430777E0,9.937392235E0
1.365227996E1,-1.052841991E-1,2.323430777E0,9.937392235E0
1.366227996E1,-1.052841991E-1,2.323430777E0,9.937392235E0
1.367227996E1,-2.608176768E-1,2.478964329E0,9.363115311E0
1.368227996E1,-3.182454109E-1,2.462214470E0,9.389435768E0
1.369227996E1,-3.182454109E-1,2.462214470E0,9.389435768E0
1.370227996E1,-3.182454109E-1,2.462214470E0,9.389435768E0
1.371227996E1,-3.182454109E-1,2.462214470E0,9.389435768E0
1.372227996E1,3.349951655E-2,2.349751949E0,9.724431038E0
1.373227996E1,-5.982056633E-2,2.383251429E0,9.626325607E0
1.374227996E1,-1.698904037E-1,2.349751949E0,9.533005714E0
1.375227996E1,-2.919243574E-1,2.335394859E0,9.427721024E0
1.376227996E1,-2.919243574E-1,2.335394859E0,9.427721024E0
1.377227996E1,-2.919243574E-1,2.335394859E0,9.427721024E0
1.378227996E1,-2.488535494E-1,2.416750908E0,9.578469276E0
1.379227996E1,-1.794617027E-1,2.318645239E0,9.705288887E0
1.380227996E1,1.674975827E-2,2.261217356E0,9.784252167E0
1.381227996E1,1.627119333E-1,2.215753794E0,9.846465111E0
1.382227996E1,1.220339537E-1,2.167897224E0,9.896714211E0
1.383227996E1,1.220339537E-1,2.167897224E0,9.896714211E0
1.384227996E1,1.220339537E-1,2.167897224E0,9.896714211E0
1.385227996E1,-1.674975902E-1,2.268395901E0,9.336793900E0
1.386227996E1,-1.316052526E-1,2.249253273E0,9.123832703E0
1.387227996E1,8.135596663E-2,2.280359983E0,9.004191399E0
1.388227996E1,2.297109663E-1,2.352144718E0,8.992227554E0
1.389227996E1,1.914258152E-1,2.445464849E0,9.059226990E0
1.390227996E1,1.914258152E-1,2.445464849E0,9.059226990E0
1.391227996E1,-2.871387079E-2,2.459821701E0,9.150154114E0
1.392227996E1,-1.962114573E-1,2.507678032E0,9.332008362E0
1.393227996E1,-3.349951804E-1,2.455035925E0,9.559326172E0
1.394227996E1,-2.488535494E-1,2.325823545E0,9.779465675E0
1.395227996E1,-1.148554832E-1,2.249253273E0,9.911071777E0
1.396227996E1,-1.124626622E-1,2.213361025E0,9.954142570E0
1.397227996E1,-6.221338734E-2,2.132004976E0,9.676574707E0
1.398227996E1,-6.221338734E-2,2.132004976E0,9.676574707E0
1.399227996E1,-9.810572863E-2,2.182254314E0,9.107083321E0
1.400227996E1,3.349951655E-2,2.160718918E0,8.886942863E0
1.401227996E1,9.332008660E-2,2.165504456E0,8.750552177E0
1.402227996E1,1.435693540E-2,2.242074728E0,8.645268440E0
1.403227996E1,-1.148554832E-1,2.321038008E0,8.673981667E0
1.404227996E1,-3.110669553E-1,2.419143677E0,8.829515457E0
1.405227996E1,-2.584248483E-1,2.440679073E0,9.123832703E0
1.406227996E1,-1.651047617E-1,2.380858421E0,9.494720459E0
1.407227996E1,-1.770688742E-1,2.268395901E0,9.915857315E0
1.408227996E1,-1.268195957E-1,2.151147604E0,1.033220863E1
1.409227996E1,-2.871387079E-2,2.019542217E0,1.059541893E1
1.410227996E1,-5.024927482E-2,1.966900229E0,1.068873882E1
1.411227996E1,-3.182454109E-1,1.964507341E0,1.028913784E1
1.412227996E1,-2.727817893E-1,2.000399828E0,9.877572060E0
1.413227996E1,-1.674975902E-1,1.995614052E0,9.492327690E0
1.414227996E1,-8.614161611E-2,2.033899307E0,9.128618240E0
1.415227996E1,8.614161611E-2,2.148754835E0,8.846264839E0
1.416227996E1,1.890329868E-1,2.280359983E0,8.657232285E0
1.417227996E1,1.363908947E-1,2.337787628E0,8.511270523E0
1.418227996E1,-1.555334777E-1,2.376072884E0,8.475378036E0
1.419227996E1,-2.871387303E-1,2.392822742E0,8.549555779E0
1.420227996E1,-3.565305769E-1,2.390429735E0,8.690732002E0
1.421227996E1,-3.852444589E-1,2.340180635E0,8.922835350E0
1.422227996E1,-3.876372576E-1,2.222932339E0,9.190832138E0
1.423227996E1,-3.876372576E-1,2.222932339E0,9.190832138E0
1.424227996E1,-3.158525825E-1,2.103291035E0,9.978070259E0
1.425227996E1,-3.158525825E-1,2.103291035E0,9.978070259E0
1.426227996E1,-3.158525825E-1,2.103291035E0,9.978070259E0
1.427227996E1,-3.158525825E-1,2.103291035E0,9.978070259E0
1.428227996E1,1.052841991E-1,1.914258122E0,9.688538551E0
1.429227996E1,-2.871387079E-2,1.966900229E0,9.265008926E0
1.430227996E1,-1.962114573E-1,1.998006940E0,8.860622406E0
1.431227996E1,-1.866401732E-1,2.081755638E0,8.585447311E0
1.432227996E1,-1.866401732E-1,2.081755638E0,8.585447311E0
1.433227996E1,-1.866401732E-1,2.081755638E0,8.585447311E0
1.434227996E1,-1.244267747E-1,2.392822742E0,8.602197647E0
1.435227996E1,-1.244267747E-1,2.392822742E0,8.602197647E0
1.436227996E1,-8.614161611E-2,2.282752752E0,9.442078590E0
1.437227996E1,-1.507478207E-1,2.203789711E0,9.789037704E0
1.438227996E1,-2.249253243E-1,2.103291035E0,9.954142570E0
1.439227996E1,-2.249253243E-1,2.103291035E0,9.954142570E0
1.440227996E1,-2.249253243E-1,2.103291035E0,9.954142570E0
1.441227996E1,1.579262912E-1,1.830509305E0,1.029870892E1
1.442227996E1,2.536391914E-1,1.883151412E0,1.026520920E1
1.443227996E1,2.129612118E-1,1.926222205E0,1.009053326E1
1.444227996E1,1.555334777E-1,1.940579176E0,9.717252731E0
1.445227996E1,1.052841991E-1,1.978864312E0,9.296115875E0
1.446227996E1,1.052841991E-1,1.978864312E0,9.296115875E0
1.447227996E1,-9.571290761E-2,2.232503414E0,8.839086533E0
1.448227996E1,-1.244267747E-1,2.194218397E0,8.831908226E0
1.449227996E1,-4.546362907E-2,2.189432621E0,8.858229637E0
1.450227996E1,-7.896314561E-2,2.244467735E0,8.997013092E0
1.451227996E1,-2.440679073E-1,2.287538528E0,9.157332420E0
1.452227996E1,-2.871387303E-1,2.263610125E0,9.257830620E0
1.453227996E1,-2.823530734E-1,2.210968018E0,9.413364410E0
1.454227996E1,-2.057827413E-1,2.196611166E0,9.564111710E0
1.455227996E1,-6.221338734E-2,2.165504456E0,9.631111145E0
1.456227996E1,4.307080805E-2,2.136790514E0,9.609575272E0
1.457227996E1,5.982056633E-2,2.136790514E0,9.573683739E0
1.458227996E1,-5.503492057E-2,2.199003935E0,9.511469841E0
1.459227996E1,-1.866401732E-1,2.167897224E0,9.432506561E0
1.460227996E1,-3.062812984E-1,2.076970100E0,9.253045082E0
1.461227996E1,-2.823530734E-1,2.024327993E0,9.327222824E0
1.462227996E1,-1.746760458E-1,1.986042738E0,9.480362892E0
1.463227996E1,6.221338734E-2,1.923829436E0,9.686145782E0
1.464227996E1,-2.632104978E-2,1.837687731E0,9.827322960E0
1.465227996E1,-5.503492057E-2,1.820937991E0,9.930213928E0
1.466227996E1,-1.220339537E-1,1.818545222E0,9.844072342E0
1.467227996E1,-1.220339537E-1,1.818545222E0,9.844072342E0
1.468227996E1,1.172483116E-1,1.880758643E0,9.171689034E0
1.469227996E1,1.722832322E-1,2.000399828E0,8.915657043E0
1.470227996E1,3.349951655E-2,2.129612207E0,8.762516975E0
1.471227996E1,-2.321037948E-1,2.203789711E0,8.803194046E0
1.472227996E1,-4.881358147E-1,2.285145521E0,8.915657043E0
1.473227996E1,-4.354937077E-1,2.330609322E0,9.018548965E0
1.474227996E1,-5.886343718E-1,2.282752752E0,9.324830055E0
1.475227996E1,-6.867401004E-1,2.287538528E0,9.628718376E0
1.476227996E1,-6.077769399E-1,1.983649969E0,9.705288887E0
1.477227996E1,-4.881358147E-1,1.694118381E0,9.772287369E0
1.478227996E1,-3.493520916E-1,1.442872047E0,9.875179291E0
1.479227996E1,-1.579262912E-1,1.397408366E0,9.844072342E0
1.480227996E1,1.890329868E-1,1.296909928E0,9.817750931E0
1.481227996E1,1.890329868E-1,1.296909928E0,9.817750931E0
1.482227996E1,1.890329868E-1,1.296909928E0,9.817750931E0
1.483227996E1,1.890329868E-1,1.296909928E0,9.817750931E0
1.484227996E1,1.890329868E-1,1.296909928E0,9.817750931E0
1.485227996E1,1.890329868E-1,1.296909928E0,9.817750931E0
1.486227996E1,-8.614161611E-2,1.959721804E0,8.762516975E0
1.487227996E1,-6.221338734E-2,2.007578135E0,8.638090134E0
1.488227996E1,-6.221338734E-2,2.007578135E0,8.638090134E0
1.489227996E1,-6.221338734E-2,2.007578135E0,8.638090134E0
1.490227996E1,-6.221338734E-2,2.007578135E0,8.638090134E0
1.491227996E1,-6.221338734E-2,2.007578135E0,8.638090134E0
1.492227996E1,-1.052841991E-1,1.526620865E0,9.652647018E0
1.493227996E1,-2.057827413E-1,1.512263894E0,9.879964828E0
1.494227996E1,-2.871387303E-1,1.162911773E0,1.001874828E1
1.495227996E1,-2.871387303E-1,1.162911773E0,1.001874828E1
1.496227996E1,-2.871387303E-1,1.162911773E0,1.001874828E1
1.497227996E1,6.460621357E-1,7.250252366E-1,1.062413216E1
1.498227996E1,7.178468108E-1,1.268195987E0,1.069352436E1
1.499227996E1,3.900300860E-1,1.529013634E0,1.045663452E1
1.500227996E1,1.387837082E-1,1.639083505E0,1.007139015E1
1.501227996E1,-2.392822644E-3,1.753939033E0,9.647860527E0
1.502227996E1,-2.392822644E-3,1.753939033E0,9.647860527E0
1.503227996E1,-2.392822644E-3,1.753939033E0,9.647860527E0
1.504227996E1,-2.392822644E-3,1.753939033E0,9.647860527E0
1.505227996E1,5.982056633E-2,1.471585870E0,1.020538902E1
1.506227996E1,8.135596663E-2,1.359123230E0,1.065763187E1
1.507227996E1,-1.196411345E-2,1.256231904E0,1.090409279E1
1.508227996E1,-2.392822644E-3,1.265803218E0,1.093759251E1
1.509227996E1,-2.392822644E-3,1.265803218E0,1.093759251E1
1.510227996E1,-3.684946895E-1,1.555334687E0,1.016710377E1
1.511227996E1,-4.283152521E-1,1.598405480E0,9.836894035E0
1.512227996E1,-4.498506486E-1,1.725225091E0,9.504291534E0
1.513227996E1,-7.010970116E-1,1.792224169E0,9.044869423E0
1.514227996E1,-7.226324677E-1,1.813759565E0,8.685946465E0
1.515227996E1,-5.383850932E-1,1.801795483E0,8.484949112E0
1.516227996E1,2.249253243E-1,1.473978758E0,8.719446182E0
1.517227996E1,4.666004181E-1,1.495514154E0,9.418149948E0
1.518227996E1,4.139583111E-1,1.404586911E0,1.016231823E1
1.519227996E1,3.445664644E-1,1.256231904E0,1.048295593E1
1.520227996E1,-4.785645381E-2,1.256231904E0,1.053559780E1
1.521227996E1,-3.517449200E-1,1.385444283E0,1.038006496E1
1.522227996E1,-5.216353536E-1,1.538584948E0,1.018624592E1
1.523227996E1,-2.249253243E-1,1.552941918E0,9.619147301E0
1.524227996E1,-4.067798331E-2,1.507478237E0,9.135796547E0
1.525227996E1,4.307080805E-2,1.490728498E0,8.769695282E0
1.526227996E1,-4.785645287E-3,1.634297848E0,8.456234932E0
1.527227996E1,-1.004985496E-1,1.835294962E0,8.161917686E0
1.528227996E1,-2.177468538E-1,2.007578135E0,8.042277336E0
1.529227996E1,-3.302095234E-1,2.048256159E0,8.231309891E0
1.530227996E1,-5.168496966E-1,1.950150490E0,9.205188751E0
1.531227996E1,-6.652047038E-1,1.804188251E0,9.427721024E0
1.532227996E1,-6.460621357E-1,1.586441398E0,9.329615593E0
1.533227996E1,-4.498506486E-1,1.428515077E0,9.159725189E0
1.534227996E1,-1.024128079E0,1.385444283E0,1.005703354E1
1.535227996E1,-7.609176040E-1,1.344766378E0,9.334401131E0
1.536227996E1,-1.674975827E-2,1.619940877E0,9.623932838E0
1.537227996E1,3.373879790E-1,1.610369682E0,9.975677490E0
1.538227996E1,3.373879790E-1,1.610369682E0,9.975677490E0
1.539227996E1,3.373879790E-1,1.610369682E0,9.975677490E0
1.540227996E1,-8.063812256E-1,2.172683001E0,8.324629784E0
1.541227996E1,-7.968099117E-1,2.354537487E0,8.355736732E0
1.542227996E1,-8.853443861E-1,2.498106956E0,8.312665939E0
1.543227996E1,-9.188438654E-1,2.529213428E0,8.231309891E0
1.544227996E1,-9.188438654E-1,2.529213428E0,8.231309891E0
1.545227996E1,-9.188438654E-1,2.529213428E0,8.231309891E0
1.546227996E1,-1.040877819E0,2.498106956E0,8.941978455E0
1.547227996E1,-1.177268744E0,2.285145521E0,9.583254814E0
1.548227996E1,-1.067198873E0,2.036292076E0,1.005703354E1
1.549227996E1,-7.585247755E-1,1.902294040E0,1.051884842E1
1.550227996E1,-4.235295951E-1,1.741974831E0,1.077727318E1
1.551227996E1,-4.235295951E-1,1.741974831E0,1.077727318E1
1.552227996E1,-2.632104978E-2,1.485942841E0,1.025563812E1
1.553227996E1,-4.546362907E-2,1.581655741E0,9.796216011E0
1.554227996E1,-1.866401732E-1,1.751546144E0,9.310472488E0
1.555227996E1,-3.565305769E-1,1.957328916E0,8.874979019E0
1.556227996E1,-4.259224236E-1,2.115255117E0,8.566305161E0
1.557227996E1,-3.924229145E-1,2.210968018E0,8.382058144E0
1.558227996E1,-3.062812984E-1,2.407179594E0,8.372486115E0
1.559227996E1,-4.402793646E-1,2.483749866E0,8.556734085E0
1.560227996E1,-4.546363056E-1,2.577069998E0,8.841479301E0
1.561227996E1,-3.684946895E-1,2.586641312E0,9.243474007E0
1.562227996E1,-2.344966233E-1,2.414358139E0,9.628718376E0
1.563227996E1,-5.264209956E-2,2.321038008E0,1.007139015E1
1.564227996E1,-9.092725813E-2,2.155933142E0,1.044945621E1
1.565227996E1,-5.886343718E-1,1.897508383E0,1.075573826E1
1.566227996E1,-5.982056856E-1,1.761117458E0,1.082512951E1
1.567227996E1,-4.737788737E-1,1.665404558E0,1.081555843E1
1.568227996E1,-2.536391914E-1,1.629512191E0,1.084905815E1
1.569227996E1,-3.110669367E-2,1.610369682E0,1.082273674E1
1.570227996E1,2.033899277E-1,1.629512191E0,1.063609695E1
1.571227996E1,2.440679073E-1,1.737189293E0,1.025324535E1
1.572227996E1,8.853443712E-2,1.902294040E0,1.006181908E1
1.573227996E1,-1.172483116E-1,2.062613010E0,9.781859398E0
1.574227996E1,-2.799602449E-1,2.143969059E0,9.535398483E0
1.575227996E1,-3.445664644E-1,2.184647083E0,9.324830055E0
1.576227996E1,-2.799602449E-1,2.148754835E0,9.243474007E0
1.577227996E1,-1.531406492E-1,2.093719721E0,9.276973724E0
1.578227996E1,-1.196411345E-2,2.067398787E0,9.497113228E0
1.579227996E1,-7.178468257E-2,2.115255117E0,9.597611427E0
1.580227996E1,-1.651047617E-1,2.139183521E0,9.647860527E0
1.581227996E1,-1.938186288E-1,2.091326952E0,9.561718941E0
1.582227996E1,-1.914258152E-1,2.043470621E0,9.430113792E0
1.583227996E1,-3.302095234E-1,1.993221283E0,9.322437286E0
1.584227996E1,-4.666004181E-1,1.957328916E0,9.255437851E0
1.585227996E1,-4.666004181E-1,1.957328916E0,9.255437851E0
1.586227996E1,-4.666004181E-1,1.957328916E0,9.255437851E0
1.587227996E1,-4.666004181E-1,1.957328916E0,9.255437851E0
1.588227996E1,-3.924229145E-1,1.926222205E0,9.336793900E0
1.589227996E1,-3.924229145E-1,1.926222205E0,9.336793900E0
1.590227996E1,-3.661018610E-1,1.923829436E0,9.114261627E0
1.591227996E1,-3.613162339E-1,1.971685886E0,9.071190834E0
1.592227996E1,-3.613162339E-1,1.971685886E0,9.071190834E0
1.593227996E1,-3.613162339E-1,1.971685886E0,9.071190834E0
1.594227996E1,-3.613162339E-1,1.971685886E0,9.071190834E0
1.594227996E1,-3.780659735E-1,2.182254314E0,9.030512810E0
1.596227996E1,-5.718846321E-1,2.088934183E0,9.032905579E0
1.597227996E1,-5.599204898E-1,2.057827473E0,9.025727272E0
1.598227996E1,-5.048855543E-1,2.098505497E0,9.047262192E0
1.599227996E1,-5.048855543E-1,2.098505497E0,9.047262192E0
1.600227996E1,-5.048855543E-1,2.098505497E0,9.047262192E0
1.600227996E1,-5.766702294E-1,2.100898266E0,9.181260109E0
1.602227996E1,-4.977070987E-1,1.959721804E0,9.482755661E0
1.603227996E1,-4.689932466E-1,1.746760488E0,9.645467758E0
1.604227996E1,-2.919243574E-1,1.617548108E0,9.846465111E0
1.605227996E1,-1.387837082E-1,1.653440475E0,9.970891953E0
1.606227996E1,-1.387837082E-1,1.653440475E0,9.970891953E0
1.607227996E1,-6.699903309E-2,1.825723648E0,9.887143135E0
1.608227996E1,-2.297109663E-1,1.911865234E0,9.604789734E0
1.609227996E1,-3.278166950E-1,2.021935225E0,9.150154114E0
1.610227996E1,-3.613162339E-1,2.086541414E0,8.666803360E0
1.611227996E1,-4.857429862E-1,2.201396942E0,8.472985268E0
1.612227996E1,-8.159525394E-1,2.273181438E0,8.518448830E0
1.613227996E1,-1.442872047E0,2.610569477E0,8.650053978E0
1.614227996E1,-1.351944804E0,2.577069998E0,8.769695282E0
1.615227996E1,-9.499505758E-1,2.333002090E0,8.982656479E0
1.616227996E1,-8.015955687E-1,2.194218397E0,9.315258980E0
1.617227996E1,-8.662018180E-1,2.105684042E0,9.650253296E0
1.618227996E1,-8.542376757E-1,1.986042738E0,9.966106415E0
1.619227996E1,-6.963114142E-1,1.780260086E0,1.024367332E1
1.620227996E1,-5.551348329E-1,1.567298889E0,1.028195858E1
1.621227996E1,-5.718846321E-1,1.674975872E0,1.006421185E1
1.622227996E1,-5.048855543E-1,1.801795483E0,9.774680138E0
1.623227996E1,-3.756731451E-1,1.921436548E0,9.461220741E0
1.624227996E1,-2.297109663E-1,2.055434704E0,9.078369141E0
1.625227996E1,-6.699903309E-2,2.210968018E0,8.800801277E0
1.626227996E1,-5.024927482E-2,2.325823545E0,8.583054543E0
1.627227996E1,-4.522434771E-1,2.452643156E0,8.410771370E0
1.628227996E1,-6.221339107E-1,2.457428932E0,8.573483467E0
1.629227996E1,-6.556333899E-1,2.455035925E0,8.896514893E0
1.630227996E1,-6.963114142E-1,2.344966173E0,9.324830055E0
1.631227996E1,-7.226324677E-1,2.158325911E0,9.671789169E0
1.632227996E1,-5.862415433E-1,1.995614052E0,9.985248566E0
1.633227996E1,-3.996013701E-1,1.859223247E0,1.019342422E1
1.634227996E1,-3.996013701E-1,1.859223247E0,1.019342422E1
1.635227996E1,-3.996013701E-1,1.859223247E0,1.019342422E1
1.636227996E1,-3.996013701E-1,1.859223247E0,1.019342422E1
1.637227996E1,-3.996013701E-1,1.859223247E0,1.019342422E1
1.638227996E1,-6.819544435E-1,2.127219439E0,8.511270523E0
1.639227996E1,-6.771687865E-1,2.306680918E0,8.128418922E0
1.640227996E1,-6.364908218E-1,2.419143677E0,7.905886173E0
1.641227996E1,-6.364908218E-1,2.419143677E0,7.905886173E0
1.642227996E1,-6.364908218E-1,2.419143677E0,7.905886173E0
1.643227996E1,-6.364908218E-1,2.419143677E0,7.905886173E0
1.644227996E1,-4.283152521E-1,2.230110645E0,9.690931320E0
1.645227996E1,-5.623133183E-1,2.100898266E0,1.021017456E1
1.646227996E1,-5.192425251E-1,1.878365755E0,1.066241741E1
1.647227996E1,-6.484549642E-1,1.770688772E0,1.091366386E1
1.648227996E1,-6.484549642E-1,1.770688772E0,1.091366386E1
1.649227996E1,-6.484549642E-1,1.770688772E0,1.091366386E1
1.650227996E1,-2.177468538E-1,1.402194023E0,1.012164021E1
1.651227996E1,-2.081755698E-1,1.572084427E0,9.616754532E0
1.652227996E1,-1.555334777E-1,1.787438512E0,9.032905579E0
1.653227996E1,-1.148554832E-1,1.990828395E0,8.549555779E0
1.654227996E1,-1.914258152E-1,2.143969059E0,8.140382767E0
1.655227996E1,-1.914258152E-1,2.143969059E0,8.140382767E0
1.656227996E1,-1.914258152E-1,2.143969059E0,8.140382767E0
1.657227996E1,-8.925228715E-1,2.400001049E0,8.032705307E0
1.657227996E1,-8.925228715E-1,2.400001049E0,8.032705307E0
1.659227996E1,-6.556333899E-1,2.256431818E0,8.937192917E0
1.660227996E1,-5.431707501E-1,2.139183521E0,9.403793335E0
1.661227996E1,-4.402793646E-1,2.014756680E0,9.796216011E0
1.662227996E1,-4.402793646E-1,2.014756680E0,9.796216011E0
1.663227996E1,-6.867401004E-1,1.993221283E0,1.043031406E1
1.664227996E1,-6.269195080E-1,1.998006940E0,1.036092186E1
1.665227996E1,-6.029912829E-1,1.976471543E0,1.019820976E1
1.666227996E1,-6.340979934E-1,1.942971945E0,1.004985523E1
1.667227996E1,-5.670989752E-1,1.885544300E0,9.915857315E0
1.668227996E1,-3.756731451E-1,1.868794441E0,9.750752449E0
1.669227996E1,-1.435693651E-1,1.909472466E0,9.544969559E0
1.670227996E1,-2.536391914E-1,1.940579176E0,9.434899330E0
1.671227996E1,-3.589234054E-1,2.045863390E0,9.272188187E0
1.672227996E1,-4.785645306E-1,2.136790514E0,9.104690552E0
1.673227996E1,-5.886343718E-1,2.201396942E0,8.941978455E0
1.674227996E1,-6.604190469E-1,2.251646042E0,8.805587769E0
1.675227996E1,-7.226324677E-1,2.325823545E0,8.719446182E0
1.676227996E1,-8.183453679E-1,2.347358942E0,8.860622406E0
1.677227996E1,-8.685946465E-1,2.289931297E0,9.037691116E0
1.678227996E1,-8.135597110E-1,2.239681959E0,9.296115875E0
1.679227996E1,-6.867401004E-1,2.153540373E0,9.645467758E0
1.680227996E1,-5.335994363E-1,2.057827473E0,1.001635551E1
1.681227996E1,-3.756731451E-1,2.012363911E0,1.032263660E1
1.682227996E1,-3.421736360E-1,1.868794441E0,1.049970531E1
1.683227996E1,-5.431707501E-1,1.598405480E0,1.054516983E1
1.684227996E1,-4.618147612E-1,1.509871125E0,1.040399265E1
1.685227996E1,-2.321037948E-1,1.538584948E0,1.017428207E1
1.686227996E1,-2.153540403E-2,1.569691658E0,9.956535339E0
1.687227996E1,2.392822653E-1,1.641476393E0,9.731609344E0
1.688227996E1,4.402793646E-1,1.718046665E0,9.463613510E0
1.689227996E1,5.742774606E-1,1.830509305E0,9.152546883E0
1.690227996E1,1.435693540E-2,2.148754835E0,8.542376518E0
1.691227996E1,-2.727817893E-1,2.304288149E0,8.262416840E0
1.692227996E1,-5.264210105E-1,2.402393818E0,8.228917122E0
1.693227996E1,-7.250252366E-1,2.438286304E0,8.437092781E0
1.694227996E1,-7.274180651E-1,2.352144718E0,8.872586250E0
1.695227996E1,-5.718846321E-1,2.172683001E0,9.401400566E0
1.696227996E1,-4.450650215E-1,1.995614052E0,9.896714211E0
1.697227996E1,-3.182454109E-1,1.830509305E0,1.059781170E1
1.698227996E1,-3.302095234E-1,1.792224169E0,1.065763187E1
1.699227996E1,-3.206382394E-1,1.780260086E0,1.052602673E1
1.700227996E1,-3.493520916E-1,1.797009826E0,1.010249710E1
1.701227996E1,-4.546363056E-1,1.840080619E0,9.671789169E0
1.702227996E1,-6.005984545E-1,1.873580098E0,9.248259544E0
1.703227996E1,-7.489534616E-1,1.849651933E0,8.872586250E0
1.704227996E1,-5.670989752E-1,1.926222205E0,8.508877754E0
1.705227996E1,-4.091726840E-1,2.033899307E0,8.597412109E0
1.706227996E1,-2.273181528E-1,2.184647083E0,8.779266357E0
1.707227996E1,-1.435693651E-1,2.277967215E0,9.016156197E0
1.708227996E1,-1.435693651E-1,2.277967215E0,9.016156197E0
1.709227996E1,-1.435693651E-1,2.277967215E0,9.016156197E0
1.710227996E1,-2.727817893E-1,2.328216314E0,9.597611427E0
1.711227996E1,-2.727817893E-1,2.328216314E0,9.597611427E0
1.712227996E1,-2.727817893E-1,2.328216314E0,9.597611427E0
1.713227996E1,-2.727817893E-1,2.328216314E0,9.597611427E0
1.714227996E1,-2.727817893E-1,2.328216314E0,9.597611427E0
1.715227996E1,-6.699903309E-2,1.816152334E0,1.080838013E1
1.716227996E1,2.273181528E-1,1.761117458E0,1.092562866E1
1.717227996E1,3.373879790E-1,1.751546144E0,1.088495064E1
1.718227996E1,3.373879790E-1,1.751546144E0,1.088495064E1
1.719227996E1,3.373879790E-1,1.751546144E0,1.088495064E1
1.720227996E1,3.373879790E-1,1.751546144E0,1.088495064E1
1.721227996E1,-2.153540403E-2,1.921436548E0,8.776873589E0
1.722227996E1,2.153540403E-2,2.029113531E0,8.484949112E0
1.723227996E1,-2.153540403E-2,2.115255117E0,8.310273170E0
1.724227996E1,-1.220339537E-1,2.258824587E0,8.307880402E0
1.725227996E1,-1.220339537E-1,2.258824587E0,8.307880402E0
1.726227996E1,-1.220339537E-1,2.258824587E0,8.307880402E0
1.727227996E1,-1.220339537E-1,2.258824587E0,8.307880402E0
1.728227996E1,-5.503492355E-1,2.088934183E0,1.003310490E1
1.729227996E1,-4.618147612E-1,1.971685886E0,1.019820976E1
1.730227996E1,-3.684946895E-1,1.801795483E0,1.027956581E1
1.731227996E1,-2.608176768E-1,1.615155339E0,1.021256733E1
1.732227996E1,-2.608176768E-1,1.615155339E0,1.021256733E1
1.733227996E1,1.507478207E-1,1.619940877E0,9.779465675E0
1.734227996E1,2.416750938E-1,1.655833244E0,9.542576790E0
1.735227996E1,1.483550072E-1,1.720439434E0,9.224330902E0
1.736227996E1,-7.178467698E-3,1.763510346E0,8.951549530E0
1.737227996E1,-2.392822690E-2,1.852044702E0,8.726624489E0
1.738227996E1,-1.363908947E-1,1.897508383E0,8.506484032E0
1.739227996E1,-1.363908947E-1,1.897508383E0,8.506484032E0
1.740227996E1,-2.057827413E-1,2.301895380E0,8.731410027E0
1.741227996E1,-2.584248483E-1,2.294716835E0,9.011369705E0
1.742227996E1,-2.392822653E-1,2.256431818E0,9.267401695E0
1.743227996E1,-2.177468538E-1,2.232503414E0,9.437292099E0
1.744227996E1,-3.230310678E-1,2.208575249E0,9.590433121E0
1.745227996E1,-4.881358147E-1,2.199003935E0,9.710074425E0
1.746227996E1,-4.881358147E-1,2.199003935E0,9.710074425E0
1.747227996E1,-8.733802438E-1,2.074577332E0,9.712467194E0
1.748227996E1,-8.805587292E-1,2.007578135E0,9.738788605E0
1.749227996E1,-8.997012973E-1,1.931007862E0,9.719645500E0
1.750227996E1,-8.757730722E-1,1.866401672E0,9.600004196E0
1.751227996E1,-8.087740541E-1,1.847259045E0,9.437292099E0
1.752227996E1,-7.202396393E-1,1.868794441E0,9.293723106E0
1.753227996E1,-4.570291340E-1,1.966900229E0,9.049654961E0
1.754227996E1,-3.445664644E-1,1.993221283E0,8.908478737E0
1.755227996E1,-3.373879790E-1,2.076970100E0,8.760123253E0
1.756227996E1,-3.661018610E-1,2.163111687E0,8.628518105E0
1.757227996E1,-4.642075896E-1,2.225325108E0,8.496912956E0
1.758227996E1,-6.628118753E-1,2.254039049E0,8.453842163E0
1.759227996E1,-8.255237937E-1,2.277967215E0,8.542376518E0
1.760227996E1,-6.675975323E-1,2.287538528E0,8.884550095E0
1.761227996E1,-5.479564071E-1,2.163111687E0,9.190832138E0
1.762227996E1,-4.498506486E-1,2.088934183E0,9.621540070E0
1.763227996E1,-4.091726840E-1,2.069791555E0,1.010249710E1
1.764227996E1,-4.689932466E-1,2.007578135E0,1.054277611E1
1.765227996E1,-4.953143001E-1,1.914258122E0,1.086820030E1
1.766227996E1,-3.373879790E-1,1.844866276E0,1.110748291E1
1.767227996E1,-2.392822644E-3,1.746760488E0,1.114816093E1
1.768227996E1,7.178467698E-3,1.756331801E0,1.093759251E1
1.769227996E1,-1.100698411E-1,1.782652855E0,1.064088249E1
1.770227996E1,-1.507478207E-1,1.880758643E0,1.031306553E1
1.771227996E1,-1.507478207E-1,1.880758643E0,1.031306553E1
1.772227996E1,2.153540403E-2,2.065006018E0,9.717252731E0
1.773227996E1,9.571290761E-2,2.143969059E0,9.470791817E0
1.774227996E1,9.571290761E-2,2.143969059E0,9.470791817E0
1.775227996E1,9.571290761E-2,2.143969059E0,9.470791817E0
1.776227996E1,9.571290761E-2,2.143969059E0,9.470791817E0
1.777227996E1,-2.416750938E-1,1.993221283E0,9.238688469E0
1.778227996E1,-9.571290761E-2,2.038684845E0,8.944371223E0
1.779227996E1,1.004985496E-1,2.053041935E0,8.697910309E0
1.780227996E1,1.411765367E-1,2.050648928E0,8.563912392E0
1.781227996E1,1.411765367E-1,2.050648928E0,8.563912392E0
1.782227996E1,1.411765367E-1,2.050648928E0,8.563912392E0
1.783227996E1,-4.761717021E-1,2.275574446E0,8.659625053E0
1.784227996E1,-5.718846321E-1,2.222932339E0,9.016156197E0
1.785227996E1,-5.264210105E-1,2.105684042E0,9.375079155E0
1.786227996E1,-3.684946895E-1,1.988435626E0,9.659825325E0
1.787227996E1,-1.962114573E-1,1.897508383E0,9.836894035E0
1.788227996E1,-7.657032460E-2,1.875972986E0,9.781859398E0
1.789227996E1,-1.914258115E-2,1.895115495E0,9.635896683E0
1.790227996E1,-6.221338734E-2,1.959721804E0,9.422935486E0
1.791227996E1,-1.818545163E-1,2.029113531E0,9.090332985E0
1.792227996E1,-3.445664644E-1,2.100898266E0,8.779266357E0
1.793227996E1,-4.833501875E-1,2.160718918E0,8.494520187E0
1.794227996E1,-5.383850932E-1,2.170290232E0,8.315058708E0
1.795227996E1,-6.364908218E-1,2.189432621E0,8.425128937E0
1.796227996E1,-5.862415433E-1,2.208575249E0,8.681160927E0
1.797227996E1,-5.910272002E-1,2.215753794E0,8.987442017E0
1.798227996E1,-5.647061467E-1,2.153540373E0,9.312865257E0
1.799227996E1,-5.790630579E-1,2.112862349E0,9.638289452E0
1.800227996E1,-5.192425251E-1,2.091326952E0,9.911071777E0
1.801227996E1,-3.924229145E-1,2.069791555E0,1.001635551E1
1.802227996E1,-4.713860750E-1,1.923829436E0,9.762716293E0
1.803227996E1,-4.498506486E-1,1.866401672E0,9.537791252E0
1.804227996E1,-4.618147612E-1,1.844866276E0,9.276973724E0
1.805227996E1,-4.977070987E-1,1.849651933E0,9.042476654E0
1.806227996E1,-5.048855543E-1,1.878365755E0,8.872586250E0
1.807227996E1,-5.024927258E-1,1.995614052E0,8.700303078E0
1.808227996E1,-4.809573591E-1,2.110469580E0,8.571090698E0
1.809227996E1,-4.977070987E-1,2.383251429E0,8.595019341E0
1.810227996E1,-5.670989752E-1,2.462214470E0,8.609375954E0
1.811227996E1,-6.269195080E-1,2.483749866E0,8.702695847E0
1.812227996E1,-6.963114142E-1,2.495713949E0,8.860622406E0
1.813227996E1,-7.944171429E-1,2.481357098E0,9.087940216E0
1.814227996E1,-9.164510965E-1,2.431107759E0,9.262616158E0
1.815227996E1,-8.997012973E-1,2.359323025E0,9.408578873E0
1.816227996E1,-1.004985452E0,2.184647083E0,9.872786522E0
1.817227996E1,-1.009771109E0,2.143969059E0,1.017428207E1
1.818227996E1,-8.949156404E-1,1.923829436E0,1.063370419E1
1.819227996E1,-8.638089895E-1,1.679761529E0,1.117448139E1
1.820227996E1,-7.824530005E-1,1.526620865E0,1.161236858E1
1.821227996E1,-6.125625968E-1,1.505085468E0,1.186361504E1
1.822227996E1,-2.177468538E-1,1.562513232E0,1.186840057E1
1.823227996E1,5.407779217E-1,1.639083505E0,1.106441212E1
1.824227996E1,6.412764788E-1,1.708475351E0,1.043988514E1
1.825227996E1,4.642075896E-1,1.871187329E0,9.736394882E0
1.826227996E1,2.225325108E-1,2.091326952E0,9.061619759E0
1.827227996E1,2.392822690E-2,2.277967215E0,8.537590981E0
1.828227996E1,-1.435693651E-1,2.450250387E0,8.104490280E0
1.829227996E1,-1.938186288E-1,2.560320139E0,7.891529083E0
1.830227996E1,-4.283152521E-1,2.514856577E0,8.417949677E0
1.831227996E1,-4.235295951E-1,2.383251429E0,8.898907661E0
1.832227996E1,-4.019941986E-1,2.263610125E0,9.614361763E0
1.833227996E1,-4.953143001E-1,2.141576290E0,1.045663452E1
1.834227996E1,-4.929214716E-1,1.950150490E0,1.120080280E1
1.835227996E1,-3.014956415E-1,1.708475351E0,1.169611740E1
1.836227996E1,-1.938186288E-1,1.478764415E0,1.188754272E1
1.837227996E1,-1.938186288E-1,1.478764415E0,1.188754272E1
1.838227996E1,-1.938186288E-1,1.478764415E0,1.188754272E1
1.839227996E1,-1.938186288E-1,1.478764415E0,1.188754272E1
1.840227996E1,-1.004985496E-1,1.646261930E0,9.329615593E0
1.841227996E1,-3.349951804E-1,1.832902193E0,8.705088615E0
1.842227996E1,-5.264210105E-1,2.045863390E0,8.269595146E0
1.843227996E1,-5.647061467E-1,2.213361025E0,8.037490845E0
1.844227996E1,-5.647061467E-1,2.213361025E0,8.037490845E0
1.845227996E1,-5.647061467E-1,2.213361025E0,8.037490845E0
1.846227996E1,-4.905286431E-1,2.330609322E0,9.035298347E0
1.847227996E1,-4.378865361E-1,2.222932339E0,9.470791817E0
1.848227996E1,-4.043870270E-1,2.110469580E0,9.858428955E0
1.849227996E1,-4.426721931E-1,2.005185366E0,1.007856941E1
1.850227996E1,-5.168496966E-1,1.923829436E0,1.010010433E1
1.851227996E1,-4.211367965E-1,1.756331801E0,9.707681656E0
1.852227996E1,-3.134597540E-1,1.739582062E0,9.389435768E0
1.853227996E1,-2.775674164E-1,1.770688772E0,9.090332985E0
1.854227996E1,-2.321037948E-1,1.782652855E0,8.776873589E0
1.855227996E1,-9.571290761E-2,1.866401672E0,8.551948547E0
1.856227996E1,6.221338734E-2,2.048256159E0,8.341380119E0
1.857227996E1,1.339980662E-1,2.184647083E0,8.197810173E0
1.858227996E1,-1.938186288E-1,2.426322222E0,8.154739380E0
1.859227996E1,-4.426721931E-1,2.572284460E0,8.319844246E0
1.860227996E1,-6.891329288E-1,2.641676188E0,8.547162056E0
1.861227996E1,-7.154539824E-1,2.603390932E0,8.877371788E0
1.862227996E1,-6.699903607E-1,2.421536446E0,9.279366493E0
1.863227996E1,-6.125625968E-1,2.129612207E0,9.702896118E0
1.864227996E1,-5.934200287E-1,1.902294040E0,1.012403297E1
1.865227996E1,-7.513462901E-1,1.730010748E0,1.062413216E1
1.866227996E1,-7.657032609E-1,1.581655741E0,1.068156052E1
1.867227996E1,-6.364908218E-1,1.550549030E0,1.052363396E1
1.868227996E1,-4.785645306E-1,1.617548108E0,1.020060253E1
1.869227996E1,-4.331009090E-1,1.730010748E0,9.779465675E0
1.870227996E1,-4.474578202E-1,1.832902193E0,9.360722542E0
1.871227996E1,-4.259224236E-1,1.914258122E0,8.997013092E0
1.872227996E1,-2.871387303E-1,2.139183521E0,8.365307808E0
1.873227996E1,-3.038884699E-1,2.304288149E0,8.264809608E0
1.874227996E1,-3.469592929E-1,2.428714991E0,8.362915039E0
1.875227996E1,-4.474578202E-1,2.505285263E0,8.626125336E0
1.876227996E1,-4.450650215E-1,2.498106956E0,9.023334503E0
1.877227996E1,-3.469592929E-1,2.426322222E0,9.475577354E0
1.878227996E1,-2.464607358E-1,2.323430777E0,9.901499748E0
1.879227996E1,-2.273181528E-1,2.024327993E0,1.043988514E1
1.880227996E1,-3.756731451E-1,1.847259045E0,1.047817039E1
1.881227996E1,-5.048855543E-1,1.780260086E0,1.036331463E1
1.882227996E1,-5.024927258E-1,1.794616938E0,1.015274620E1
1.883227996E1,-3.302095234E-1,1.792224169E0,9.884750366E0
1.884227996E1,-1.842473447E-1,1.770688772E0,9.614361763E0
1.885227996E1,-1.842473447E-1,1.770688772E0,9.614361763E0
1.886227996E1,-1.842473447E-1,1.770688772E0,9.614361763E0
1.887227996E1,-1.842473447E-1,1.770688772E0,9.614361763E0
1.888227996E1,-5.694918036E-1,2.103291035E0,8.673981667E0
1.889227996E1,-5.383850932E-1,2.105684042E0,8.580661774E0
1.890227996E1,-5.647061467E-1,2.117648125E0,8.748159409E0
1.891227996E1,-6.699903607E-1,2.136790514E0,9.121439934E0
1.892227996E1,-6.699903607E-1,2.136790514E0,9.121439934E0
1.893227996E1,-6.699903607E-1,2.136790514E0,9.121439934E0
1.894227996E1,-6.699903607E-1,2.136790514E0,9.121439934E0
1.895227996E1,-3.349951804E-1,1.835294962E0,1.037049294E1
1.896227996E1,-1.890329868E-1,1.818545222E0,1.015513897E1
1.897227996E1,-2.225325108E-1,1.897508383E0,9.875179291E0
1.898227996E1,-4.019941986E-1,2.019542217E0,9.631111145E0
1.899227996E1,-4.019941986E-1,2.019542217E0,9.631111145E0
1.900227996E1,-4.019941986E-1,2.019542217E0,9.631111145E0
1.901227996E1,-6.939185858E-1,2.153540373E0,9.138189316E0
1.902227996E1,-7.298108935E-1,2.184647083E0,9.150154114E0
1.903227996E1,-6.197410822E-1,2.163111687E0,9.164510727E0
1.904227996E1,-4.761717021E-1,2.155933142E0,9.162117958E0
1.905227996E1,-2.895315289E-1,2.175075769E0,9.126225471E0
1.906227996E1,-2.895315289E-1,2.175075769E0,9.126225471E0
1.907227996E1,-2.057827413E-1,2.289931297E0,9.080761909E0
1.908227996E1,-4.594219327E-1,2.330609322E0,9.059226990E0
1.909227996E1,-7.154539824E-1,2.289931297E0,9.064012527E0
1.910227996E1,-7.465606928E-1,2.203789711E0,9.104690552E0
1.911227996E1,-4.833501875E-1,2.187039852E0,9.102297783E0
1.912227996E1,-2.368894368E-1,2.148754835E0,9.119047165E0
1.913227996E1,-2.368894368E-1,2.148754835E0,9.119047165E0
1.914227996E1,-1.244267747E-1,2.098505497E0,9.470791817E0
1.915227996E1,-2.392822653E-1,2.206182480E0,9.540184021E0
1.916227996E1,-4.546363056E-1,2.239681959E0,9.580862045E0
1.917227996E1,-5.934200287E-1,2.201396942E0,9.576076508E0
1.918227996E1,-6.460621357E-1,2.105684042E0,9.650253296E0
1.919227996E1,-5.312066078E-1,2.024327993E0,9.765109062E0
1.920227996E1,-1.387837082E-1,2.024327993E0,9.741181374E0
1.921227996E1,-1.172483116E-1,1.995614052E0,9.528220177E0
1.922227996E1,-1.555334777E-1,1.988435626E0,9.375079155E0
1.923227996E1,-2.081755698E-1,2.096112728E0,9.147761345E0
1.924227996E1,-3.349951804E-1,2.191825628E0,8.884550095E0
1.925227996E1,-4.785645306E-1,2.244467735E0,8.626125336E0
1.926227996E1,-6.340979934E-1,2.194218397E0,8.413164139E0
1.927227996E1,-5.192425251E-1,2.158325911E0,8.408378601E0
1.928227996E1,-2.344966233E-1,2.210968018E0,8.606983185E0
1.929227996E1,2.871387079E-2,2.218146563E0,8.860622406E0
1.930227996E1,1.316052526E-1,2.227717876E0,9.128618240E0
1.931227996E1,2.392822644E-3,2.258824587E0,9.351150513E0
1.932227996E1,-1.986042857E-1,2.318645239E0,9.485149384E0
1.933227996E1,-3.637090325E-1,2.356930256E0,9.578469276E0
1.934227996E1,-7.106683254E-1,2.225325108E0,9.741181374E0
1.935227996E1,-8.566305041E-1,2.072184324E0,9.793823242E0
1.936227996E1,-8.566305041E-1,2.072184324E0,9.793823242E0
1.937227996E1,-8.566305041E-1,2.072184324E0,9.793823242E0
1.938227996E1,-1.339980662E-1,1.572084427E0,9.645467758E0
1.939227996E1,3.014956415E-1,1.629512191E0,9.614361763E0
1.940227996E1,4.881358147E-1,1.799402595E0,9.470791817E0
1.941227996E1,4.881358147E-1,1.799402595E0,9.470791817E0
1.942227996E1,4.881358147E-1,1.799402595E0,9.470791817E0
1.943227996E1,4.881358147E-1,1.799402595E0,9.470791817E0
1.944227996E1,3.828516304E-1,2.842673302E0,6.656832695E0
1.945227996E1,-6.221338734E-2,3.165704250E0,6.372086525E0
1.946227996E1,-7.633104324E-1,3.395415306E0,6.556334019E0
1.947227996E1,-1.593619823E0,3.579662561E0,6.778866768E0
1.948227996E1,-1.593619823E0,3.579662561E0,6.778866768E0
1.949227996E1,-1.593619823E0,3.579662561E0,6.778866768E0
1.950227996E1,-1.593619823E0,3.579662561E0,6.778866768E0
1.951227996E1,-1.172483087E0,2.196611166E0,1.146879864E1
1.952227996E1,-7.776673436E-1,1.591227055E0,1.245703506E1
1.953227996E1,-1.842473447E-1,1.189232826E0,1.296191978E1
1.954227996E1,4.091726840E-1,9.379864931E-1,1.311984634E1
1.955227996E1,4.091726840E-1,9.379864931E-1,1.311984634E1
1.956227996E1,4.091726840E-1,9.379864931E-1,1.311984634E1
1.957227996E1,7.441678643E-1,4.689932466E-1,1.138504982E1
1.958227996E1,3.996013701E-1,7.800601721E-1,1.065763187E1
1.959227996E1,1.076770201E-1,1.241874933E0,9.791430473E0
1.960227996E1,-7.178467698E-3,1.832902193E0,9.085547447E0
1.961227996E1,-1.627119333E-1,2.481357098E0,8.695517540E0
1.962227996E1,-1.627119333E-1,2.481357098E0,8.695517540E0
1.963227996E1,-4.570291340E-1,3.211168051E0,8.518448830E0
1.964227996E1,-5.479564071E-1,2.801995277E0,9.087940216E0
1.965227996E1,-6.867401004E-1,2.447857618E0,9.769894600E0
1.966227996E1,-5.934200287E-1,2.172683001E0,1.018863869E1
1.967227996E1,-3.086741269E-1,1.763510346E0,1.047817039E1
1.968227996E1,2.392822644E-3,1.421336651E0,1.071506023E1
1.969227996E1,7.824530005E-1,1.347159147E0,1.081555843E1
1.970227996E1,9.044869542E-1,1.332802176E0,1.075813103E1
1.971227996E1,4.450650215E-1,1.308874011E0,1.055713367E1
1.972227996E1,-3.062812984E-1,1.416550994E0,1.025324535E1
1.973227996E1,-7.561319470E-1,1.758724689E0,9.765109062E0
1.974227996E1,-6.939185858E-1,2.189432621E0,9.248259544E0
1.975227996E1,-4.713860750E-1,2.510071039E0,8.886942863E0
1.976227996E1,-4.713860750E-1,2.510071039E0,8.886942863E0
1.977227996E1,-4.713860750E-1,2.510071039E0,8.886942863E0
1.978227996E1,-4.713860750E-1,2.510071039E0,8.886942863E0
1.979227996E1,-3.206382394E-1,2.311466694E0,8.434700012E0
1.980227996E1,-1.794617027E-1,2.141576290E0,8.343772888E0
1.981227996E1,-1.435693540E-2,2.024327993E0,8.288737297E0
1.982227996E1,-1.148554832E-1,2.021935225E0,8.310273170E0
1.983227996E1,-1.148554832E-1,2.021935225E0,8.310273170E0
1.984227996E1,-1.148554832E-1,2.021935225E0,8.310273170E0
1.985227996E1,-1.148554832E-1,2.021935225E0,8.310273170E0
1.986227996E1,-2.368894368E-1,2.273181438E0,9.600004196E0
1.987227996E1,-1.962114573E-1,2.179861546E0,9.956535339E0
1.988227996E1,-7.657032460E-2,2.100898266E0,1.021974564E1
1.989227996E1,-6.460621208E-2,2.108076811E0,1.049491978E1
1.990227996E1,-6.460621208E-2,2.108076811E0,1.049491978E1
1.991227996E1,-6.460621208E-2,2.108076811E0,1.049491978E1
1.992227996E1,-3.230310678E-1,1.887937069E0,1.110987568E1
1.993227996E1,-2.536391914E-1,1.777867198E0,1.091366386E1
1.994227996E1,-2.225325108E-1,1.725225091E0,1.058824062E1
1.995227996E1,-2.321037948E-1,1.698904037E0,1.014317513E1
1.996227996E1,-1.698904037E-1,1.749153376E0,9.621540070E0
1.997227996E1,5.982056633E-2,1.892722726E0,8.690732002E0
1.998227996E1,3.038884699E-1,1.993221283E0,8.276773453E0
1.999227996E1,3.589234054E-1,2.170290232E0,7.898707390E0
2.000227996E1,1.507478207E-1,2.213361025E0,7.714460373E0
2.001227996E1,-2.775674164E-1,2.344966173E0,7.680960655E0
2.002227996E1,-5.527420044E-1,2.433500528E0,7.858029366E0
2.003227996E1,-5.359922647E-1,2.474178553E0,8.085348129E0
2.004227996E1,-1.435693540E-2,2.380858421E0,9.169296265E0
2.005227996E1,-1.674975827E-2,2.237289190E0,9.731609344E0
2.006227996E1,-1.627119333E-1,2.045863390E0,1.013360405E1
2.007227996E1,-2.871387303E-1,1.844866276E0,1.038724327E1
2.008227996E1,-2.416750938E-1,1.665404558E0,1.042074299E1
2.009227996E1,-1.555334777E-1,1.579262972E0,1.033460140E1
2.010227996E1,-5.503492057E-2,1.581655741E0,1.011685371E1
2.011227996E1,-6.460621208E-2,1.674975872E0,9.451649666E0
2.012227996E1,-5.742774159E-2,1.734796405E0,8.956335068E0
2.013227996E1,1.435693651E-1,1.854437590E0,8.482556343E0
2.014227996E1,2.368894368E-1,2.021935225E0,7.984848976E0
2.015227996E1,2.751746178E-1,2.261217356E0,7.558926582E0
2.016227996E1,3.062812984E-1,2.531606436E0,7.255038261E0
2.017227996E1,2.608176768E-1,2.799602509E0,7.173682213E0
2.018227996E1,-1.579262912E-1,3.443271875E0,7.688138962E0
2.019227996E1,-4.067798555E-1,3.515056372E0,8.226524353E0
2.020227996E1,-6.149554253E-1,3.280559778E0,8.822337151E0
2.021227996E1,-1.071984529E0,2.890529871E0,9.489934921E0
2.022227996E1,-1.253839016E0,2.397608280E0,1.022453117E1
2.023227996E1,-1.038485050E0,1.902294040E0,1.112183952E1
2.024227996E1,-8.614161611E-1,1.500299811E0,1.197129154E1
2.025227996E1,-8.853443712E-2,1.158126116E0,1.274178028E1
2.026227996E1,4.115654826E-1,1.105484009E0,1.270588779E1
2.027227996E1,8.805587292E-1,1.000199914E0,1.252642632E1
2.028227996E1,1.045663476E0,9.308080077E-1,1.234935760E1
2.029227996E1,8.063812256E-1,8.877372146E-1,1.195454216E1
2.030227996E1,5.551348329E-1,1.057627559E0,1.118883896E1
2.031227996E1,5.479564071E-1,1.337587833E0,1.023410225E1
2.032227996E1,8.709874153E-1,1.722832322E0,8.056633949E0
2.033227996E1,6.819544435E-1,1.935793519E0,7.453642368E0
2.034227996E1,4.857429862E-1,2.285145521E0,7.137789726E0
2.035227996E1,7.154539824E-1,2.476571321E0,7.104290485E0
2.036227996E1,8.542376757E-1,2.696711063E0,7.276573658E0
2.037227996E1,6.005984545E-1,2.773281336E0,7.501499176E0
2.038227996E1,2.297109663E-1,2.804388046E0,7.843672752E0
2.039227996E1,2.297109663E-1,2.804388046E0,7.843672752E0
2.040227996E1,2.297109663E-1,2.804388046E0,7.843672752E0
2.041227996E1,2.297109663E-1,2.804388046E0,7.843672752E0
2.042227996E1,2.297109663E-1,2.804388046E0,7.843672752E0
2.043227996E1,-1.818545163E-1,1.816152334E0,1.035852909E1
2.044227996E1,-5.982056633E-2,1.720439434E0,1.063848972E1
2.045227996E1,-8.614161611E-2,1.689332843E0,1.078445148E1
2.046227996E1,-8.614161611E-2,1.689332843E0,1.078445148E1
2.047227996E1,-8.614161611E-2,1.689332843E0,1.078445148E1
2.048227996E1,-8.614161611E-2,1.689332843E0,1.078445148E1
2.049227996E1,3.349951655E-2,1.720439434E0,9.339186668E0
2.050227996E1,2.632104978E-2,1.897508383E0,8.764909744E0
2.051227996E1,1.028913707E-1,2.021935225E0,8.130811691E0
2.052227996E1,2.512463629E-1,2.143969059E0,7.511070251E0
2.053227996E1,2.512463629E-1,2.143969059E0,7.511070251E0
2.054227996E1,2.512463629E-1,2.143969059E0,7.511070251E0
2.055227996E1,1.579262912E-1,2.857030153E0,6.786045074E0
2.056227996E1,0.000000000E0,2.830709219E0,7.113861561E0
2.057227996E1,-5.742774159E-2,2.660818815E0,7.637889862E0
2.058227996E1,-7.178468257E-2,2.354537487E0,8.346165657E0
2.059227996E1,-1.603191197E-1,2.146361828E0,9.059226990E0
2.060227996E1,-1.603191197E-1,2.146361828E0,9.059226990E0
2.061227996E1,-1.603191197E-1,2.146361828E0,9.059226990E0
2.062227996E1,-3.110669553E-1,1.383051515E0,1.190190029E1
2.063227996E1,-2.751746178E-1,1.304088354E0,1.236371422E1
2.064227996E1,-1.435693651E-1,1.272981644E0,1.248096275E1
2.065227996E1,-4.307080805E-2,1.251446247E0,1.229910851E1
2.066227996E1,8.853443712E-2,1.249053478E0,1.189950657E1
2.067227996E1,1.124626622E-1,1.517049551E0,1.075334454E1
2.068227996E1,1.124626622E-1,1.517049551E0,1.075334454E1
2.069227996E1,-1.914258115E-2,1.935793519E0,9.451649666E0
2.070227996E1,7.178467698E-3,2.110469580E0,8.843872070E0
2.071227996E1,2.392822644E-3,2.268395901E0,8.353343964E0
2.072227996E1,-4.546362907E-2,2.455035925E0,7.963313580E0
2.073227996E1,-1.507478207E-1,2.574677229E0,7.805387497E0
2.074227996E1,-9.332008660E-2,2.433500528E0,8.355736732E0
