"Time (s)","Gyroscope x (rad/s)","Gyroscope y (rad/s)","Gyroscope z (rad/s)"
1.587720200E-2,-1.237306595E0,-1.369864196E-1,3.054323979E-2
2.462366000E-2,-1.154839873E0,-1.284343153E-1,1.130099818E-1
3.462366000E-2,-1.033277750E0,-2.732092738E-1,1.863137633E-1
4.462366000E-2,-8.927788734E-1,-4.998401105E-1,2.431241870E-1
5.462366000E-2,-7.565560341E-1,-6.885973215E-1,2.547306120E-1
6.462366000E-2,-6.380482912E-1,-7.228057384E-1,2.193004489E-1
7.462366000E-2,-5.421425104E-1,-6.000219584E-1,1.380554438E-1
8.462366000E-2,-4.749473631E-1,-4.057669342E-1,3.787361458E-2
9.462366000E-2,-4.877755344E-1,-2.964221239E-1,-2.932151034E-2
1.046236600E-1,-4.877755344E-1,-2.964221239E-1,-2.932151034E-2
1.146236600E-1,-6.178897023E-1,-7.154753804E-1,1.710421443E-1
1.246236600E-1,-7.205150127E-1,-8.633046746E-1,2.901607752E-1
1.346236600E-1,-8.542944193E-1,-9.366084337E-1,3.640754223E-1
1.446236600E-1,-1.062599301E0,-9.824233055E-1,3.707949221E-1
1.546236600E-1,-1.337488413E0,-1.028849006E0,3.591884971E-1
1.646236600E-1,-1.337488413E0,-1.028849006E0,3.591884971E-1
1.746236600E-1,-1.337488413E0,-1.028849006E0,3.591884971E-1
1.846236600E-1,-1.337488413E0,-1.028849006E0,3.591884971E-1
1.946236600E-1,-1.337488413E0,-1.028849006E0,3.591884971E-1
2.046236600E-1,-1.280678034E0,-3.129154742E-1,5.882627964E-1
2.146236600E-1,-1.071151376E0,-3.996582925E-1,6.328558922E-1
2.246236600E-1,-9.086613655E-1,-5.407680273E-1,6.866120100E-1
2.346236600E-1,-9.086613655E-1,-5.407680273E-1,6.866120100E-1
2.446236600E-1,-9.086613655E-1,-5.407680273E-1,6.866120100E-1
2.546236600E-1,-9.086613655E-1,-5.407680273E-1,6.866120100E-1
2.646236600E-1,-9.086613655E-1,-5.407680273E-1,6.866120100E-1
2.746236600E-1,-8.261946440E-1,-2.890917659E-1,7.141009569E-1
2.846236600E-1,-8.011491299E-1,-1.974620372E-1,6.291907430E-1
2.946236600E-1,-7.321214676E-1,-1.229365394E-1,5.681042671E-1
3.046236600E-1,-7.321214676E-1,-1.229365394E-1,5.681042671E-1
3.146236600E-1,-7.321214676E-1,-1.229365394E-1,5.681042671E-1
3.246236600E-1,-4.089739621E-1,-2.261726856E-1,6.389645338E-1
3.346236600E-1,-2.360992432E-1,-5.757400393E-2,6.243038177E-1
3.446236600E-1,-1.802051067E-2,1.941022873E-1,6.212494969E-1
3.546236600E-1,2.318231910E-1,4.207331240E-1,6.139190793E-1
3.646236600E-1,4.914407134E-1,5.777253509E-1,5.772672296E-1
3.746236600E-1,7.009673119E-1,6.314814687E-1,3.549124300E-1
3.846236600E-1,6.307178736E-1,6.626355648E-1,1.551596522E-1
3.946236600E-1,4.920515716E-1,7.096721530E-1,-1.038470119E-2
4.046236600E-1,3.112356067E-1,7.719803452E-1,-7.024945319E-2
4.146236600E-1,1.218675226E-1,8.092431426E-1,-8.185587823E-2
4.246236600E-1,-8.338304609E-2,7.622065544E-1,-1.075121984E-1
4.346236600E-1,-2.593120933E-1,5.948295593E-1,-1.472184062E-1
4.446236600E-1,-4.621191919E-1,3.022253513E-1,-1.600465775E-1
4.546236600E-1,-4.877755344E-1,3.303251266E-1,-1.734855920E-1
4.646236600E-1,-4.810560048E-1,4.738783538E-1,-2.144135386E-1
4.746236600E-1,-4.871646762E-1,7.707586288E-1,-2.724456787E-1
4.846236600E-1,-5.146535635E-1,9.766200781E-1,-3.274235129E-1
4.946236600E-1,-5.665770769E-1,6.821832657E-1,-3.604102135E-1
5.046236600E-1,-6.209440231E-1,1.269071549E-1,-3.378082216E-1
5.146236600E-1,-6.282744408E-1,-1.320995092E-1,-9.040798992E-2
5.246236600E-1,-5.910117030E-1,-4.230238497E-2,2.809977904E-2
5.346236600E-1,-5.415316224E-1,1.837175786E-1,1.453858167E-1
5.446236600E-1,-4.676169753E-1,4.060723484E-1,2.333503515E-1
5.546236600E-1,-4.676169753E-1,4.060723484E-1,2.333503515E-1
5.646236600E-1,-2.538143098E-1,7.994692922E-1,3.518581092E-1
5.746236600E-1,-1.615737379E-1,1.044426084E0,3.750709891E-1
5.846236600E-1,-1.615737379E-1,1.044426084E0,3.750709891E-1
5.946236600E-1,-1.615737379E-1,1.044426084E0,3.750709891E-1
6.046236600E-1,-1.615737379E-1,1.044426084E0,3.750709891E-1
6.146236600E-1,-5.842921734E-1,1.358410597E0,-3.176496923E-2
6.246236600E-1,-7.455604672E-1,1.458592415E0,-1.252272725E-1
6.346236600E-1,-8.958331943E-1,1.454927206E0,-1.728747338E-1
6.446236600E-1,-1.029612541E0,1.310152292E0,-1.649334878E-1
6.546236600E-1,-1.029612541E0,1.310152292E0,-1.649334878E-1
6.646236600E-1,-1.029612541E0,1.310152292E0,-1.649334878E-1
6.746236600E-1,-1.238528371E0,2.319758981E-1,-6.047561392E-2
6.846236600E-1,-1.211650252E0,1.262962967E-1,-1.197294965E-1
6.946236600E-1,-1.142622590E0,1.330158114E-1,-1.991419196E-1
7.046236600E-1,-1.014951825E0,1.482874304E-1,-2.645044625E-1
7.146236600E-1,-8.323032856E-1,2.374736816E-1,-2.816086709E-1
7.246236600E-1,-4.401280880E-1,5.758927464E-1,-1.948658675E-1
7.346236600E-1,-2.568686306E-1,6.870701313E-1,-9.346231073E-2
7.446236600E-1,-1.010981202E-1,7.341067195E-1,6.719512399E-3
7.546236600E-1,1.130099874E-2,7.108938694E-1,6.902772188E-2
7.646236600E-1,9.315688163E-2,6.430879235E-1,8.124501258E-2
7.746236600E-1,1.689041108E-1,6.058251262E-1,6.475166976E-2
7.846236600E-1,2.415970266E-1,6.540834904E-1,4.398226365E-2
7.946236600E-1,3.711003661E-1,6.565269232E-1,8.002328873E-2
8.046236600E-1,4.083631039E-1,6.180424690E-1,1.307250559E-1
8.146236600E-1,3.918697536E-1,5.740602016E-1,1.704312712E-1
8.246236600E-1,3.295615613E-1,5.697841048E-1,2.125809491E-1
8.346236600E-1,2.403752953E-1,5.367974043E-1,2.687804997E-1
8.446236600E-1,1.456912458E-1,4.433351159E-1,3.304778337E-1
8.546236600E-1,6.078104675E-2,3.016144931E-1,3.701840639E-1
8.646236600E-1,-4.428769648E-2,5.054906011E-2,3.207040131E-1
8.746236600E-1,-5.467239767E-2,-6.001746282E-2,2.638935745E-1
8.846236600E-1,-3.390299529E-2,-1.467602700E-1,2.101374865E-1
8.946236600E-1,-1.985310577E-2,-4.240928590E-1,1.802051067E-1
9.046236600E-1,-4.184423760E-2,-6.776017547E-1,2.131918073E-1
9.146236600E-1,-6.872228533E-2,-7.026472092E-1,2.907716334E-1
9.246236600E-1,-7.544180006E-2,-7.130318880E-1,3.628536761E-1
9.346236600E-1,6.994401664E-2,-7.185297012E-1,3.866774142E-1
9.446236600E-1,2.098320574E-1,-7.649554014E-1,3.207040131E-1
9.546236600E-1,2.098320574E-1,-7.649554014E-1,3.207040131E-1
9.646236600E-1,2.098320574E-1,-7.649554014E-1,3.207040131E-1
9.746236600E-1,5.574141145E-1,-1.013577342E0,-7.880155742E-2
9.846236600E-1,5.916225314E-1,-1.060003161E0,-2.596175373E-1
9.946236600E-1,5.916225314E-1,-1.097876668E0,-4.324922562E-1
1.004623660E0,5.916225314E-1,-1.097876668E0,-4.324922562E-1
1.014623660E0,5.916225314E-1,-1.097876668E0,-4.324922562E-1
1.024623660E0,5.916225314E-1,-1.097876668E0,-4.324922562E-1
1.034623660E0,5.916225314E-1,-1.097876668E0,-4.324922562E-1
1.044623660E0,2.434296161E-1,-1.647044182E0,-6.230821013E-1
1.054623660E0,1.524107605E-1,-1.834579706E0,-5.595521331E-1
1.064623660E0,6.872228533E-2,-1.981798053E0,-4.593703151E-1
1.074623660E0,6.872228533E-2,-1.981798053E0,-4.593703151E-1
1.084623660E0,-1.023198515E-1,-1.913992047E0,1.893680729E-2
1.094623660E0,-1.029307172E-1,-1.722791433E0,8.918625861E-2
1.104623660E0,-9.743293375E-2,-1.482721567E0,7.024945319E-2
1.114623660E0,-9.987638891E-2,-1.226158381E0,-1.466075517E-2
1.124623660E0,-1.084285006E-1,-9.628756046E-1,-1.197294965E-1
1.134623660E0,-1.194240674E-1,-6.885973215E-1,-2.095266134E-1
1.144623660E0,-8.521563560E-2,-1.693622619E-1,-2.748891413E-1
1.154623660E0,-3.940077871E-2,3.711003438E-2,-2.675587833E-1
1.164623660E0,1.374445762E-2,1.922696829E-1,-2.419024557E-1
1.174623660E0,8.826996386E-2,2.484692484E-1,-1.973093301E-1
1.184623660E0,1.658497900E-1,2.148716897E-1,-1.490510106E-1
1.194623660E0,2.196058929E-1,1.385135949E-1,-1.166751757E-1
1.204623660E0,2.550360560E-1,2.733619884E-2,-1.014035568E-1
1.214623660E0,3.020726442E-1,-2.341139317E-1,-7.086031139E-2
1.224623660E0,3.039052188E-1,-3.000873327E-1,-5.070177838E-2
1.234623660E0,2.861901522E-1,-2.970330119E-1,-3.726275265E-2
1.244623660E0,2.330449075E-1,-2.078467458E-1,-4.092793912E-2
1.254623660E0,1.566868126E-1,-9.728021920E-2,-6.475166976E-2
1.264623660E0,8.032871783E-2,-2.275471389E-2,-9.224057943E-2
1.274623660E0,1.985310577E-2,-2.519817278E-2,-1.099556610E-1
1.284623660E0,7.024944760E-3,-2.487746775E-1,-6.047561392E-2
1.294623660E0,5.955931544E-2,-3.678933084E-1,2.565632015E-2
1.304623660E0,1.316413581E-1,-4.393644929E-1,9.468404204E-2
1.314623660E0,1.915061027E-1,-4.344775677E-1,1.148425788E-1
1.324623660E0,2.110537887E-1,-3.092502952E-1,6.475166976E-2
1.334623660E0,2.147189677E-1,-1.088866442E-1,-2.260199748E-2
1.344623660E0,2.318231910E-1,1.440113783E-1,-1.307250559E-1
1.354623660E0,3.961458206E-1,6.705768108E-1,-3.115410507E-1
1.364623660E0,3.961458206E-1,6.705768108E-1,-3.115410507E-1
1.374623660E0,3.961458206E-1,6.705768108E-1,-3.115410507E-1
1.384623660E0,3.961458206E-1,6.705768108E-1,-3.115410507E-1
1.394623660E0,9.349285364E-1,1.225242019E0,-3.585776389E-1
1.404623660E0,1.065042734E0,1.373682141E0,-3.255909383E-1
1.414623660E0,1.179885268E0,1.602756500E0,-2.877173126E-1
1.424623660E0,1.179885268E0,1.602756500E0,-2.877173126E-1
1.434623660E0,1.179885268E0,1.602756500E0,-2.877173126E-1
1.444623660E0,1.179885268E0,1.602756500E0,-2.877173126E-1
1.454623660E0,1.236084938E0,3.749182522E-1,-9.712749720E-2
1.464623660E0,9.941824079E-1,-9.666935354E-2,-1.783725172E-1
1.474623660E0,7.834340930E-1,-8.384118974E-2,-2.773326039E-1
1.484623660E0,5.824595690E-1,-5.085449293E-2,-3.567450345E-1
1.494623660E0,5.824595690E-1,-5.085449293E-2,-3.567450345E-1
1.504623660E0,5.824595690E-1,-5.085449293E-2,-3.567450345E-1
1.514623660E0,-8.032871783E-2,-1.162170246E-1,-3.982838392E-1
1.524623660E0,-1.676823795E-1,-1.198822111E-1,-3.414734006E-1
1.534623660E0,-2.251036763E-1,-1.528689116E-1,-2.755000293E-1
1.544623660E0,-2.483165264E-1,-1.785252392E-1,-2.021962404E-1
1.554623660E0,-2.544251680E-1,-1.180496216E-1,-1.502727419E-1
1.564623660E0,-2.544251680E-1,-1.180496216E-1,-1.502727419E-1
1.574623660E0,-2.489273995E-1,2.661843300E-1,-1.606574357E-1
1.584623660E0,-2.715294063E-1,3.651444316E-1,-2.101374865E-1
1.594623660E0,-3.069595397E-1,3.584249020E-1,-2.651153207E-1
1.604623660E0,-3.546070158E-1,2.735147178E-1,-3.145953715E-1
1.614623660E0,-4.053087831E-1,1.354592592E-1,-3.463603258E-1
1.624623660E0,-4.566214085E-1,-3.252854943E-2,-3.549124300E-1
1.634623660E0,-5.262600183E-1,-3.049742281E-1,-2.516762912E-1
1.644623660E0,-5.580250025E-1,-3.966039717E-1,-1.631008983E-1
1.654623660E0,-5.867356062E-1,-4.607447684E-1,-7.513637096E-2
1.664623660E0,-5.934551358E-1,-4.980075061E-1,1.160643063E-2
1.674623660E0,-5.812378526E-1,-5.102248192E-1,6.902772188E-2
1.684623660E0,-5.604684353E-1,-5.426006317E-1,7.147117704E-2
1.694623660E0,-5.335903764E-1,-5.816959739E-1,3.665188700E-2
1.704623660E0,-4.407389462E-1,-4.961749315E-1,2.138026804E-2
1.714623660E0,-3.857611120E-1,-3.819431961E-1,4.825831577E-2
1.724623660E0,-3.387245238E-1,-2.793179154E-1,6.047561392E-2
1.734623660E0,-3.100138903E-1,-2.506072819E-1,3.420842811E-2
1.744623660E0,-3.045161068E-1,-3.049742281E-1,-2.138026804E-2
1.754623660E0,-2.800815105E-1,-3.941605091E-1,-5.619955808E-2
1.764623660E0,-2.593120933E-1,-4.051560760E-1,-1.154534444E-1
1.774623660E0,-1.634063274E-1,-3.025307953E-1,-2.186895907E-1
1.784623660E0,-1.634063274E-1,-3.025307953E-1,-2.186895907E-1
1.794623660E0,-1.634063274E-1,-3.025307953E-1,-2.186895907E-1
1.804623660E0,-1.634063274E-1,-3.025307953E-1,-2.186895907E-1
1.814623660E0,1.627954692E-1,-2.947422490E-2,-1.557705253E-1
1.824623660E0,1.780670881E-1,-7.635809598E-4,-1.331685185E-1
1.834623660E0,1.548542231E-1,4.123337101E-3,-1.123991162E-1
1.844623660E0,1.548542231E-1,4.123337101E-3,-1.123991162E-1
1.854623660E0,1.548542231E-1,4.123337101E-3,-1.123991162E-1
1.864623660E0,1.548542231E-1,4.123337101E-3,-1.123991162E-1
1.874623660E0,-1.456912458E-1,-2.921460867E-1,-2.199113220E-1
1.884623660E0,-1.792888194E-1,-2.762635946E-1,-2.596175373E-1
1.894623660E0,-1.896735132E-1,-2.005163580E-1,-2.883281708E-1
1.904623660E0,-1.768453568E-1,-1.033888608E-1,-2.981020212E-1
1.914623660E0,-1.768453568E-1,-1.033888608E-1,-2.981020212E-1
1.924623660E0,-1.768453568E-1,-1.033888608E-1,-2.981020212E-1
1.934623660E0,-1.151480079E-1,5.971203372E-2,-2.871064544E-1
1.944623660E0,-9.132428467E-2,4.810560122E-2,-2.706131041E-1
1.954623660E0,-5.894844979E-2,2.183841541E-2,-2.461785078E-1
1.964623660E0,-2.596175298E-2,1.328630932E-2,-2.095266134E-1
1.974623660E0,1.130099874E-2,3.405570984E-2,-1.582139730E-1
1.984623660E0,9.682206810E-2,1.379027218E-1,-4.764745384E-2
1.994623660E0,1.328630894E-1,2.124282271E-1,-4.886918236E-3
2.004623660E0,1.572976857E-1,3.046688139E-1,2.504545636E-2
2.014623660E0,1.572976857E-1,3.706422150E-1,4.642572254E-2
2.024623660E0,1.304196268E-1,3.547597229E-1,6.475166976E-2
2.034623660E0,7.605266571E-2,2.588539422E-1,8.307760954E-2
2.044623660E0,3.054323897E-4,1.171333194E-1,1.032361463E-1
2.054623660E0,-1.389717311E-1,-1.601992846E-1,1.343902498E-1
2.064623660E0,-1.798996776E-1,-2.634354234E-1,1.270598769E-1
2.074623660E0,-2.092211843E-1,-3.123046160E-1,8.246674389E-2
2.084623660E0,-2.269362658E-1,-3.208567202E-1,1.466075517E-2
2.094623660E0,-2.183841616E-1,-2.878700197E-1,-4.214967042E-2
2.104623660E0,-1.805105358E-1,-2.035706937E-1,-6.536252797E-2
2.114623660E0,-1.249218509E-1,-7.101303339E-2,-5.681042373E-2
2.124623660E0,1.374445762E-2,1.879936308E-1,1.954767294E-2
2.134623660E0,6.505709887E-2,2.674060464E-1,7.330377400E-2
2.144623660E0,7.483093441E-2,2.900080681E-1,1.209512278E-1
2.154623660E0,4.367683083E-2,2.637408674E-1,1.374445707E-1
2.164623660E0,-1.985310577E-2,1.800523996E-1,1.160643101E-1
2.174623660E0,-9.193515033E-2,3.955349326E-2,6.475166976E-2
2.184623660E0,-1.707367003E-1,-1.290451884E-1,-9.773836471E-3
2.194623660E0,-2.770271897E-1,-4.375318885E-1,-2.290742993E-1
2.204623660E0,-2.538143098E-1,-4.735729098E-1,-3.219257295E-1
2.214623660E0,-1.805105358E-1,-3.788888752E-1,-3.591884971E-1
2.224623660E0,-8.399390429E-2,-1.718057245E-1,-3.549124300E-1
2.234623660E0,1.191186346E-2,7.864884287E-2,-3.304778337E-1
2.244623660E0,1.017089859E-1,2.808450758E-1,-2.846629918E-1
2.254623660E0,1.878409237E-1,3.895790279E-1,-2.021962404E-1
2.264623660E0,1.878409237E-1,3.895790279E-1,-2.021962404E-1
2.274623660E0,1.878409237E-1,3.895790279E-1,-2.021962404E-1
2.284623660E0,1.878409237E-1,3.895790279E-1,-2.021962404E-1
2.294623660E0,1.878409237E-1,3.895790279E-1,-2.021962404E-1
2.304623660E0,1.817322671E-1,9.392046183E-2,-7.941242307E-3
2.314623660E0,1.175914705E-1,2.916879393E-2,3.115410358E-2
2.324623660E0,5.467239767E-2,1.206457894E-2,9.224057943E-2
2.334623660E0,5.467239767E-2,1.206457894E-2,9.224057943E-2
2.344623660E0,5.467239767E-2,1.206457894E-2,9.224057943E-2
2.354623660E0,5.467239767E-2,1.206457894E-2,9.224057943E-2
2.364623660E0,-2.562577724E-1,-3.049742281E-1,4.031707719E-2
2.374623660E0,-2.629773021E-1,-3.263545036E-1,-4.276053607E-2
2.384623660E0,-2.299905866E-1,-3.025307953E-1,-1.044578776E-1
2.394623660E0,-1.572976857E-1,-2.414443046E-1,-1.423314959E-1
2.404623660E0,-1.572976857E-1,-2.414443046E-1,-1.423314959E-1
2.414623660E0,-1.572976857E-1,-2.414443046E-1,-1.423314959E-1
2.424623660E0,2.605338395E-1,2.276998460E-1,-1.594357044E-1
2.434623660E0,3.216203153E-1,2.173151523E-1,-1.502727419E-1
2.444623660E0,3.161225319E-1,2.032652497E-1,-1.600465775E-1
2.454623660E0,2.587012351E-1,1.647807807E-1,-1.661552191E-1
2.464623660E0,1.658497900E-1,9.697478265E-2,-1.435532272E-1
2.474623660E0,1.658497900E-1,9.697478265E-2,-1.435532272E-1
2.484623660E0,-1.811214089E-1,-8.994983882E-2,-2.932151034E-2
2.494623660E0,-2.929096520E-1,-1.156061590E-1,-4.520399496E-2
2.504623660E0,-3.949240744E-1,-1.461493969E-1,-1.007926911E-1
2.514623660E0,-4.572322965E-1,-2.011272311E-1,-1.838703007E-1
2.524623660E0,-4.584540129E-1,-2.261726856E-1,-2.675587833E-1
2.534623660E0,-4.077522457E-1,-1.901316643E-1,-3.298669755E-1
2.544623660E0,-2.470948100E-1,-7.406735420E-2,-4.153880477E-1
2.554623660E0,-1.469129771E-1,-1.298087649E-2,-4.184423685E-1
2.564623660E0,-4.612028971E-2,7.864884287E-2,-4.135554433E-1
2.574623660E0,4.612028971E-2,1.275180280E-1,-4.007273018E-1
2.584623660E0,1.133154184E-1,1.379027218E-1,-3.628536761E-1
2.594623660E0,1.261435747E-1,1.592829973E-1,-2.712239623E-1
2.604623660E0,9.621120244E-2,8.597921580E-2,-1.325576603E-1
2.614623660E0,-3.084867075E-2,-3.863719851E-2,1.722638607E-1
2.624623660E0,-8.460476995E-2,-5.650499370E-3,3.133736253E-1
2.634623660E0,-1.151480079E-1,-4.428769462E-3,4.257727563E-1
2.644623660E0,-1.237001196E-1,-1.664606482E-2,5.027416945E-1
2.654623660E0,-1.188132018E-1,4.627300799E-2,5.528326035E-1
2.664623660E0,-9.315688163E-2,1.470656991E-1,5.858193040E-1
2.674623660E0,-4.734202102E-2,2.167042792E-1,5.943714380E-1
2.684623660E0,9.621120244E-2,2.118173689E-1,5.546652079E-1
2.694623660E0,1.725693047E-1,1.678351015E-1,4.996874034E-1
2.704623660E0,2.415970266E-1,1.385135949E-1,4.282162189E-1
2.714623660E0,3.026835024E-1,9.575305134E-2,3.488037884E-1
2.724623660E0,3.601047993E-1,9.621120058E-3,2.614501119E-1
2.734623660E0,4.016436040E-1,-1.082757786E-1,1.411097646E-1
2.744623660E0,4.303542376E-1,-2.591593862E-1,-7.330377586E-3
2.754623660E0,4.303542376E-1,-2.591593862E-1,-7.330377586E-3
2.764623660E0,4.303542376E-1,-2.591593862E-1,-7.330377586E-3
2.774623660E0,4.303542376E-1,-2.591593862E-1,-7.330377586E-3
2.784623660E0,4.834994674E-1,-5.456549525E-1,-1.960875988E-1
2.794623660E0,4.340194166E-1,-5.939132571E-1,-1.356119812E-1
2.804623660E0,3.515526950E-1,-6.171261668E-1,-8.491020650E-2
2.814623660E0,2.116646469E-1,-5.816959739E-1,-1.343902480E-2
2.824623660E0,2.116646469E-1,-5.816959739E-1,-1.343902480E-2
2.834623660E0,2.116646469E-1,-5.816959739E-1,-1.343902480E-2
2.844623660E0,4.663952589E-1,1.399338484E0,2.828303874E-1
2.854623660E0,6.881392002E-1,1.356577992E0,1.820377111E-1
2.864623660E0,8.390227556E-1,6.052142978E-1,4.581485689E-2
2.874623660E0,9.007201195E-1,1.702785641E-1,-9.590577334E-2
2.884623660E0,8.726203442E-1,-4.780016840E-2,-2.217439115E-1
2.894623660E0,7.229584455E-1,-1.834121495E-1,-2.125809491E-1
2.904623660E0,6.844739914E-1,-9.056070447E-2,-1.087339297E-1
2.914623660E0,6.960803866E-1,3.466657549E-2,1.221729559E-3
2.924623660E0,7.241802216E-1,1.226311028E-1,8.246674389E-2
2.934623660E0,7.425061464E-1,1.507308781E-1,1.276707351E-1
2.944623660E0,7.321214676E-1,1.189659163E-1,1.514944583E-1
2.954623660E0,6.832522750E-1,5.665770918E-2,1.685986817E-1
2.964623660E0,3.912588954E-1,-1.595884264E-1,1.918115467E-1
2.974623660E0,1.811214089E-1,-2.194531709E-1,1.930332631E-1
2.984623660E0,-6.414080039E-3,-1.754709035E-1,1.624900252E-1
2.994623660E0,-1.493564397E-1,-6.307178736E-2,7.941242307E-2
3.004623660E0,-2.629773021E-1,9.941824526E-2,4.886918236E-3
3.014623660E0,-3.723220825E-1,2.600756884E-1,-3.298669681E-2
3.024623660E0,-4.547888339E-1,3.187187016E-1,-3.359756246E-2
3.034623660E0,-6.117810607E-1,7.559451461E-2,-9.773836471E-3
3.044623660E0,-7.913753390E-1,-1.730274558E-1,1.221729559E-3
3.054623660E0,-1.014951825E0,-4.778489769E-1,-2.138026804E-2
3.064623660E0,-1.223867536E0,-7.783944607E-1,-8.124501258E-2
3.074623660E0,-1.340542793E0,-9.518800378E-1,-1.698204130E-1
3.084623660E0,-1.380249023E0,-8.339831233E-1,-3.500255048E-1
3.094623660E0,-1.269071579E0,-4.534143806E-1,-5.681042671E-1
3.104623660E0,-5.042688847E-1,4.946477413E-1,-7.788525820E-1
3.114623660E0,-2.962694131E-2,6.992874742E-1,-7.000510097E-1
3.124623660E0,4.279107749E-1,6.241511106E-1,-5.338957906E-1
3.134623660E0,8.353576064E-1,4.415025115E-1,-3.481929302E-1
3.144623660E0,1.120631456E0,2.454149276E-1,-1.734855920E-1
3.154623660E0,1.187215686E0,6.276635826E-2,-6.963858753E-2
3.164623660E0,1.187215686E0,6.276635826E-2,-6.963858753E-2
3.174623660E0,1.187215686E0,6.276635826E-2,-6.963858753E-2
3.184623660E0,1.187215686E0,6.276635826E-2,-6.963858753E-2
3.194623660E0,1.187215686E0,6.276635826E-2,-6.963858753E-2
3.204623660E0,-7.064651251E-1,-4.613556266E-1,3.726275265E-2
3.214623660E0,-8.903354406E-1,-3.269653618E-1,9.834922850E-2
3.224623660E0,-9.868520498E-1,-2.402225733E-1,1.087339297E-1
3.234623660E0,-9.868520498E-1,-2.402225733E-1,1.087339297E-1
3.244623660E0,-9.868520498E-1,-2.402225733E-1,1.087339297E-1
3.254623660E0,-9.868520498E-1,-2.402225733E-1,1.087339297E-1
3.264623660E0,1.371391416E-1,4.586067200E-1,-5.681042373E-2
3.274623660E0,5.360338688E-1,6.015490890E-1,-6.658425927E-2
3.284623660E0,8.683443069E-1,6.931788325E-1,-3.970621154E-2
3.294623660E0,1.104748964E0,7.102830410E-1,-4.886918236E-3
3.304623660E0,1.104748964E0,7.102830410E-1,-4.886918236E-3
3.314623660E0,1.104748964E0,7.102830410E-1,-4.886918236E-3
3.324623660E0,8.445205688E-1,4.812087417E-1,-5.681042373E-2
3.334623660E0,5.995637774E-1,2.619082630E-1,-4.276053607E-2
3.344623660E0,3.796524704E-1,1.446222365E-1,-6.719512399E-3
3.354623660E0,2.153298408E-1,1.470656991E-1,3.848448023E-2
3.364623660E0,1.065959036E-1,2.234237939E-1,8.491020650E-2
3.374623660E0,1.065959036E-1,2.234237939E-1,8.491020650E-2
3.384623660E0,-6.566796452E-2,3.614792228E-1,1.924224049E-1
3.394623660E0,-9.376774728E-2,3.284925222E-1,2.028071135E-1
3.404623660E0,-8.521563560E-2,2.411388755E-1,1.704312712E-1
3.414623660E0,-4.428769648E-2,1.971566081E-1,1.374445707E-1
3.424623660E0,2.107483521E-2,2.093739063E-1,1.130099818E-1
3.434623660E0,1.017089859E-1,2.637408674E-1,8.674279600E-2
3.444623660E0,2.269362658E-1,3.284925222E-1,7.941242307E-3
3.454623660E0,2.721402645E-1,3.339903057E-1,-4.276053607E-2
3.464623660E0,3.014617562E-1,3.297142684E-1,-9.346231073E-2
3.474623660E0,3.149007857E-1,3.028362095E-1,-1.215620935E-1
3.484623660E0,3.100138903E-1,2.582430840E-1,-1.215620935E-1
3.494623660E0,2.813032269E-1,1.843284518E-1,-1.026252806E-1
3.504623660E0,2.299905866E-1,8.842267841E-2,-7.452550530E-2
3.514623660E0,2.299905866E-1,8.842267841E-2,-7.452550530E-2
3.524623660E0,2.299905866E-1,8.842267841E-2,-7.452550530E-2
3.534623660E0,2.299905866E-1,8.842267841E-2,-7.452550530E-2
3.544623660E0,2.299905866E-1,8.842267841E-2,-7.452550530E-2
3.554623660E0,-2.941313982E-1,-2.585485280E-1,1.117882580E-1
3.564623660E0,-3.423897028E-1,-1.944077164E-1,8.857539296E-2
3.574623660E0,-3.827067912E-1,-1.968511790E-1,3.848448023E-2
3.584623660E0,-3.827067912E-1,-1.968511790E-1,3.848448023E-2
3.594623660E0,-3.827067912E-1,-1.968511790E-1,3.848448023E-2
3.604623660E0,-3.827067912E-1,-1.968511790E-1,3.848448023E-2
3.614623660E0,-3.827067912E-1,-1.968511790E-1,3.848448023E-2
3.624623660E0,-6.227766275E-1,-5.444332361E-1,-1.203403622E-1
3.634623660E0,-7.370083332E-1,-7.087558508E-1,-1.392771751E-1
3.644623660E0,-8.481857181E-1,-8.345940113E-1,-1.288924664E-1
3.654623660E0,-8.481857181E-1,-8.345940113E-1,-1.288924664E-1
3.664623660E0,-8.481857181E-1,-8.345940113E-1,-1.288924664E-1
3.674623660E0,-8.481857181E-1,-8.345940113E-1,-1.288924664E-1
3.684623660E0,-6.111702323E-1,-2.267835438E-1,4.948004708E-2
3.694623660E0,-4.346303046E-1,6.276635826E-2,-6.719512399E-3
3.704623660E0,-2.470948100E-1,2.228129357E-1,-6.475166976E-2
3.714623660E0,-5.283980444E-2,3.101665974E-1,-7.391463965E-2
3.724623660E0,-5.283980444E-2,3.101665974E-1,-7.391463965E-2
3.734623660E0,-5.283980444E-2,3.101665974E-1,-7.391463965E-2
3.744623660E0,5.207622051E-1,3.284925222E-1,-6.108647678E-3
3.754623660E0,5.745183229E-1,2.283107042E-1,1.832594397E-3
3.764623660E0,5.806269646E-1,9.514218569E-2,1.954767294E-2
3.774623660E0,5.262600183E-1,-6.551524997E-2,3.237583488E-2
3.784623660E0,4.260781705E-1,-1.992946416E-1,4.642572254E-2
3.794623660E0,4.260781705E-1,-1.992946416E-1,4.642572254E-2
3.804623660E0,8.582650125E-2,-2.915352285E-1,4.764745384E-2
3.814623660E0,-3.359756200E-3,-3.159697950E-1,3.359756246E-2
3.824623660E0,-7.788526267E-2,-3.556760252E-1,3.787361458E-2
3.834623660E0,-1.444695145E-1,-3.605629504E-1,5.436696485E-2
3.844623660E0,-1.860083193E-1,-2.952004075E-1,5.375609919E-2
3.854623660E0,-1.847866029E-1,-1.333212405E-1,2.626718581E-2
3.864623660E0,-2.840521187E-2,3.791943192E-1,-1.441640854E-1
3.874623660E0,1.224783882E-1,5.282453299E-1,-1.667660922E-1
3.884623660E0,2.709185183E-1,5.563451052E-1,-1.258381456E-1
3.894623660E0,3.753764033E-1,4.616610706E-1,-5.558869615E-2
3.904623660E0,4.077522457E-1,3.113883138E-1,2.015853859E-2
3.914623660E0,3.802633286E-1,1.831067204E-1,7.330377400E-2
3.924623660E0,3.283398151E-1,1.311832070E-1,8.491020650E-2
3.934623660E0,3.008508980E-1,3.266599476E-1,4.948004708E-2
3.944623660E0,3.008508980E-1,3.266599476E-1,4.948004708E-2
3.954623660E0,4.755582213E-1,5.624537468E-1,-4.886918236E-3
3.964623660E0,5.708531141E-1,6.259836555E-1,-2.809977904E-2
3.974623660E0,6.539307237E-1,6.589703560E-1,-9.590577334E-2
3.984623660E0,6.918043494E-1,5.820014477E-1,-1.924224049E-1
3.994623660E0,6.264418364E-1,3.828594983E-1,-2.596175373E-1
4.004623660E0,4.123337194E-2,-6.429351866E-2,-2.260199636E-1
4.014623660E0,-5.207622051E-1,-4.173733592E-1,-1.991419196E-1
4.024623660E0,-1.133459568E0,-1.103985429E0,-9.101885557E-2
4.034623660E0,-1.702785611E0,-1.728289127E0,9.468404204E-2
4.044623660E0,-2.057698011E0,-1.881005406E0,2.394589931E-1
4.054623660E0,-2.120617151E0,-1.628718257E0,2.693913579E-1
4.064623660E0,-1.940411925E0,-1.110704899E0,2.040288299E-1
4.074623660E0,-1.203709006E0,9.453132749E-2,-6.352993846E-2
4.084623660E0,-1.203709006E0,9.453132749E-2,-6.352993846E-2
4.094623660E0,-1.203709006E0,9.453132749E-2,-6.352993846E-2
4.104623660E0,-1.203709006E0,9.453132749E-2,-6.352993846E-2
4.114623660E0,-1.203709006E0,9.453132749E-2,-6.352993846E-2
4.124623660E0,-1.203709006E0,9.453132749E-2,-6.352993846E-2
4.134623660E0,8.445205688E-1,-4.851793647E-1,-1.685986817E-1
4.144623660E0,8.445205688E-1,-4.851793647E-1,-1.685986817E-1
4.154623660E0,8.445205688E-1,-4.851793647E-1,-1.685986817E-1
4.164623660E0,8.445205688E-1,-4.851793647E-1,-1.685986817E-1
4.174623660E0,8.445205688E-1,-4.851793647E-1,-1.685986817E-1
4.184623660E0,-3.869828284E-1,-7.942769527E-1,-3.646862805E-1
4.194623660E0,-6.270527244E-1,-9.243911505E-1,-3.316995800E-1
4.204623660E0,-8.579595685E-1,-1.103374481E0,-2.364046723E-1
4.214623660E0,-8.579595685E-1,-1.103374481E0,-2.364046723E-1
4.224623660E0,-8.579595685E-1,-1.103374481E0,-2.364046723E-1
4.234623660E0,-8.579595685E-1,-1.103374481E0,-2.364046723E-1
4.244623660E0,-4.425715208E-1,1.959348768E-1,2.871064469E-2
4.254623660E0,-3.145953640E-2,7.982475758E-1,-4.642572254E-2
4.264623660E0,3.857611120E-1,1.260672212E0,-1.001818255E-1
4.274623660E0,7.553343177E-1,1.509904981E0,-1.295033395E-1
4.284623660E0,7.553343177E-1,1.509904981E0,-1.295033395E-1
4.294623660E0,7.553343177E-1,1.509904981E0,-1.295033395E-1
4.304623660E0,1.393687963E0,1.218522549E0,1.893680729E-2
4.314623660E0,1.393687963E0,1.218522549E0,1.893680729E-2
4.324623660E0,1.195767760E0,9.289726019E-1,-5.192350596E-2
4.334623660E0,1.006399751E0,7.072287202E-1,-9.162971377E-2
4.344623660E0,7.651081085E-1,3.920224607E-1,-1.350011230E-1
4.354623660E0,7.651081085E-1,3.920224607E-1,-1.350011230E-1
4.364623660E0,-2.251036763E-1,-9.280562997E-1,-7.513637096E-2
4.374623660E0,-5.531380773E-1,-1.164461017E0,-3.359756246E-2
4.384623660E0,-8.048143387E-1,-1.158963203E0,3.054323979E-2
4.394623660E0,-9.300416112E-1,-9.524909258E-1,1.087339297E-1
4.404623660E0,-9.049961567E-1,-6.000219584E-1,1.533270627E-1
4.414623660E0,-7.608320713E-1,-1.302669197E-1,1.527161896E-1
4.424623660E0,-7.608320713E-1,-1.302669197E-1,1.527161896E-1
4.434623660E0,1.627954692E-1,1.166599035E0,1.429423541E-1
4.444623660E0,5.018253922E-1,1.320536971E0,1.227838174E-1
4.454623660E0,8.023709059E-1,1.345582366E0,1.105665267E-1
4.464623660E0,1.043051600E0,1.267391682E0,8.552107215E-2
4.474623660E0,1.209206820E0,1.104290843E0,4.948004708E-2
4.484623660E0,1.303279996E0,9.222530723E-1,2.504545636E-2
4.494623660E0,1.374140263E0,7.603739500E-1,9.162971750E-3
4.504623660E0,1.313053846E0,6.956222653E-1,-2.443459118E-3
4.514623660E0,1.185383081E0,6.473639607E-1,-4.153880477E-2
4.524623660E0,1.014340997E0,5.557342172E-1,-7.391463965E-2
4.534623660E0,8.170316219E-1,3.993528485E-1,-8.368847519E-2
4.544623660E0,5.891790986E-1,1.800523996E-1,-9.346231073E-2
4.554623660E0,3.417788446E-1,-8.750637621E-2,-1.276707351E-1
4.564623660E0,-1.976147592E-1,-6.348412037E-1,-1.557705253E-1
4.574623660E0,-4.291325212E-1,-8.523091078E-1,-1.453858167E-1
4.584623660E0,-6.215549111E-1,-1.039233685E0,-1.203403622E-1
4.594623660E0,-7.651081085E-1,-1.146135092E0,-5.742128938E-2
4.604623660E0,-8.494074941E-1,-1.104596257E0,5.925388262E-2
4.614623660E0,-8.573487401E-1,-8.828523159E-1,1.685986817E-1
4.624623660E0,-8.078686595E-1,-5.633700490E-1,2.083048970E-1
4.634623660E0,-8.078686595E-1,-5.633700490E-1,2.083048970E-1
4.644623660E0,-8.078686595E-1,-5.633700490E-1,2.083048970E-1
4.654623660E0,-8.078686595E-1,-5.633700490E-1,2.083048970E-1
4.664623660E0,-8.078686595E-1,-5.633700490E-1,2.083048970E-1
4.674623660E0,1.731801629E-1,1.782197952E-1,-2.626718581E-2
4.684623660E0,2.788597643E-1,1.831067204E-1,-3.848448023E-2
4.694623660E0,3.375027776E-1,1.684459597E-1,-4.886918142E-2
4.704623660E0,3.375027776E-1,1.684459597E-1,-4.886918142E-2
4.714623660E0,3.375027776E-1,1.684459597E-1,-4.886918142E-2
4.724623660E0,3.375027776E-1,1.684459597E-1,-4.886918142E-2
4.734623660E0,3.375027776E-1,1.684459597E-1,-4.886918142E-2
4.744623660E0,-8.216131479E-2,-7.101303339E-2,-1.954767294E-2
4.754623660E0,-1.505781710E-1,-7.467821985E-2,6.108647678E-3
4.764623660E0,-1.976147592E-1,-7.223475724E-2,2.687804960E-2
4.774623660E0,-1.976147592E-1,-7.223475724E-2,2.687804960E-2
4.784623660E0,-1.976147592E-1,-7.223475724E-2,2.687804960E-2
4.794623660E0,-2.935205400E-1,-7.101303339E-2,6.291907281E-2
4.804623660E0,-2.874118686E-1,-4.780016840E-2,7.208204269E-2
4.814623660E0,-2.452622056E-1,-1.527161949E-4,7.635809481E-2
4.824623660E0,-1.652389169E-1,7.864884287E-2,6.536252797E-2
4.834623660E0,-5.467239767E-2,2.026543915E-1,4.642572254E-2
4.844623660E0,-5.467239767E-2,2.026543915E-1,4.642572254E-2
4.854623660E0,-5.467239767E-2,2.026543915E-1,4.642572254E-2
4.864623660E0,3.930914998E-1,5.196931958E-1,-2.626718581E-2
4.874623660E0,4.413498044E-1,4.482220411E-1,-2.809977904E-2
4.884623660E0,4.291325212E-1,3.352120519E-1,-1.404988952E-2
4.894623660E0,3.558287323E-1,1.879936308E-1,-4.886918236E-3
4.904623660E0,2.373209596E-1,1.206457894E-2,-5.497782957E-3
4.914623660E0,2.373209596E-1,1.206457894E-2,-5.497782957E-3
4.924623660E0,-1.676823795E-1,-2.603811026E-1,1.099556591E-2
4.934623660E0,-2.611446977E-1,-2.805396616E-1,1.893680729E-2
4.944623660E0,-3.356702030E-1,-3.202458620E-1,2.748891525E-2
4.954623660E0,-3.943132162E-1,-3.428478539E-1,3.909534588E-2
4.964623660E0,-4.193586707E-1,-3.153589368E-1,5.070177838E-2
4.974623660E0,-4.205803871E-1,-2.298378795E-1,6.597339362E-2
4.984623660E0,-3.674351573E-1,-7.345648855E-2,8.552107215E-2
4.994623660E0,-3.466657698E-1,-2.641990222E-2,1.032361463E-1
5.004623660E0,-3.100138903E-1,-3.207040019E-3,1.001818255E-1
5.014623660E0,-2.599229515E-1,-1.985310577E-3,8.979712427E-2
5.024623660E0,-1.994473487E-1,-8.093958721E-3,8.674279600E-2
5.034623660E0,-1.359174103E-1,4.123337101E-3,8.857539296E-2
5.044623660E0,-7.666353136E-2,5.849030241E-2,7.941242307E-2
5.054623660E0,-1.191186346E-2,2.612974048E-1,4.337139800E-2
5.064623660E0,3.970621154E-3,3.504836559E-1,2.565632015E-2
5.074623660E0,1.863137633E-2,4.060723484E-1,2.138026804E-2
5.084623660E0,2.046396956E-2,4.311178327E-1,2.015853859E-2
5.094623660E0,-2.138026757E-3,4.066832364E-1,2.443459071E-2
5.104623660E0,-3.817904741E-2,3.217730224E-1,3.176496923E-2
5.114623660E0,-8.582650125E-2,1.904370934E-1,3.298669681E-2
5.124623660E0,-2.012799382E-1,-6.185005978E-2,3.604102135E-2
5.134623660E0,-2.483165264E-1,-1.461493969E-1,3.787361458E-2
5.144623660E0,-2.745837271E-1,-2.011272311E-1,3.481929377E-2
5.154623660E0,-2.788597643E-1,-2.347247899E-1,2.871064469E-2
5.164623660E0,-2.684750557E-1,-2.438877672E-1,1.588248461E-2
5.174623660E0,-2.605338395E-1,-2.188423127E-1,1.832594397E-3
5.184623660E0,-2.599229515E-1,-1.559232324E-1,-3.054323839E-3
5.194623660E0,-2.678641975E-1,2.855792828E-2,-6.719512399E-3
5.204623660E0,-2.452622056E-1,3.100138716E-2,-7.941242307E-3
5.214623660E0,-2.012799382E-1,-4.780016840E-2,-3.665188793E-3
5.224623660E0,-1.609628648E-1,-1.522580534E-1,-4.276053514E-3
5.234623660E0,-1.377500147E-1,-2.304487377E-1,-9.773836471E-3
5.244623660E0,-1.359174103E-1,-2.640463114E-1,-1.466075517E-2
5.254623660E0,-1.420260668E-1,-2.524398565E-1,-1.282816008E-2
5.264623660E0,-1.249218509E-1,-1.229365394E-1,1.710421406E-2
5.274623660E0,-9.315688163E-2,-2.519817278E-2,3.237583488E-2
5.284623660E0,-5.589412898E-2,5.482511222E-2,3.054323979E-2
5.294623660E0,-2.046396956E-2,8.536835015E-2,1.466075517E-2
5.304623660E0,8.246674202E-3,6.215549260E-2,-3.054323839E-3
5.314623660E0,2.168569900E-2,5.345067009E-3,-6.719512399E-3
5.324623660E0,1.985310577E-2,-7.040216774E-2,-6.108647794E-4
5.334623660E0,-3.390299529E-2,-2.273944169E-1,-6.108647678E-3
5.344623660E0,-9.804379940E-2,-2.774853408E-1,-1.343902480E-2
5.354623660E0,-9.804379940E-2,-2.774853408E-1,-1.343902480E-2
5.364623660E0,-9.804379940E-2,-2.774853408E-1,-1.343902480E-2
5.374623660E0,-9.804379940E-2,-2.774853408E-1,-1.343902480E-2
5.384623660E0,-2.922987938E-1,-2.915352285E-1,1.649334840E-2
5.394623660E0,-2.489273995E-1,-2.799287736E-1,1.588248461E-2
5.404623660E0,-2.489273995E-1,-2.799287736E-1,1.588248461E-2
5.414623660E0,-2.489273995E-1,-2.799287736E-1,1.588248461E-2
5.424623660E0,-2.489273995E-1,-2.799287736E-1,1.588248461E-2
5.434623660E0,-1.130099874E-2,1.024725661E-1,3.054323839E-3
5.444623660E0,1.435532235E-2,1.458439678E-1,2.199113183E-2
5.454623660E0,1.252272818E-2,1.458439678E-1,2.443459071E-2
5.464623660E0,-1.740964688E-2,1.091920808E-1,1.832594350E-2
5.474623660E0,-1.740964688E-2,1.091920808E-1,1.832594350E-2
5.484623660E0,-1.740964688E-2,1.091920808E-1,1.832594350E-2
5.494623660E0,-1.740964688E-2,1.091920808E-1,1.832594350E-2
5.504623660E0,-1.970038861E-1,-2.322813272E-1,0.000000000E0
5.514623660E0,-1.676823795E-1,-1.864664704E-1,-9.162971750E-3
5.524623660E0,-1.078176349E-1,-9.483675659E-2,-1.099556591E-2
5.534623660E0,-3.573558852E-2,2.306014486E-2,-7.330377586E-3
5.544623660E0,-3.573558852E-2,2.306014486E-2,-7.330377586E-3
5.554623660E0,8.521563560E-2,1.336266696E-1,-2.443459071E-2
5.564623660E0,7.605266571E-2,1.073594838E-1,-6.108647678E-3
5.574623660E0,6.017018110E-2,1.043051630E-1,8.552107029E-3
5.584623660E0,5.222893879E-2,1.354592592E-1,1.588248461E-2
5.594623660E0,6.200277433E-2,1.824958473E-1,1.588248461E-2
5.604623660E0,8.093958348E-2,2.264781147E-1,1.160643063E-2
5.614623660E0,1.652389169E-1,2.735147178E-1,1.649334840E-2
5.624623660E0,2.287688553E-1,2.667951882E-1,2.076940238E-2
5.634623660E0,2.959639728E-1,2.698495090E-1,2.809977904E-2
5.644623660E0,3.527744114E-1,2.893971801E-1,3.420842811E-2
5.654623660E0,3.759872615E-1,3.260490894E-1,3.481929377E-2
5.664623660E0,3.552178741E-1,3.364337683E-1,2.871064469E-2
5.674623660E0,2.825249732E-1,2.881754637E-1,2.015853859E-2
5.684623660E0,2.825249732E-1,2.881754637E-1,2.015853859E-2
5.694623660E0,-1.218675226E-1,-1.418733448E-1,2.138026804E-2
5.704623660E0,-2.422078848E-1,-3.074176908E-1,2.015853859E-2
5.714623660E0,-3.216203153E-1,-4.045451880E-1,1.404988952E-2
5.724623660E0,-3.460549116E-1,-3.947713673E-1,1.649334840E-2
5.734623660E0,-3.179551065E-1,-2.872591615E-1,2.748891525E-2
5.744623660E0,-2.519817352E-1,-1.027780026E-1,4.214967042E-2
5.754623660E0,-3.084867075E-2,2.777907550E-1,3.420842811E-2
5.764623660E0,8.765909821E-2,4.341721535E-1,2.076940238E-2
5.774623660E0,1.890626550E-1,5.618428588E-1,9.162971750E-3
5.784623660E0,3.173442483E-1,6.339249015E-1,-1.527161989E-2
5.794623660E0,4.376846254E-1,5.789470673E-1,-4.031707719E-2
5.804623660E0,4.828886092E-1,4.231765866E-1,-5.925388262E-2
5.814623660E0,4.407389462E-1,2.069304436E-1,-7.330377400E-2
5.824623660E0,1.353065521E-1,-2.469420880E-1,-2.504545636E-2
5.834623660E0,-8.399390429E-2,-3.740019500E-1,6.719512399E-3
5.844623660E0,-2.788597643E-1,-3.898844421E-1,3.359756246E-2
5.854623660E0,-2.788597643E-1,-3.898844421E-1,3.359756246E-2
5.864623660E0,-2.788597643E-1,-3.898844421E-1,3.359756246E-2
5.874623660E0,-3.564395905E-1,4.260781780E-2,4.825831577E-2
5.884623660E0,-1.988364905E-1,2.667951882E-1,3.359756246E-2
5.894623660E0,-1.988364905E-1,2.667951882E-1,3.359756246E-2
5.904623660E0,-1.988364905E-1,2.667951882E-1,3.359756246E-2
5.914623660E0,-1.988364905E-1,2.667951882E-1,3.359756246E-2
5.924623660E0,4.749473631E-1,1.421787739E-1,-1.527161989E-2
5.934623660E0,3.692677617E-1,-9.178243577E-2,-6.719512399E-3
5.944623660E0,1.872300506E-1,-2.774853408E-1,-6.108647794E-4
5.954623660E0,-2.412915789E-2,-3.740019500E-1,0.000000000E0
5.964623660E0,-2.412915789E-2,-3.740019500E-1,0.000000000E0
5.974623660E0,-2.412915789E-2,-3.740019500E-1,0.000000000E0
5.984623660E0,-4.682278633E-1,-2.090684772E-1,-4.459312931E-2
5.994623660E0,-3.937023580E-1,-1.149952933E-1,-5.436696485E-2
6.004623660E0,-2.629773021E-1,-4.291325063E-2,-6.291907281E-2
6.014623660E0,-1.102610901E-1,9.621120058E-3,-6.352993846E-2
6.024623660E0,1.740964688E-2,3.833176568E-2,-4.886918142E-2
6.034623660E0,1.740964688E-2,3.833176568E-2,-4.886918142E-2
6.044623660E0,1.740964688E-2,3.833176568E-2,-4.886918142E-2
6.054623660E0,1.487455666E-1,-1.082757786E-1,-6.719512399E-3
6.064623660E0,7.910698652E-2,-1.211039424E-1,6.108647678E-3
6.074623660E0,8.246674202E-3,-7.345648855E-2,1.404988952E-2
6.084623660E0,-3.145953640E-2,4.382954910E-2,2.138026804E-2
6.094623660E0,-2.168569900E-2,1.739437431E-1,2.504545636E-2
6.104623660E0,-2.168569900E-2,1.739437431E-1,2.504545636E-2
6.114623660E0,1.676823795E-1,2.710712552E-1,6.108647678E-3
6.124623660E0,2.116646469E-1,1.769980639E-1,3.054323839E-3
6.134623660E0,2.134972364E-1,3.894263133E-2,1.221729559E-3
6.144623660E0,1.780670881E-1,-9.178243577E-2,-1.221729559E-3
6.154623660E0,1.273653060E-1,-2.035706937E-1,-7.330377586E-3
6.164623660E0,7.238747925E-2,-2.878700197E-1,-6.719512399E-3
6.174623660E0,-5.650499091E-2,-2.890917659E-1,1.404988952E-2
6.184623660E0,-1.188132018E-1,-2.096793354E-1,1.649334840E-2
6.194623660E0,-1.566868126E-1,-1.156061590E-1,1.160643063E-2
6.204623660E0,-1.524107605E-1,-3.863719851E-2,6.719512399E-3
6.214623660E0,-1.065959036E-1,2.000582218E-2,6.719512399E-3
6.224623660E0,-3.634645417E-2,7.315105945E-2,8.552107029E-3
6.234623660E0,3.390299529E-2,1.085812151E-1,5.497782957E-3
6.244623660E0,1.053741723E-1,1.104138121E-1,4.886918236E-3
6.254623660E0,9.804379940E-2,9.575305134E-2,7.330377586E-3
6.264623660E0,7.422006875E-2,6.398808211E-2,4.276053514E-3
6.274623660E0,3.573558852E-2,1.023198478E-2,-9.773836471E-3
6.284623660E0,-1.496618707E-2,-5.879573524E-2,-2.809977904E-2
6.294623660E0,-7.116574794E-2,-1.320995092E-1,-4.337139800E-2
6.304623660E0,-1.701258421E-1,-2.609919906E-1,-6.719512492E-2
6.314623660E0,-1.701258421E-1,-2.609919906E-1,-6.719512492E-2
6.324623660E0,-1.701258421E-1,-2.609919906E-1,-6.719512492E-2
6.334623660E0,-1.701258421E-1,-2.609919906E-1,-6.719512492E-2
6.344623660E0,-1.701258421E-1,-2.609919906E-1,-6.719512492E-2
6.354623660E0,-4.581485875E-3,8.292489499E-2,4.276053514E-3
6.364623660E0,9.254601598E-2,2.154825479E-1,-1.099556591E-2
6.374623660E0,9.254601598E-2,2.154825479E-1,-1.099556591E-2
6.384623660E0,9.254601598E-2,2.154825479E-1,-1.099556591E-2
6.394623660E0,9.254601598E-2,2.154825479E-1,-1.099556591E-2
6.404623660E0,9.254601598E-2,2.154825479E-1,-1.099556591E-2
6.414623660E0,2.171624303E-1,7.192932814E-2,-5.558869615E-2
6.424623660E0,1.792888194E-1,-1.237001177E-2,-4.214967042E-2
6.434623660E0,1.291978955E-1,-7.345648855E-2,-3.359756246E-2
6.444623660E0,1.291978955E-1,-7.345648855E-2,-3.359756246E-2
6.454623660E0,1.291978955E-1,-7.345648855E-2,-3.359756246E-2
6.464623660E0,-1.053741723E-1,-5.650499370E-3,-6.108647794E-4
6.474623660E0,-1.230892539E-1,7.177661173E-3,4.276053514E-3
6.484623660E0,-1.163697392E-1,4.581485991E-4,-1.832594397E-3
6.494623660E0,-9.804379940E-2,-3.741546720E-2,-1.893680729E-2
6.504623660E0,-7.422006875E-2,-1.070540547E-1,-3.604102135E-2
6.514623660E0,-7.422006875E-2,-1.070540547E-1,-3.604102135E-2
6.524623660E0,1.557705179E-2,-9.056070447E-2,-2.015853859E-2
6.534623660E0,1.557705179E-2,-9.056070447E-2,-2.015853859E-2
6.544623660E0,8.826996386E-2,1.348484010E-1,6.719512399E-3
6.554623660E0,1.267544478E-1,2.551887631E-1,1.221729536E-2
6.564623660E0,1.756236255E-1,3.535379767E-1,1.527161989E-2
6.574623660E0,2.244928032E-1,3.962985277E-1,7.330377586E-3
6.584623660E0,2.654207349E-1,2.649625838E-1,-2.748891525E-2
6.594623660E0,2.373209596E-1,1.281288862E-1,-3.726275265E-2
6.604623660E0,1.792888194E-1,-1.786779426E-2,-3.420842811E-2
6.614623660E0,9.437860548E-2,-1.461493969E-1,-1.771507785E-2
6.624623660E0,-6.414080039E-3,-2.249509543E-1,4.276053514E-3
6.634623660E0,-1.127045527E-1,-2.402225733E-1,2.015853859E-2
6.644623660E0,-2.061668634E-1,-1.962403059E-1,3.237583488E-2
6.654623660E0,-2.684750557E-1,-6.001746282E-2,2.321286127E-2
6.664623660E0,-2.177732885E-1,-6.872228812E-3,8.552107029E-3
6.674623660E0,-1.200349256E-1,3.222311661E-2,-2.443459118E-3
6.684623660E0,2.748891478E-3,6.887500733E-2,-1.221729536E-2
6.694623660E0,1.273653060E-1,9.392046183E-2,-2.382372692E-2
6.704623660E0,2.299905866E-1,9.880737960E-2,-3.237583488E-2
6.714623660E0,2.941313982E-1,6.093376130E-2,-3.176496923E-2
6.724623660E0,2.941313982E-1,6.093376130E-2,-3.176496923E-2
6.734623660E0,2.941313982E-1,6.093376130E-2,-3.176496923E-2
6.744623660E0,2.941313982E-1,6.093376130E-2,-3.176496923E-2
6.754623660E0,2.941313982E-1,6.093376130E-2,-3.176496923E-2
6.764623660E0,-1.921169758E-1,-2.469420880E-1,6.719512399E-3
6.774623660E0,-2.611446977E-1,-1.821904182E-1,3.848448023E-2
6.784623660E0,-2.739728391E-1,-9.422589093E-2,6.352993846E-2
6.794623660E0,-2.739728391E-1,-9.422589093E-2,6.352993846E-2
6.804623660E0,-2.739728391E-1,-9.422589093E-2,6.352993846E-2
6.814623660E0,-2.739728391E-1,-9.422589093E-2,6.352993846E-2
6.824623660E0,2.703076601E-1,3.510945439E-1,-2.687804960E-2
6.834623660E0,3.460549116E-1,3.486510813E-1,-2.871064469E-2
6.844623660E0,3.607156575E-1,3.028362095E-1,-1.771507785E-2
6.854623660E0,3.356702030E-1,2.319758981E-1,-2.015853859E-2
6.864623660E0,1.957821548E-1,2.061668597E-2,-3.726275265E-2
6.874623660E0,1.957821548E-1,2.061668597E-2,-3.726275265E-2
6.884623660E0,1.957821548E-1,2.061668597E-2,-3.726275265E-2
6.894623660E0,1.957821548E-1,2.061668597E-2,-3.726275265E-2
6.904623660E0,-2.929096520E-1,-4.473057389E-1,-2.504545636E-2
6.914623660E0,-3.656025827E-1,-4.130973220E-1,-1.832594397E-3
6.924623660E0,-3.918697536E-1,-3.153589368E-1,7.941242307E-3
6.934623660E0,-3.918697536E-1,-3.153589368E-1,7.941242307E-3
6.944623660E0,-3.918697536E-1,-3.153589368E-1,7.941242307E-3
6.954623660E0,-3.918697536E-1,-3.153589368E-1,7.941242307E-3
6.964623660E0,1.679878123E-2,2.191477418E-1,-6.719512399E-3
6.974623660E0,1.237001196E-1,1.977674663E-1,-1.954767294E-2
6.984623660E0,1.982256174E-1,1.660024971E-1,-2.260199748E-2
6.994623660E0,2.354883701E-1,1.446222365E-1,-1.710421406E-2
7.004623660E0,2.354883701E-1,1.446222365E-1,-1.710421406E-2
7.014623660E0,2.354883701E-1,1.446222365E-1,-1.710421406E-2
7.024623660E0,1.884517819E-1,2.246455252E-1,-7.330377586E-3
7.034623660E0,1.615737379E-1,1.996000707E-1,-6.719512399E-3
7.044623660E0,1.175914705E-1,1.446222365E-1,-8.552107029E-3
7.054623660E0,5.589412898E-2,7.864884287E-2,-5.497782957E-3
7.064623660E0,-1.863137633E-2,3.466657549E-2,6.108647794E-4
7.074623660E0,-1.863137633E-2,3.466657549E-2,6.108647794E-4
7.084623660E0,-1.524107605E-1,-9.315688163E-3,2.504545636E-2
7.094623660E0,-1.175914705E-1,4.581485991E-4,1.282816008E-2
7.104623660E0,-6.688969582E-2,9.010255337E-3,-6.719512399E-3
7.114623660E0,-2.168569900E-2,-1.359174121E-2,-2.993237413E-2
7.124623660E0,2.748891478E-3,-6.062832847E-2,-4.703658819E-2
7.134623660E0,7.635809947E-3,-9.117157012E-2,-4.948004708E-2
7.144623660E0,-1.191186346E-2,-9.239330143E-2,-2.809977904E-2
7.154623660E0,-2.290742844E-2,-6.979130208E-2,-1.588248461E-2
7.164623660E0,-2.779434808E-2,-4.474584386E-2,-1.038470119E-2
7.174623660E0,-2.474002354E-2,-3.680460155E-2,-1.038470119E-2
7.184623660E0,-1.191186346E-2,-6.551524997E-2,-2.015853859E-2
7.194623660E0,7.024944760E-3,-1.229365394E-1,-2.871064469E-2
7.204623660E0,3.023780696E-2,-1.382081509E-1,-3.115410358E-2
7.214623660E0,1.004872546E-1,-3.069595434E-2,-2.260199748E-2
7.224623660E0,1.346956789E-1,5.345067009E-3,-1.588248461E-2
7.234623660E0,1.615737379E-1,3.711003438E-2,-9.162971750E-3
7.244623660E0,1.792888194E-1,7.742711157E-2,-1.832594397E-3
7.254623660E0,1.823431402E-1,1.061377525E-1,-1.221729559E-3
7.264623660E0,1.695149690E-1,1.012508348E-1,-7.941242307E-3
7.274623660E0,1.395826042E-1,4.627300799E-2,-1.282816008E-2
7.284623660E0,1.395826042E-1,4.627300799E-2,-1.282816008E-2
7.294623660E0,1.395826042E-1,4.627300799E-2,-1.282816008E-2
7.304623660E0,1.395826042E-1,4.627300799E-2,-1.282816008E-2
7.314623660E0,1.395826042E-1,4.627300799E-2,-1.282816008E-2
7.324623660E0,-2.214384824E-1,-4.912880063E-1,4.886918142E-2
7.334623660E0,-2.269362658E-1,-3.630063832E-1,4.276053607E-2
7.344623660E0,-2.018908113E-1,-1.809686869E-1,2.015853859E-2
7.354623660E0,-2.018908113E-1,-1.809686869E-1,2.015853859E-2
7.364623660E0,-2.018908113E-1,-1.809686869E-1,2.015853859E-2
7.374623660E0,-2.018908113E-1,-1.809686869E-1,2.015853859E-2
7.384623660E0,1.884517819E-1,-1.114828233E-2,-6.230820715E-2
7.394623660E0,2.134972364E-1,-1.094975099E-1,-5.009091273E-2
7.404623660E0,2.043342739E-1,-1.992946416E-1,-4.581485689E-2
7.414623660E0,1.615737379E-1,-2.756527364E-1,-4.459312931E-2
7.424623660E0,1.615737379E-1,-2.756527364E-1,-4.459312931E-2
7.434623660E0,1.615737379E-1,-2.756527364E-1,-4.459312931E-2
7.444623660E0,-1.890626550E-1,-2.945895493E-1,-8.552107029E-3
7.454623660E0,-2.189950198E-1,-1.882990748E-1,2.138026804E-2
7.464623660E0,-1.915061027E-1,-2.825249545E-2,4.031707719E-2
7.474623660E0,-1.102610901E-1,1.776089370E-1,3.970621154E-2
7.484623660E0,-9.468403645E-3,3.914116025E-1,3.237583488E-2
7.494623660E0,2.037234008E-1,6.308705807E-1,-1.038470119E-2
7.504623660E0,2.825249732E-1,5.545125008E-1,-3.359756246E-2
7.514623660E0,3.210094273E-1,3.743073940E-1,-4.703658819E-2
7.524623660E0,3.008508980E-1,1.806632578E-1,-5.131264031E-2
7.534623660E0,2.189950198E-1,-1.053741761E-2,-4.642572254E-2
7.544623660E0,8.704823256E-2,-1.870773435E-1,-3.787361458E-2
7.554623660E0,-7.055488229E-2,-3.196350038E-1,-2.687804960E-2
7.564623660E0,-7.055488229E-2,-3.196350038E-1,-2.687804960E-2
7.574623660E0,-4.150826037E-1,-3.324631453E-1,-5.497782957E-3
7.584623660E0,-4.297433794E-1,-2.640463114E-1,-1.282816008E-2
7.594623660E0,-3.961458206E-1,-1.748600453E-1,-2.626718581E-2
7.604623660E0,-3.179551065E-1,-5.085449293E-2,-3.176496923E-2
7.614623660E0,-2.037234008E-1,1.055268943E-1,-2.504545636E-2
7.624623660E0,-6.688969582E-2,2.686277926E-1,-1.771507785E-2
7.634623660E0,2.043342739E-1,4.506655037E-1,-6.108647794E-4
7.644623660E0,3.136790693E-1,4.579958618E-1,0.000000000E0
7.654623660E0,3.949240744E-1,3.999637067E-1,-6.108647678E-3
7.664623660E0,4.389063418E-1,3.016144931E-1,-1.954767294E-2
7.674623660E0,4.382954836E-1,1.855501831E-1,-3.420842811E-2
7.684623660E0,3.961458206E-1,8.292489499E-2,-4.642572254E-2
7.694623660E0,3.271180987E-1,2.794706449E-2,-4.398226365E-2
7.704623660E0,1.536324918E-1,3.466657549E-2,-2.076940238E-2
7.714623660E0,6.872228533E-2,3.894263133E-2,-1.710421406E-2
7.724623660E0,-4.581485875E-3,3.711003438E-2,-2.015853859E-2
7.734623660E0,-6.933315098E-2,7.788525894E-3,-2.748891525E-2
7.744623660E0,-1.273653060E-1,-7.467821985E-2,-3.481929377E-2
7.754623660E0,-1.896735132E-1,-2.139553875E-1,-3.787361458E-2
7.764623660E0,-2.574795187E-1,-3.342957497E-1,-3.298669681E-2
7.774623660E0,-2.574795187E-1,-3.342957497E-1,-3.298669681E-2
7.784623660E0,-2.574795187E-1,-3.342957497E-1,-3.298669681E-2
7.794623660E0,-2.574795187E-1,-3.342957497E-1,-3.298669681E-2
7.804623660E0,-2.574795187E-1,-3.342957497E-1,-3.298669681E-2
7.814623660E0,-2.446513474E-1,-1.542433538E-2,3.054323979E-2
7.824623660E0,-1.206457913E-1,1.525634825E-1,1.832594350E-2
7.834623660E0,2.168569900E-2,2.784016132E-1,1.221729559E-3
7.844623660E0,2.168569900E-2,2.784016132E-1,1.221729559E-3
7.854623660E0,2.168569900E-2,2.784016132E-1,1.221729559E-3
7.864623660E0,2.168569900E-2,2.784016132E-1,1.221729559E-3
7.874623660E0,3.356702030E-1,1.947131455E-1,-5.070177838E-2
7.884623660E0,2.672533393E-1,2.733619884E-2,-6.047561392E-2
7.894623660E0,1.463021189E-1,-1.430950761E-1,-6.414080411E-2
7.904623660E0,-1.496618707E-2,-2.903134823E-1,-5.681042373E-2
7.914623660E0,-1.496618707E-2,-2.903134823E-1,-5.681042373E-2
7.924623660E0,-1.496618707E-2,-2.903134823E-1,-5.681042373E-2
7.934623660E0,-1.496618707E-2,-2.903134823E-1,-5.681042373E-2
7.944623660E0,-4.224129915E-1,-2.732092738E-1,-1.160643063E-2
7.954623660E0,-3.558287323E-1,-1.656970680E-1,-2.015853859E-2
7.964623660E0,-2.532034516E-1,-7.651081681E-2,-2.993237413E-2
7.974623660E0,-1.340848207E-1,2.290742937E-3,-3.665188700E-2
7.984623660E0,-1.340848207E-1,2.290742937E-3,-3.665188700E-2
7.994623660E0,-1.340848207E-1,2.290742937E-3,-3.665188700E-2
8.004623660E0,-1.340848207E-1,2.290742937E-3,-3.665188700E-2
8.004623660E0,1.395826042E-1,4.688387364E-2,-6.108647678E-3
8.024623660E0,1.047633067E-1,7.925970852E-2,-1.527161989E-2
8.034623660E0,6.994401664E-2,1.269071549E-1,-3.481929377E-2
8.044623660E0,5.039634556E-2,1.721111536E-1,-3.420842811E-2
8.054623660E0,4.856374860E-2,1.928805560E-1,-2.504545636E-2
8.054623660E0,4.856374860E-2,1.928805560E-1,-2.504545636E-2
8.074623660E0,4.306596518E-2,1.446222365E-1,-3.970621154E-2
8.084623660E0,3.940077871E-2,7.742711157E-2,-4.764745384E-2
8.094623660E0,2.840521187E-2,-2.764163166E-2,-4.276053607E-2
8.104623660E0,-1.527161920E-3,-1.400407553E-1,-2.809977904E-2
8.114623660E0,-5.100720748E-2,-2.261726856E-1,-1.893680729E-2
8.124623660E0,-5.100720748E-2,-2.261726856E-1,-1.893680729E-2
8.134623660E0,-2.159406990E-1,-3.208567202E-1,-1.160643063E-2
8.144623660E0,-2.306014597E-1,-2.719875574E-1,3.665188793E-3
8.154623660E0,-2.073885947E-1,-1.754709035E-1,1.649334840E-2
8.164623660E0,-1.481347084E-1,-2.641990222E-2,2.687804960E-2
8.174623660E0,-6.872228533E-2,1.605047137E-1,4.214967042E-2
8.184623660E0,1.985310577E-2,3.358229101E-1,4.092793912E-2
8.194623660E0,2.061668634E-1,4.708240330E-1,-3.665188793E-3
8.204623660E0,2.751945853E-1,4.066832364E-1,-2.260199748E-2
8.214623660E0,3.020726442E-1,2.747364342E-1,-3.543015569E-2
8.224623660E0,2.782489061E-1,1.293506175E-1,-3.848448023E-2
8.234623660E0,2.159406990E-1,2.901607659E-3,-2.565632015E-2
8.244623660E0,1.304196268E-1,-8.323032409E-2,-4.886918236E-3
8.254623660E0,3.940077871E-2,-1.211039424E-1,9.162971750E-3
8.264623660E0,-8.399390429E-2,-3.619373962E-2,9.162971750E-3
8.274623660E0,-9.682206810E-2,3.833176568E-2,6.719512399E-3
8.284623660E0,-8.521563560E-2,8.231402934E-2,4.276053514E-3
8.294623660E0,-8.521563560E-2,8.231402934E-2,4.276053514E-3
8.304623660E0,-3.573558852E-2,8.781181276E-2,-1.771507785E-2
8.314623660E0,-2.229656465E-2,7.620538026E-2,-2.504545636E-2
8.324623660E0,-1.985310577E-2,4.749473557E-2,-2.687804960E-2
8.334623660E0,-1.985310577E-2,4.749473557E-2,-2.687804960E-2
8.344623660E0,-1.985310577E-2,4.749473557E-2,-2.687804960E-2
8.354623660E0,-1.985310577E-2,4.749473557E-2,-2.687804960E-2
8.364623660E0,-1.985310577E-2,4.749473557E-2,-2.687804960E-2
8.374623660E0,-8.460476995E-2,-5.254964232E-1,-6.841685623E-2
8.384623660E0,-8.277218044E-2,-4.699077308E-1,-5.619955808E-2
8.394623660E0,-6.261363626E-2,-3.532325625E-1,-2.687804960E-2
8.404623660E0,-6.261363626E-2,-3.532325625E-1,-2.687804960E-2
8.414623660E0,-6.261363626E-2,-3.532325625E-1,-2.687804960E-2
8.424623660E0,-6.261363626E-2,-3.532325625E-1,-2.687804960E-2
8.434623660E0,3.057378232E-1,2.680169344E-1,-1.832594350E-2
8.444623660E0,3.454440236E-1,2.582430840E-1,-3.481929377E-2
8.454623660E0,3.484983444E-1,2.173151523E-1,-4.520399496E-2
8.464623660E0,3.130682111E-1,1.543960720E-1,-4.642572254E-2
8.474623660E0,3.130682111E-1,1.543960720E-1,-4.642572254E-2
8.484623660E0,3.130682111E-1,1.543960720E-1,-4.642572254E-2
8.494623660E0,3.130682111E-1,1.543960720E-1,-4.642572254E-2
8.504623660E0,-1.047633067E-1,-8.384118974E-2,0.000000000E0
8.514623660E0,-1.346956789E-1,-4.657844082E-2,1.832594397E-3
8.524623660E0,-1.469129771E-1,-7.483093534E-3,-1.832594397E-3
8.534623660E0,-1.487455666E-1,1.389717404E-2,-4.276053514E-3
8.544623660E0,-1.487455666E-1,1.389717404E-2,-4.276053514E-3
8.554623660E0,-1.414151937E-1,-3.802633286E-2,-1.221729536E-2
8.564623660E0,-1.408043355E-1,-1.046105921E-1,-1.466075517E-2
8.574623660E0,-1.395826042E-1,-1.632536054E-1,-1.282816008E-2
8.584623660E0,-1.438586563E-1,-1.907425225E-1,-1.343902480E-2
8.594623660E0,-1.475238502E-1,-2.035706937E-1,-2.199113183E-2
8.604623660E0,-1.511890292E-1,-2.096793354E-1,-3.176496923E-2
8.614623660E0,-1.194240674E-1,-1.021671370E-1,-1.343902480E-2
8.624623660E0,-5.161807314E-2,4.627300799E-2,7.330377586E-3
8.634623660E0,6.322450191E-2,2.325867712E-1,1.099556591E-2
8.644623660E0,2.110537887E-1,4.262309074E-1,-1.832594397E-3
8.654623660E0,3.637699783E-1,5.820014477E-1,-2.260199748E-2
8.664623660E0,4.951058924E-1,6.247619390E-1,-4.764745384E-2
8.674623660E0,5.696313977E-1,5.080868006E-1,-6.414080411E-2
8.684623660E0,4.682278633E-1,1.372918636E-1,-5.558869615E-2
8.694623660E0,3.032943606E-1,-2.764163166E-2,-4.459312931E-2
8.704623660E0,9.743293375E-2,-1.693622619E-1,-2.626718581E-2
8.714623660E0,-1.102610901E-1,-2.903134823E-1,-2.443459118E-3
8.724623660E0,-2.916879356E-1,-3.703367710E-1,1.466075517E-2
8.734623660E0,-4.230238497E-1,-3.990474045E-1,1.771507785E-2
8.744623660E0,-4.993819594E-1,-3.740019500E-1,1.527161989E-2
8.754623660E0,-4.987711012E-1,-2.426660359E-1,1.649334840E-2
8.764623660E0,-4.199695289E-1,-1.528689116E-1,2.443459071E-2
8.774623660E0,-2.953531146E-1,-4.413498193E-2,2.932151034E-2
8.784623660E0,-2.953531146E-1,-4.413498193E-2,2.932151034E-2
8.794623660E0,1.069013402E-2,2.075413018E-1,2.382372692E-2
8.804623660E0,1.536324918E-1,2.979492843E-1,1.588248461E-2
8.814623660E0,2.709185183E-1,3.181078434E-1,-2.443459118E-3
8.824623660E0,2.709185183E-1,3.181078434E-1,-2.443459118E-3
8.834623660E0,2.709185183E-1,3.181078434E-1,-2.443459118E-3
8.844623660E0,2.709185183E-1,3.181078434E-1,-2.443459118E-3
8.854623660E0,1.322522312E-1,-1.791360974E-1,-1.649334840E-2
8.864623660E0,4.245510325E-2,-1.479819864E-1,6.108647678E-3
8.874623660E0,-1.252272818E-2,-5.879573524E-2,7.330377586E-3
8.884623660E0,-2.474002354E-2,6.520981342E-2,-5.497782957E-3
8.894623660E0,-2.474002354E-2,6.520981342E-2,-5.497782957E-3
8.904623660E0,-2.474002354E-2,6.520981342E-2,-5.497782957E-3
8.914623660E0,6.078104675E-2,6.459894776E-2,-3.237583488E-2
8.924623660E0,3.512472659E-2,-3.008509055E-2,-1.221729536E-2
8.934623660E0,-1.191186346E-2,-1.003345400E-1,1.588248461E-2
8.944623660E0,-6.444623321E-2,-1.424842030E-1,4.214967042E-2
8.954623660E0,-1.139262840E-1,-1.595884264E-1,5.009091273E-2
8.964623660E0,-1.139262840E-1,-1.595884264E-1,5.009091273E-2
8.974623660E0,-1.139262840E-1,-1.595884264E-1,5.009091273E-2
8.984623660E0,-1.762344837E-1,9.010255337E-3,-3.665188700E-2
8.994623660E0,-1.731801629E-1,4.932733253E-2,-3.726275265E-2
9.004623660E0,-1.670715213E-1,1.006399691E-1,-1.954767294E-2
9.014623660E0,-1.450803876E-1,1.598938555E-1,8.552107029E-3
9.024623660E0,-1.059850380E-1,2.124282271E-1,4.153880477E-2
9.034623660E0,1.007926930E-2,2.808450758E-1,6.108647957E-2
9.044623660E0,7.238747925E-2,3.394880891E-1,3.604102135E-2
9.054623660E0,1.237001196E-1,3.712530732E-1,-1.038470119E-2
9.064623660E0,1.267544478E-1,5.360338464E-2,-6.230820715E-2
9.074623660E0,8.155044913E-2,-2.750418782E-1,-7.147117704E-2
9.084623660E0,9.162971983E-4,-3.978256881E-1,-4.153880477E-2
9.094623660E0,-8.032871783E-2,-3.568977416E-1,-5.497782957E-3
9.104623660E0,-1.169806048E-1,-2.886336111E-2,4.214967042E-2
9.114623660E0,-5.406153202E-2,1.996000707E-1,4.581485689E-2
9.124623660E0,3.878991306E-2,3.993528485E-1,3.176496923E-2
9.134623660E0,1.353065521E-1,4.867065251E-1,1.221729559E-3
9.144623660E0,2.092211843E-1,4.329504073E-1,-3.054323979E-2
9.154623660E0,2.446513474E-1,2.704603672E-1,-4.764745384E-2
9.164623660E0,2.306014597E-1,5.849030241E-2,-4.948004708E-2
9.174623660E0,2.306014597E-1,5.849030241E-2,-4.948004708E-2
9.184623660E0,-1.047633067E-1,-4.289797843E-1,1.832594397E-3
9.194623660E0,-2.568686306E-1,-4.668534100E-1,3.054323979E-2
9.204623660E0,-3.778198659E-1,-4.137081802E-1,5.314523727E-2
9.214623660E0,-4.419606626E-1,-2.799287736E-1,6.597339362E-2
9.224623660E0,-4.303542376E-1,-1.174387559E-1,6.963858753E-2
9.234623660E0,-3.491092324E-1,3.466657549E-2,6.536252797E-2
9.244623660E0,-3.491092324E-1,3.466657549E-2,6.536252797E-2
9.254623660E0,1.065959036E-1,4.897608459E-1,-1.588248461E-2
9.264623660E0,2.312123179E-1,5.624537468E-1,-1.038470119E-2
9.274623660E0,3.142899275E-1,4.696022868E-1,-1.710421406E-2
9.284623660E0,3.375027776E-1,2.533561587E-1,-3.176496923E-2
9.294623660E0,2.849684060E-1,-4.291325063E-2,-2.565632015E-2
9.304623660E0,1.750127524E-1,-3.086394370E-1,-1.832594397E-3
9.314623660E0,-1.188132018E-1,-4.289797843E-1,3.237583488E-2
9.324623660E0,-2.287688553E-1,-3.312414289E-1,2.321286127E-2
9.334623660E0,-2.745837271E-1,-2.041815519E-1,7.941242307E-3
9.344623660E0,-2.587012351E-1,-7.834340632E-2,0.000000000E0
9.354623660E0,-1.994473487E-1,-1.725693047E-2,-9.162971750E-3
9.364623660E0,-1.237001196E-1,-2.580903657E-2,-2.626718581E-2
9.374623660E0,-5.589412898E-2,-6.185005978E-2,-4.092793912E-2
9.384623660E0,-5.589412898E-2,-6.185005978E-2,-4.092793912E-2
9.394623660E0,1.496618707E-2,-1.204930767E-1,4.276053514E-3
9.404623660E0,-9.162971983E-4,-7.589995116E-2,1.588248461E-2
9.414623660E0,-2.596175298E-2,2.901607659E-3,1.771507785E-2
9.424623660E0,-4.001164436E-2,7.315105945E-2,1.771507785E-2
9.434623660E0,-3.451386094E-2,1.024725661E-1,1.221729536E-2
9.444623660E0,1.679878123E-2,6.582067907E-2,-1.649334840E-2
9.454623660E0,1.679878123E-2,6.582067907E-2,-1.649334840E-2
9.464623660E0,1.679878123E-2,6.582067907E-2,-1.649334840E-2
9.474623660E0,1.679878123E-2,6.582067907E-2,-1.649334840E-2
9.484623660E0,1.139262840E-1,7.803797722E-2,1.221729536E-2
9.494623660E0,9.498947114E-2,8.414662629E-2,2.871064469E-2
9.504623660E0,5.772672221E-2,7.559451461E-2,3.481929377E-2
9.514623660E0,5.772672221E-2,7.559451461E-2,3.481929377E-2
9.524623660E0,5.772672221E-2,7.559451461E-2,3.481929377E-2
9.534623660E0,5.772672221E-2,7.559451461E-2,3.481929377E-2
9.544623660E0,-2.061668634E-1,-3.068068326E-1,2.932151034E-2
9.554623660E0,-2.238819450E-1,-2.964221239E-1,3.176496923E-2
9.564623660E0,-2.098320574E-1,-2.047924101E-1,3.848448023E-2
9.574623660E0,-1.536324918E-1,-4.657844082E-2,4.398226365E-2
9.584623660E0,-1.536324918E-1,-4.657844082E-2,4.398226365E-2
9.594623660E0,-1.536324918E-1,-4.657844082E-2,4.398226365E-2
9.604623660E0,1.652389169E-1,2.625191510E-1,-1.588248461E-2
9.614623660E0,1.908952445E-1,1.079703495E-1,-2.504545636E-2
9.624623660E0,1.756236255E-1,-8.078686893E-2,-2.687804960E-2
9.634623660E0,1.420260668E-1,-1.974620372E-1,-2.809977904E-2
9.644623660E0,9.498947114E-2,-2.139553875E-1,-2.260199748E-2
9.654623660E0,9.498947114E-2,-2.139553875E-1,-2.260199748E-2
9.664623660E0,9.498947114E-2,-2.139553875E-1,-2.260199748E-2
9.674623660E0,3.451386094E-2,1.598938555E-1,-1.527161989E-2
9.684623660E0,7.544180006E-2,2.619082630E-1,-1.221729536E-2
9.694623660E0,1.322522312E-1,3.223838806E-1,-1.404988952E-2
9.704623660E0,1.976147592E-1,3.187187016E-1,-1.649334840E-2
9.714623660E0,2.678641975E-1,2.771798968E-1,-2.138026804E-2
9.724623660E0,2.678641975E-1,2.771798968E-1,-2.138026804E-2
9.734623660E0,3.643808365E-1,1.110246703E-1,-4.520399496E-2
9.744623660E0,3.283398151E-1,4.810560122E-2,-2.932151034E-2
9.754623660E0,2.434296161E-1,-1.359174121E-2,-1.221729536E-2
9.764623660E0,1.169806048E-1,-1.052214578E-1,-1.404988952E-2
9.774623660E0,-2.657261863E-2,-2.396117151E-1,-2.626718581E-2
9.784623660E0,-1.829539984E-1,-3.263545036E-1,-3.298669681E-2
9.794623660E0,-4.291325212E-1,-3.538434207E-1,-2.748891525E-2
9.804623660E0,-4.566214085E-1,-2.182314396E-1,-1.832594350E-2
9.814623660E0,-3.967566788E-1,-2.641990222E-2,-7.330377586E-3
9.824623660E0,-2.641990185E-1,1.812741160E-1,-3.054323839E-3
9.834623660E0,-1.004872546E-1,3.547597229E-1,-3.298669681E-2
9.844623660E0,7.116574794E-2,4.109592736E-1,-5.009091273E-2
9.854623660E0,2.202167511E-1,3.724747896E-1,-3.481929377E-2
9.864623660E0,2.202167511E-1,3.724747896E-1,-3.481929377E-2
9.874623660E0,3.436114490E-1,1.055268943E-1,-4.886918236E-3
9.884623660E0,2.910770774E-1,5.360338464E-2,1.221729559E-3
9.894623660E0,2.116646469E-1,1.069013379E-3,7.941242307E-3
9.904623660E0,1.169806048E-1,-6.185005978E-2,8.552107029E-3
9.914623660E0,1.557705179E-2,-1.113301069E-1,6.108647794E-4
9.924623660E0,-7.849612087E-2,-1.369864196E-1,-9.773836471E-3
9.934623660E0,-1.756236255E-1,-1.223256737E-1,-9.773836471E-3
9.944623660E0,-1.640172005E-1,-1.021671370E-1,2.443459118E-3
9.954623660E0,-1.267544478E-1,-7.834340632E-2,1.038470119E-2
9.964623660E0,-8.643736690E-2,-5.085449293E-2,1.038470119E-2
9.974623660E0,-4.612028971E-2,-3.375028074E-2,6.108647794E-4
9.984623660E0,-1.130099874E-2,-4.169152305E-2,-8.552107029E-3
9.994623660E0,1.313359290E-2,-7.834340632E-2,-1.710421406E-2
1.000462366E1,1.435532235E-2,-2.023489624E-1,-2.871064469E-2
1.001462366E1,-6.414080039E-3,-2.390008420E-1,-3.359756246E-2
1.002462366E1,-3.512472659E-2,-2.359465212E-1,-3.665188700E-2
1.003462366E1,-5.833758786E-2,-1.876882017E-1,-3.298669681E-2
1.004462366E1,-5.833758786E-2,-1.876882017E-1,-3.298669681E-2
1.005462366E1,-4.245510325E-2,5.054906011E-2,-7.330377586E-3
1.006462366E1,9.162971983E-4,1.873827726E-1,0.000000000E0
1.007462366E1,9.162971983E-4,1.873827726E-1,0.000000000E0
1.008462366E1,9.162971983E-4,1.873827726E-1,0.000000000E0
1.009462366E1,9.162971983E-4,1.873827726E-1,0.000000000E0
1.010462366E1,9.162971983E-4,1.873827726E-1,0.000000000E0
1.011462366E1,1.805105358E-1,4.566214234E-2,8.552107029E-3
1.012462366E1,1.426369250E-1,1.023198478E-2,2.138026804E-2
1.013462366E1,9.376774728E-2,-1.725693047E-2,2.015853859E-2
1.014462366E1,9.376774728E-2,-1.725693047E-2,2.015853859E-2
1.015462366E1,9.376774728E-2,-1.725693047E-2,2.015853859E-2
1.016462366E1,-1.435532235E-2,4.505127668E-2,3.665188793E-3
1.017462366E1,2.840521187E-2,1.403461844E-1,-1.832594397E-3
1.018462366E1,9.437860548E-2,2.148716897E-1,-7.941242307E-3
1.019462366E1,1.658497900E-1,2.515235841E-1,-1.221729536E-2
1.020462366E1,2.287688553E-1,2.338084877E-1,-1.527161989E-2
1.021462366E1,2.287688553E-1,2.338084877E-1,-1.527161989E-2
1.022462366E1,1.908952445E-1,-3.741546720E-2,-2.993237413E-2
1.023462366E1,8.277218044E-2,-1.705839932E-1,-2.687804960E-2
1.024462366E1,-5.161807314E-2,-2.897026241E-1,-2.199113183E-2
1.025462366E1,-1.921169758E-1,-3.544542789E-1,-1.588248461E-2
1.026462366E1,-3.026835024E-1,-3.379609287E-1,-1.160643063E-2
1.027462366E1,-3.570504785E-1,-2.463312149E-1,-1.038470119E-2
1.028462366E1,-2.587012351E-1,2.367101051E-2,-8.552107029E-3
1.029462366E1,-1.328630894E-1,1.214093715E-1,-1.221729536E-2
1.030462366E1,5.192350596E-3,1.684459597E-1,-1.343902480E-2
1.031462366E1,1.212566569E-1,1.641699076E-1,-1.466075517E-2
1.032462366E1,1.963930279E-1,1.201876476E-1,-1.710421406E-2
1.033462366E1,2.208276242E-1,5.726857483E-2,-1.649334840E-2
1.034462366E1,2.073885947E-1,3.512472380E-3,-1.343902480E-2
1.035462366E1,1.120936871E-1,-3.436114267E-2,-1.527161989E-2
1.036462366E1,4.306596518E-2,-3.558287397E-2,-1.649334840E-2
1.037462366E1,-3.573558852E-2,-4.108065739E-2,-1.893680729E-2
1.038462366E1,-1.127045527E-1,-6.307178736E-2,-1.893680729E-2
1.039462366E1,-1.731801629E-1,-1.021671370E-1,-1.099556591E-2
1.040462366E1,-2.086103261E-1,-1.522580534E-1,0.000000000E0
1.041462366E1,-2.269362658E-1,-1.882990748E-1,7.330377586E-3
1.042462366E1,-2.391535640E-1,-1.650862098E-1,2.443459071E-2
1.043462366E1,-2.397644222E-1,-1.492037177E-1,3.420842811E-2
1.044462366E1,-2.342666388E-1,-1.455385387E-1,4.214967042E-2
1.045462366E1,-2.141081095E-1,-1.192713454E-1,4.764745384E-2
1.046462366E1,-1.725693047E-1,-9.422589093E-2,3.420842811E-2
1.047462366E1,-1.304196268E-1,-4.963276163E-2,2.443459071E-2
1.048462366E1,-7.605266571E-2,3.512472380E-3,5.497782957E-3
1.049462366E1,1.279761642E-1,7.315105945E-2,-2.382372692E-2
1.050462366E1,2.147189677E-1,8.720094711E-2,-2.687804960E-2
1.051462366E1,2.721402645E-1,1.079703495E-1,-2.015853859E-2
1.052462366E1,3.045161068E-1,1.611155868E-1,-2.015853859E-2
1.053462366E1,3.142899275E-1,2.063195854E-1,-1.710421406E-2
1.054462366E1,3.063486814E-1,2.313650399E-1,-1.343902480E-2
1.055462366E1,2.904661894E-1,2.319758981E-1,-1.282816008E-2
1.056462366E1,2.904661894E-1,2.319758981E-1,-1.282816008E-2
1.057462366E1,2.904661894E-1,2.319758981E-1,-1.282816008E-2
1.058462366E1,2.904661894E-1,2.319758981E-1,-1.282816008E-2
1.059462366E1,6.078104675E-2,-3.191768378E-2,6.108647794E-4
1.059462366E1,6.078104675E-2,-3.191768378E-2,6.108647794E-4
1.061462366E1,-9.132428467E-2,-3.000873327E-1,6.719512399E-3
1.062462366E1,-1.689041108E-1,-3.703367710E-1,6.108647794E-4
1.063462366E1,-1.689041108E-1,-3.703367710E-1,6.108647794E-4
1.064462366E1,-1.689041108E-1,-3.703367710E-1,6.108647794E-4
1.065462366E1,-1.689041108E-1,-3.703367710E-1,6.108647794E-4
1.066462366E1,-1.670715213E-1,5.543597788E-2,1.466075517E-2
1.067462366E1,-9.987638891E-2,9.392046183E-2,2.199113183E-2
1.068462366E1,-1.863137633E-2,1.006399691E-1,1.282816008E-2
1.069462366E1,6.750056148E-2,1.134681329E-1,-6.108647678E-3
1.070462366E1,6.750056148E-2,1.134681329E-1,-6.108647678E-3
1.071462366E1,6.750056148E-2,1.134681329E-1,-6.108647678E-3
1.072462366E1,1.982256174E-1,9.010255337E-3,-4.581485689E-2
1.073462366E1,1.463021189E-1,-5.207622424E-2,-3.604102135E-2
1.074462366E1,7.910698652E-2,-7.345648855E-2,-2.321286127E-2
1.075462366E1,2.107483521E-2,-3.619373962E-2,-6.108647678E-3
1.076462366E1,-8.246674202E-3,4.382954910E-2,6.719512399E-3
1.077462366E1,-8.246674202E-3,4.382954910E-2,6.719512399E-3
1.078462366E1,6.811141968E-2,1.537852138E-1,-1.649334840E-2
1.079462366E1,1.017089859E-1,1.140789986E-1,-2.138026804E-2
1.080462366E1,1.114828214E-1,7.009673119E-2,-1.710421406E-2
1.081462366E1,9.376774728E-2,4.444041103E-2,-4.886918236E-3
1.082462366E1,5.772672221E-2,1.695149764E-2,3.054323839E-3
1.083462366E1,1.618791744E-2,-2.397644334E-2,4.276053514E-3
1.084462366E1,-6.872228533E-2,-1.467602700E-1,5.497782957E-3
1.085462366E1,-1.133154184E-1,-1.901316643E-1,7.941242307E-3
1.086462366E1,-1.475238502E-1,-1.950185746E-1,1.038470119E-2
1.087462366E1,-1.499672979E-1,-1.510363221E-1,1.343902480E-2
1.088462366E1,-1.096502244E-1,-3.924806044E-2,1.649334840E-2
1.089462366E1,-3.268126398E-2,1.214093715E-1,1.527161989E-2
1.090462366E1,5.650499091E-2,2.747364342E-1,3.054323839E-3
1.091462366E1,1.896735132E-1,3.987419903E-1,-7.941242307E-3
1.092462366E1,2.226602137E-1,3.657552898E-1,-3.665188793E-3
1.093462366E1,2.348775119E-1,2.887863219E-1,-6.108647794E-4
1.094462366E1,2.299905866E-1,1.873827726E-1,6.108647794E-4
1.095462366E1,2.098320574E-1,8.964440972E-2,0.000000000E0
1.096462366E1,1.707367003E-1,1.679878100E-3,-4.886918236E-3
1.097462366E1,9.926552325E-2,-9.422589093E-2,-1.221729536E-2
1.098462366E1,-1.108719558E-1,-2.145662606E-1,-1.710421406E-2
1.099462366E1,-2.092211843E-1,-2.530507445E-1,-1.832594350E-2
1.100462366E1,-2.696968019E-1,-2.573267817E-1,-1.893680729E-2
1.101462366E1,-2.794706225E-1,-2.371682525E-1,-1.588248461E-2
1.102462366E1,-2.464839369E-1,-2.231183648E-1,-7.941242307E-3
1.103462366E1,-1.878409237E-1,-2.029598206E-1,-3.054323839E-3
1.104462366E1,-1.182023361E-1,-1.400407553E-1,-5.497782957E-3
1.105462366E1,6.200277433E-2,9.392046183E-2,-9.773836471E-3
1.106462366E1,1.609628648E-1,1.855501831E-1,-1.832594350E-2
1.107462366E1,2.519817352E-1,2.307541668E-1,-3.481929377E-2
1.108462366E1,3.246746361E-1,2.313650399E-1,-5.192350596E-2
1.109462366E1,3.582721949E-1,1.721111536E-1,-5.925388262E-2
1.110462366E1,3.484983444E-1,8.781181276E-2,-6.291907281E-2
1.111462366E1,2.984074354E-1,-1.603520103E-2,-5.131264031E-2
1.112462366E1,8.765909821E-2,-8.567378670E-2,-8.552107029E-3
1.113462366E1,-3.023780696E-2,-6.979130208E-2,4.886918236E-3
1.114462366E1,-1.224783882E-1,-4.413498193E-2,2.199113183E-2
1.115462366E1,-1.811214089E-1,-3.069595434E-2,3.604102135E-2
1.116462366E1,-2.092211843E-1,-3.680460155E-2,4.276053607E-2
1.117462366E1,-2.128863782E-1,-5.757400393E-2,4.214967042E-2
1.118462366E1,-1.939495653E-1,-8.933897316E-2,3.787361458E-2
1.119462366E1,-1.939495653E-1,-8.933897316E-2,3.787361458E-2
1.120462366E1,-1.939495653E-1,-8.933897316E-2,3.787361458E-2
1.121462366E1,-1.939495653E-1,-8.933897316E-2,3.787361458E-2
1.122462366E1,-7.666353136E-2,-1.589775532E-1,3.604102135E-2
1.123462366E1,-8.399390429E-2,-1.418733448E-1,2.199113183E-2
1.124462366E1,-7.177661359E-2,-1.070540547E-1,7.330377586E-3
1.125462366E1,-3.573558852E-2,-6.185005978E-2,-4.276053514E-3
1.126462366E1,-3.573558852E-2,-6.185005978E-2,-4.276053514E-3
1.127462366E1,-3.573558852E-2,-6.185005978E-2,-4.276053514E-3
1.128462366E1,1.517999023E-1,2.771798968E-1,-1.710421406E-2
1.129462366E1,1.652389169E-1,2.698495090E-1,-6.719512399E-3
1.130462366E1,1.621845961E-1,1.916588247E-1,6.719512399E-3
1.131462366E1,1.414151937E-1,5.665770918E-2,1.893680729E-2
1.132462366E1,1.035415828E-1,-9.178243577E-2,2.443459071E-2
1.133462366E1,1.035415828E-1,-9.178243577E-2,2.443459071E-2
1.134462366E1,-1.438586563E-1,-2.829830945E-1,4.703658819E-2
1.135462366E1,-2.354883701E-1,-2.451094985E-1,5.375609919E-2
1.136462366E1,-2.996291816E-1,-1.608101577E-1,5.558869615E-2
1.137462366E1,-3.240637779E-1,-5.024362728E-2,5.192350596E-2
1.138462366E1,-2.984074354E-1,5.360338464E-2,4.520399496E-2
1.139462366E1,-2.275471240E-1,1.317940801E-1,3.420842811E-2
1.140462366E1,-5.192350596E-3,1.611155868E-1,1.160643063E-2
1.141462366E1,9.865466505E-2,1.214093715E-1,-6.108647794E-4
1.142462366E1,1.652389169E-1,7.437278330E-2,-9.162971750E-3
1.143462366E1,1.847866029E-1,2.367101051E-2,-1.466075517E-2
1.144462366E1,1.585194170E-1,-4.046979174E-2,-1.954767294E-2
1.145462366E1,8.826996386E-2,-1.137735620E-1,-2.199113183E-2
1.146462366E1,-1.252272818E-2,-1.803578287E-1,-2.076940238E-2
1.147462366E1,-2.159406990E-1,-2.194531709E-1,-5.497782957E-3
1.148462366E1,-2.660316229E-1,-1.895207912E-1,3.054323839E-3
1.149462366E1,-2.703076601E-1,-1.522580534E-1,1.710421406E-2
1.150462366E1,-2.373209596E-1,-9.789107740E-2,2.687804960E-2
1.151462366E1,-1.823431402E-1,-2.214384824E-2,2.932151034E-2
1.152462366E1,-1.047633067E-1,7.437278330E-2,2.748891525E-2
1.153462366E1,-1.007926930E-2,1.647807807E-1,2.565632015E-2
1.154462366E1,1.682932526E-1,2.661843300E-1,-1.221729559E-3
1.155462366E1,2.275471240E-1,2.625191510E-1,6.108647794E-4
1.156462366E1,2.550360560E-1,2.307541668E-1,6.108647678E-3
1.157462366E1,2.440404743E-1,1.629481763E-1,3.054323839E-3
1.158462366E1,1.963930279E-1,6.948586553E-2,-9.162971750E-3
1.159462366E1,1.224783882E-1,-2.153298259E-2,-9.773836471E-3
1.160462366E1,3.268126398E-2,-8.017600328E-2,5.497782957E-3
1.161462366E1,-1.218675226E-1,-4.413498193E-2,3.848448023E-2
1.162462366E1,-1.511890292E-1,4.810560122E-2,4.703658819E-2
1.163462366E1,-1.401934624E-1,1.336266696E-1,4.642572254E-2
1.164462366E1,-9.865466505E-2,1.586721241E-1,4.520399496E-2
1.165462366E1,-4.428769648E-2,1.189659163E-1,4.337139800E-2
1.166462366E1,2.779434808E-2,5.971203372E-2,3.481929377E-2
1.167462366E1,1.035415828E-1,-1.664606482E-2,2.504545636E-2
1.168462366E1,1.035415828E-1,-1.664606482E-2,2.504545636E-2
1.169462366E1,1.035415828E-1,-1.664606482E-2,2.504545636E-2
1.170462366E1,1.035415828E-1,-1.664606482E-2,2.504545636E-2
1.171462366E1,1.035415828E-1,-1.664606482E-2,2.504545636E-2
1.172462366E1,-7.666353136E-2,-6.123919412E-2,4.276053514E-3
1.173462366E1,-1.572976857E-1,1.939495653E-2,0.000000000E0
1.174462366E1,-2.104429156E-1,7.559451461E-2,3.665188793E-3
1.175462366E1,-2.104429156E-1,7.559451461E-2,3.665188793E-3
1.176462366E1,-2.104429156E-1,7.559451461E-2,3.665188793E-3
1.177462366E1,-2.104429156E-1,7.559451461E-2,3.665188793E-3
1.178462366E1,1.224783882E-1,2.564104795E-1,6.719512399E-3
1.179462366E1,2.061668634E-1,1.336266696E-1,-1.771507785E-2
1.180462366E1,2.513708472E-1,6.032289565E-2,-2.382372692E-2
1.181462366E1,2.593120933E-1,-2.031125315E-2,-2.565632015E-2
1.182462366E1,2.593120933E-1,-2.031125315E-2,-2.565632015E-2
1.183462366E1,2.593120933E-1,-2.031125315E-2,-2.565632015E-2
1.184462366E1,-6.444623321E-2,-3.489564955E-1,-5.497782957E-3
1.185462366E1,-1.591302752E-1,-3.715584874E-1,9.773836471E-3
1.186462366E1,-2.196058929E-1,-3.214675784E-1,2.138026804E-2
1.187462366E1,-1.701258421E-1,-4.169152305E-2,3.298669681E-2
1.188462366E1,-7.849612087E-2,1.128572673E-1,4.153880477E-2
1.189462366E1,-7.849612087E-2,1.128572673E-1,4.153880477E-2
1.190462366E1,-7.849612087E-2,1.128572673E-1,4.153880477E-2
1.191462366E1,1.756236255E-1,2.020435184E-1,4.031707719E-2
1.192462366E1,1.652389169E-1,7.376192510E-2,2.687804960E-2
1.193462366E1,1.340848207E-1,-5.757400393E-2,1.282816008E-2
1.194462366E1,7.544180006E-2,-1.663079411E-1,2.443459118E-3
1.195462366E1,3.359756200E-3,-2.243400961E-1,-1.832594397E-3
1.196462366E1,3.359756200E-3,-2.243400961E-1,-1.832594397E-3
1.197462366E1,-1.664606482E-1,-1.650862098E-1,5.497782957E-3
1.198462366E1,-1.792888194E-1,-9.666935354E-2,1.038470119E-2
1.199462366E1,-1.627954692E-1,-2.336557768E-2,3.420842811E-2
1.200462366E1,-1.096502244E-1,8.536835015E-2,3.420842811E-2
1.201462366E1,-3.329212964E-2,2.142608166E-1,2.443459071E-2
1.202462366E1,5.711585656E-2,3.376555145E-1,1.038470119E-2
1.203462366E1,2.287688553E-1,4.439459741E-1,4.886918236E-3
1.204462366E1,2.861901522E-1,4.103484154E-1,2.443459118E-3
1.205462366E1,3.149007857E-1,3.071122766E-1,0.000000000E0
1.206462366E1,3.112356067E-1,1.623373181E-1,-1.832594397E-3
1.207462366E1,2.666424811E-1,1.450803876E-2,-7.330377586E-3
1.208462366E1,1.737910360E-1,-1.180496216E-1,-9.162971750E-3
1.209462366E1,4.306596518E-2,-2.273944169E-1,-1.221729559E-3
1.210462366E1,-2.373209596E-1,-3.599520624E-1,2.504545636E-2
1.211462366E1,-3.411679864E-1,-3.410152495E-1,2.748891525E-2
1.212462366E1,-3.930914998E-1,-2.322813272E-1,2.687804960E-2
1.213462366E1,-3.808741868E-1,-6.123919412E-2,2.993237413E-2
1.214462366E1,-2.984074354E-1,1.165224537E-1,2.809977904E-2
1.215462366E1,-1.603520066E-1,2.692386508E-1,1.954767294E-2
1.216462366E1,9.468403645E-3,3.810268939E-1,6.108647678E-3
1.217462366E1,9.468403645E-3,3.810268939E-1,6.108647678E-3
1.218462366E1,9.468403645E-3,3.810268939E-1,6.108647678E-3
1.219462366E1,9.468403645E-3,3.810268939E-1,6.108647678E-3
1.220462366E1,9.468403645E-3,3.810268939E-1,6.108647678E-3
1.221462366E1,1.597411335E-1,-2.585485280E-1,-3.237583488E-2
1.222462366E1,2.107483521E-2,-3.361283541E-1,-3.787361458E-2
1.223462366E1,-1.200349256E-1,-3.691150546E-1,-4.153880477E-2
1.224462366E1,-1.200349256E-1,-3.691150546E-1,-4.153880477E-2
1.225462366E1,-1.200349256E-1,-3.691150546E-1,-4.153880477E-2
1.226462366E1,-1.200349256E-1,-3.691150546E-1,-4.153880477E-2
1.227462366E1,-2.446513474E-1,9.392046183E-2,1.160643063E-2
1.228462366E1,-1.206457913E-1,2.441931963E-1,2.932151034E-2
1.229462366E1,1.863137633E-2,3.712530732E-1,4.092793912E-2
1.230462366E1,1.481347084E-1,4.463894367E-1,4.092793912E-2
1.231462366E1,1.481347084E-1,4.463894367E-1,4.092793912E-2
1.232462366E1,1.481347084E-1,4.463894367E-1,4.092793912E-2
1.233462366E1,2.868010104E-1,1.354592592E-1,-2.932151034E-2
1.234462366E1,2.061668634E-1,-6.261364091E-3,-4.459312931E-2
1.235462366E1,8.888082206E-2,-1.284343153E-1,-4.948004708E-2
1.236462366E1,-4.550942779E-2,-2.218966335E-1,-3.909534588E-2
1.237462366E1,-1.744018942E-1,-2.793179154E-1,-2.015853859E-2
1.238462366E1,-1.744018942E-1,-2.793179154E-1,-2.015853859E-2
1.239462366E1,-3.265072107E-1,-1.211039424E-1,2.138026804E-2
1.240462366E1,-2.788597643E-1,-3.191768378E-2,2.076940238E-2
1.241462366E1,-2.043342739E-1,2.916879393E-2,1.343902480E-2
1.242462366E1,-1.163697392E-1,2.611446939E-2,3.054323839E-3
1.243462366E1,-3.207040206E-2,-3.558287397E-2,-5.497782957E-3
1.244462366E1,3.451386094E-2,-1.247691289E-1,-9.773836471E-3
1.245462366E1,9.621120244E-2,-2.438877672E-1,-7.941242307E-3
1.246462366E1,9.315688163E-2,-2.328922004E-1,-5.497782957E-3
1.247462366E1,7.483093441E-2,-1.779143661E-1,3.054323839E-3
1.248462366E1,5.345066637E-2,-1.033888608E-1,8.552107029E-3
1.249462366E1,3.512472659E-2,-2.458730713E-2,0.000000000E0
1.250462366E1,2.901607752E-2,3.649916872E-2,-1.099556591E-2
1.251462366E1,3.756818548E-2,5.604684353E-2,-1.832594350E-2
1.252462366E1,3.756818548E-2,5.604684353E-2,-1.832594350E-2
1.253462366E1,7.055488229E-2,4.871646687E-2,-1.710421406E-2
1.254462366E1,5.528326333E-2,4.932733253E-2,-9.773836471E-3
1.255462366E1,3.573558852E-2,6.948586553E-2,-2.443459118E-3
1.256462366E1,2.412915789E-2,8.964440972E-2,-2.443459118E-3
1.257462366E1,8.857538924E-3,6.398808211E-2,-1.282816008E-2
1.258462366E1,-1.679878123E-2,-2.641990222E-2,-5.070177838E-2
1.259462366E1,-3.023780696E-2,-4.963276163E-2,-6.291907281E-2
1.260462366E1,-5.283980444E-2,-9.911280870E-2,-7.147117704E-2
1.261462366E1,-7.727439702E-2,-1.522580534E-1,-6.230820715E-2
1.262462366E1,-9.743293375E-2,-1.956294477E-1,-4.031707719E-2
1.263462366E1,-1.212566569E-1,-2.139553875E-1,-1.954767294E-2
1.264462366E1,-1.408043355E-1,-1.687513888E-1,6.108647794E-4
1.265462366E1,-1.218675226E-1,7.131846249E-2,2.687804960E-2
1.266462366E1,-6.566796452E-2,1.916588247E-1,3.665188700E-2
1.267462366E1,8.246674202E-3,1.977674663E-1,3.604102135E-2
1.268462366E1,7.360920310E-2,8.781181276E-2,2.382372692E-2
1.269462366E1,1.224783882E-1,-2.397644334E-2,4.276053514E-3
1.270462366E1,1.670715213E-1,-6.062832847E-2,-1.282816008E-2
1.271462366E1,1.908952445E-1,-5.879573524E-2,-7.330377586E-3
1.272462366E1,1.420260668E-1,1.634063199E-2,2.076940238E-2
1.273462366E1,8.277218044E-2,4.749473557E-2,1.954767294E-2
1.274462366E1,1.313359290E-2,3.527744114E-2,1.710421406E-2
1.275462366E1,-5.528326333E-2,-2.336557768E-2,1.710421406E-2
1.276462366E1,-1.084285006E-1,-1.021671370E-1,1.771507785E-2
1.277462366E1,-1.389717311E-1,-1.632536054E-1,1.221729536E-2
1.278462366E1,-1.426369250E-1,-1.785252392E-1,3.665188793E-3
1.279462366E1,-1.426369250E-1,-1.785252392E-1,3.665188793E-3
1.280462366E1,-1.426369250E-1,-1.785252392E-1,3.665188793E-3
1.281462366E1,-1.426369250E-1,-1.785252392E-1,3.665188793E-3
1.282462366E1,-1.426369250E-1,-1.785252392E-1,3.665188793E-3
1.283462366E1,2.580903769E-1,4.127918780E-1,-3.665188793E-3
1.284462366E1,3.051269650E-1,4.268417656E-1,-2.076940238E-2
1.285462366E1,3.265072107E-1,3.627009690E-1,-3.970621154E-2
1.286462366E1,3.265072107E-1,3.627009690E-1,-3.970621154E-2
1.287462366E1,3.265072107E-1,3.627009690E-1,-3.970621154E-2
1.288462366E1,3.265072107E-1,3.627009690E-1,-3.970621154E-2
1.289462366E1,-8.093958348E-2,-4.057669342E-1,-3.298669681E-2
1.290462366E1,-2.141081095E-1,-4.656316638E-1,-1.527161989E-2
1.291462366E1,-3.191768527E-1,-4.619664848E-1,3.665188793E-3
1.292462366E1,-3.735437989E-1,-3.837758005E-1,2.321286127E-2
1.293462366E1,-3.735437989E-1,-3.837758005E-1,2.321286127E-2
1.294462366E1,-3.735437989E-1,-3.837758005E-1,2.321286127E-2
1.295462366E1,-8.216131479E-2,8.231402934E-2,1.099556591E-2
1.296462366E1,3.878991306E-2,1.049160287E-1,6.108647678E-3
1.297462366E1,1.328630894E-1,1.195767820E-1,1.099556591E-2
1.298462366E1,1.841757298E-1,1.165224537E-1,1.404988952E-2
1.299462366E1,1.988364905E-1,8.597921580E-2,5.497782957E-3
1.300462366E1,1.988364905E-1,8.597921580E-2,5.497782957E-3
1.301462366E1,1.139262840E-1,-1.015562713E-1,-7.880155742E-2
1.302462366E1,6.200277433E-2,-1.821904182E-1,-8.857539296E-2
1.303462366E1,7.024944760E-3,-2.487746775E-1,-1.062904745E-1
1.304462366E1,-4.062250629E-2,-2.890917659E-1,-1.142317131E-1
1.305462366E1,-7.666353136E-2,-2.725984156E-1,-9.285144508E-2
1.306462366E1,-9.560033679E-2,-1.937968582E-1,-5.681042373E-2
1.307462366E1,-8.093958348E-2,8.842267841E-2,0.000000000E0
1.308462366E1,-5.283980444E-2,2.167042792E-1,7.330377586E-3
1.309462366E1,-2.596175298E-2,2.564104795E-1,-2.443459118E-3
1.310462366E1,-1.191186346E-2,1.996000707E-1,-1.588248461E-2
1.311462366E1,-1.069013402E-2,8.170316368E-2,-2.382372692E-2
1.312462366E1,-2.229656465E-2,-5.757400393E-2,-2.687804960E-2
1.313462366E1,-3.573558852E-2,-1.797469556E-1,-2.809977904E-2
1.314462366E1,-6.078104675E-2,-2.402225733E-1,1.832594397E-3
1.315462366E1,-6.444623321E-2,-1.492037177E-1,2.443459071E-2
1.316462366E1,-5.161807314E-2,1.511890348E-2,4.764745384E-2
1.317462366E1,-8.246674202E-3,2.112064958E-1,6.780599058E-2
1.318462366E1,-8.246674202E-3,2.112064958E-1,6.780599058E-2
1.319462366E1,1.230892539E-1,4.384481907E-1,6.597339362E-2
1.320462366E1,1.860083193E-1,4.543306828E-1,5.803215504E-2
1.321462366E1,1.860083193E-1,4.543306828E-1,5.803215504E-2
1.322462366E1,1.860083193E-1,4.543306828E-1,5.803215504E-2
1.323462366E1,1.860083193E-1,4.543306828E-1,5.803215504E-2
1.324462366E1,1.860083193E-1,4.543306828E-1,5.803215504E-2
1.325462366E1,1.860083193E-1,4.543306828E-1,5.803215504E-2
1.326462366E1,7.910698652E-2,-1.375972927E-1,-2.199113183E-2
1.327462366E1,-3.817904741E-2,-1.925751269E-1,-2.138026804E-2
1.328462366E1,-3.817904741E-2,-1.925751269E-1,-2.138026804E-2
1.329462366E1,-3.817904741E-2,-1.925751269E-1,-2.138026804E-2
1.330462366E1,-3.817904741E-2,-1.925751269E-1,-2.138026804E-2
1.331462366E1,-2.043342739E-1,-2.092211880E-2,1.832594350E-2
1.332462366E1,-1.127045527E-1,1.226311028E-1,2.260199748E-2
1.333462366E1,-5.803215317E-3,2.619082630E-1,1.710421406E-2
1.334462366E1,9.560033679E-2,3.614792228E-1,6.108647678E-3
1.335462366E1,9.560033679E-2,3.614792228E-1,6.108647678E-3
1.336462366E1,9.560033679E-2,3.614792228E-1,6.108647678E-3
1.337462366E1,2.855792940E-1,2.600756884E-1,-4.520399496E-2
1.338462366E1,2.495382577E-1,1.171333194E-1,-5.131264031E-2
1.339462366E1,1.762344837E-1,-3.619373962E-2,-4.214967042E-2
1.340462366E1,7.055488229E-2,-1.565341055E-1,-1.527161989E-2
1.341462366E1,-4.917461425E-2,-2.328922004E-1,2.015853859E-2
1.342462366E1,-4.917461425E-2,-2.328922004E-1,2.015853859E-2
1.343462366E1,-2.953531146E-1,-1.773035079E-1,7.635809481E-2
1.344462366E1,-2.904661894E-1,-9.605848789E-2,7.880155742E-2
1.345462366E1,-2.507599890E-1,-1.359174121E-2,7.147117704E-2
1.346462366E1,-1.786779463E-1,4.566214234E-2,5.925388262E-2
1.347462366E1,-8.949168772E-2,7.009673119E-2,4.642572254E-2
1.348462366E1,2.748891478E-3,6.215549260E-2,3.481929377E-2
1.349462366E1,1.237001196E-1,3.283398226E-2,1.282816008E-2
1.350462366E1,1.310304999E-1,1.572976820E-2,1.099556591E-2
1.351462366E1,1.047633067E-1,-1.985310577E-3,7.330377586E-3
1.352462366E1,5.772672221E-2,-1.786779426E-2,-1.221729559E-3
1.353462366E1,-9.162971983E-4,-3.558287397E-2,-1.527161989E-2
1.354462366E1,-5.528326333E-2,-4.657844082E-2,-2.748891525E-2
1.355462366E1,-9.804379940E-2,-6.612611562E-2,-2.932151034E-2
1.356462366E1,-1.267544478E-1,-1.345429718E-1,-8.552107029E-3
1.357462366E1,-1.200349256E-1,-1.168278903E-1,1.221729536E-2
1.358462366E1,-1.041524485E-1,-5.329795182E-2,2.443459071E-2
1.359462366E1,-8.093958348E-2,3.588830680E-2,3.604102135E-2
1.360462366E1,-5.222893879E-2,1.006399691E-1,4.459312931E-2
1.361462366E1,-1.863137633E-2,1.232419685E-1,3.909534588E-2
1.362462366E1,1.191186346E-2,1.128572673E-1,1.771507785E-2
1.363462366E1,3.634645417E-2,-2.703076601E-2,-2.993237413E-2
1.364462366E1,2.351829410E-2,-1.076649204E-1,-2.993237413E-2
1.365462366E1,-3.970621154E-3,-1.614210159E-1,-1.649334840E-2
1.366462366E1,-3.207040206E-2,-1.669187993E-1,0.000000000E0
1.367462366E1,-5.650499091E-2,-1.223256737E-1,1.954767294E-2
1.368462366E1,-7.605266571E-2,-5.268708616E-2,3.909534588E-2
1.369462366E1,-8.093958348E-2,2.122755162E-2,5.681042373E-2
1.370462366E1,-5.161807314E-2,1.305723488E-1,6.047561392E-2
1.371462366E1,-2.107483521E-2,1.275180280E-1,3.909534588E-2
1.372462366E1,3.359756200E-3,1.030834317E-1,1.710421406E-2
1.373462366E1,1.985310577E-2,4.321868345E-2,6.108647794E-4
1.374462366E1,2.351829410E-2,-4.657844082E-2,-9.773836471E-3
1.375462366E1,1.191186346E-2,-1.382081509E-1,-1.343902480E-2
1.376462366E1,-7.635809947E-3,-1.992946416E-1,-7.330377586E-3
1.377462366E1,-7.635809947E-3,-1.992946416E-1,-7.330377586E-3
1.378462366E1,-7.635809947E-3,-1.992946416E-1,-7.330377586E-3
1.379462366E1,-7.635809947E-3,-1.992946416E-1,-7.330377586E-3
1.380462366E1,-7.635809947E-3,-1.992946416E-1,-7.330377586E-3
1.381462366E1,-7.024944760E-3,8.353576064E-2,-1.588248461E-2
1.382462366E1,2.474002354E-2,8.475748450E-2,-1.954767294E-2
1.383462366E1,4.856374860E-2,6.398808211E-2,-6.108647678E-3
1.384462366E1,4.856374860E-2,6.398808211E-2,-6.108647678E-3
1.385462366E1,4.856374860E-2,6.398808211E-2,-6.108647678E-3
1.386462366E1,4.856374860E-2,6.398808211E-2,-6.108647678E-3
1.387462366E1,1.047633067E-1,9.453132749E-2,3.054323979E-2
1.388462366E1,8.155044913E-2,7.131846249E-2,1.649334840E-2
1.389462366E1,4.978547990E-2,2.122755162E-2,2.443459118E-3
1.390462366E1,4.978547990E-2,2.122755162E-2,2.443459118E-3
1.391462366E1,4.978547990E-2,2.122755162E-2,2.443459118E-3
1.392462366E1,4.978547990E-2,2.122755162E-2,2.443459118E-3
1.393462366E1,4.978547990E-2,2.122755162E-2,2.443459118E-3
1.394462366E1,4.978547990E-2,2.122755162E-2,2.443459118E-3
1.395462366E1,-4.428769648E-2,9.208786488E-2,3.481929377E-2
1.396462366E1,5.192350596E-3,1.727220118E-1,4.031707719E-2
1.397462366E1,6.017018110E-2,2.435823381E-1,4.642572254E-2
1.398462366E1,6.017018110E-2,2.435823381E-1,4.642572254E-2
1.399462366E1,6.017018110E-2,2.435823381E-1,4.642572254E-2
1.400462366E1,1.530216336E-1,2.472475171E-1,4.398226365E-2
1.401462366E1,1.285870373E-1,1.336266696E-1,2.443459071E-2
1.402462366E1,8.216131479E-2,-6.872228812E-3,8.552107029E-3
1.403462366E1,1.191186346E-2,-1.540906429E-1,6.108647794E-4
1.404462366E1,-7.910698652E-2,-2.579376400E-1,2.443459118E-3
1.405462366E1,-7.910698652E-2,-2.579376400E-1,2.443459118E-3
1.406462366E1,-7.910698652E-2,-2.579376400E-1,2.443459118E-3
1.406462366E1,-2.843575478E-1,-1.779143661E-1,4.886918236E-3
1.408462366E1,-2.385426909E-1,-6.001746282E-2,3.054323839E-3
1.409462366E1,-1.737910360E-1,-6.001746282E-2,0.000000000E0
1.410462366E1,-9.437860548E-2,-5.329795182E-2,-4.276053514E-3
1.411462366E1,-8.857538924E-3,-2.641990222E-2,-4.276053514E-3
1.412462366E1,1.310304999E-1,1.501200199E-1,5.497782957E-3
1.413462366E1,1.786779463E-1,2.539670467E-1,1.832594397E-3
1.414462366E1,2.037234008E-1,3.437641561E-1,-4.886918236E-3
1.415462366E1,2.043342739E-1,3.883572817E-1,-1.343902480E-2
1.416462366E1,1.811214089E-1,3.645335436E-1,-2.626718581E-2
1.417462366E1,1.371391416E-1,2.490801066E-1,-3.420842811E-2
1.418462366E1,7.177661359E-2,5.849030241E-2,-3.115410358E-2
1.419462366E1,-8.155044913E-2,-3.202458620E-1,-1.221729536E-2
1.420462366E1,-1.456912458E-1,-4.075995386E-1,-4.276053514E-3
1.421462366E1,-1.915061027E-1,-4.039343297E-1,3.054323839E-3
1.422462366E1,-2.214384824E-1,-3.275762498E-1,1.038470119E-2
1.423462366E1,-2.373209596E-1,-2.151771188E-1,1.404988952E-2
1.424462366E1,-2.287688553E-1,-1.009454057E-1,1.404988952E-2
1.425462366E1,-1.921169758E-1,-1.114828233E-2,1.160643063E-2
1.426462366E1,-3.940077871E-2,1.562286615E-1,0.000000000E0
1.427462366E1,3.878991306E-2,2.234237939E-1,-3.054323839E-3
1.428462366E1,1.188132018E-1,2.209803313E-1,-2.076940238E-2
1.429462366E1,1.768453568E-1,1.617264450E-1,-3.359756246E-2
1.430462366E1,2.043342739E-1,7.437278330E-2,-3.420842811E-2
1.431462366E1,2.043342739E-1,7.437278330E-2,-3.420842811E-2
1.432462366E1,1.707367003E-1,-9.728021920E-2,-4.948004708E-2
1.433462366E1,1.707367003E-1,-9.728021920E-2,-4.948004708E-2
1.434462366E1,1.707367003E-1,-9.728021920E-2,-4.948004708E-2
1.435462366E1,1.707367003E-1,-9.728021920E-2,-4.948004708E-2
1.436462366E1,1.707367003E-1,-9.728021920E-2,-4.948004708E-2
1.437462366E1,-2.183841616E-1,-3.251327872E-1,-2.809977904E-2
1.438462366E1,-2.232710719E-1,-2.848156989E-1,-1.466075517E-2
1.439462366E1,-2.025016695E-1,-1.748600453E-1,-6.108647794E-4
1.440462366E1,-2.025016695E-1,-1.748600453E-1,-6.108647794E-4
1.441462366E1,-2.025016695E-1,-1.748600453E-1,-6.108647794E-4
1.442462366E1,-2.025016695E-1,-1.748600453E-1,-6.108647794E-4
1.443462366E1,-2.025016695E-1,-1.748600453E-1,-6.108647794E-4
1.444462366E1,1.884517819E-1,2.319758981E-1,-1.649334840E-2
1.445462366E1,2.012799382E-1,1.745546162E-1,-1.832594350E-2
1.446462366E1,1.835648715E-1,1.067486182E-1,-1.893680729E-2
1.447462366E1,1.835648715E-1,1.067486182E-1,-1.893680729E-2
1.448462366E1,1.835648715E-1,1.067486182E-1,-1.893680729E-2
1.449462366E1,-1.802051067E-2,-7.651081681E-2,-2.138026804E-2
1.450462366E1,-5.589412898E-2,-8.384118974E-2,-2.382372692E-2
1.451462366E1,-7.544180006E-2,-7.467821985E-2,-2.076940238E-2
1.452462366E1,-8.155044913E-2,-5.268708616E-2,-1.588248461E-2
1.453462366E1,-7.666353136E-2,-2.031125315E-2,-1.221729536E-2
1.454462366E1,-7.666353136E-2,-2.031125315E-2,-1.221729536E-2
1.455462366E1,-7.666353136E-2,-2.031125315E-2,-1.221729536E-2
1.456462366E1,-8.246674202E-3,-7.834340632E-2,-1.343902480E-2
1.457462366E1,-1.130099874E-2,-1.553123742E-1,-2.932151034E-2
1.458462366E1,-2.779434808E-2,-2.157879770E-1,-4.214967042E-2
1.459462366E1,-2.779434808E-2,-2.157879770E-1,-4.214967042E-2
1.460462366E1,-1.004872546E-1,-2.671006322E-1,-4.764745384E-2
1.461462366E1,-1.004872546E-1,-2.671006322E-1,-4.764745384E-2
1.462462366E1,-2.244928032E-1,-1.125518382E-1,6.108647794E-4
1.463462366E1,-2.244928032E-1,-1.125518382E-1,6.108647794E-4
1.464462366E1,-2.092211843E-1,3.833176568E-2,2.321286127E-2
1.465462366E1,-1.658497900E-1,1.507308781E-1,3.543015569E-2
1.466462366E1,-1.010981202E-1,2.716821134E-1,4.214967042E-2
1.467462366E1,-2.596175298E-2,3.749182522E-1,4.948004708E-2
1.468462366E1,1.035415828E-1,4.702131748E-1,4.031707719E-2
1.469462366E1,1.224783882E-1,4.097375572E-1,1.404988952E-2
1.470462366E1,1.029307172E-1,2.466366589E-1,-1.404988952E-2
1.471462366E1,4.734202102E-2,1.328630932E-2,-2.626718581E-2
1.472462366E1,-3.634645417E-2,-1.999054998E-1,-1.160643063E-2
1.473462366E1,-1.438586563E-1,-3.562868834E-1,7.330377586E-3
1.474462366E1,-2.758054435E-1,-4.619664848E-1,2.809977904E-2
1.475462366E1,-2.758054435E-1,-4.619664848E-1,2.809977904E-2
1.476462366E1,-5.305360556E-1,-4.198168218E-1,8.368847519E-2
1.477462366E1,-5.305360556E-1,-3.184132576E-1,9.285144508E-2
1.478462366E1,-4.792234302E-1,-1.663079411E-1,8.857539296E-2
1.479462366E1,-4.028653204E-1,1.756236330E-2,8.307760954E-2
1.480462366E1,-3.002400398E-1,1.959348768E-1,5.803215504E-2
1.481462366E1,-1.792888194E-1,3.840812445E-1,3.420842811E-2
1.482462366E1,9.010255337E-2,5.441278219E-1,-1.954767294E-2
1.483462366E1,1.982256174E-1,4.689914286E-1,-3.665188700E-2
1.484462366E1,2.507599890E-1,3.327685893E-1,-4.214967042E-2
1.485462366E1,2.397644222E-1,1.757763475E-1,-3.909534588E-2
1.486462366E1,1.682932526E-1,-1.053741761E-2,-4.398226365E-2
1.487462366E1,5.589412898E-2,-2.060141414E-1,-5.803215504E-2
1.488462366E1,-7.666353136E-2,-3.856084049E-1,-7.330377400E-2
1.489462366E1,-3.466657698E-1,-6.036871076E-1,-1.111773923E-1
1.490462366E1,-4.578431547E-1,-6.152935624E-1,-1.227838174E-1
1.491462366E1,-5.329795480E-1,-5.743656158E-1,-1.404989064E-1
1.492462366E1,-5.732966065E-1,-5.132791400E-1,-1.288924664E-1
1.493462366E1,-5.592467189E-1,-3.984365463E-1,-1.270598769E-1
1.494462366E1,-5.103775263E-1,-2.414443046E-1,-1.136208475E-1
1.495462366E1,-4.376846254E-1,-8.323032409E-2,-7.941242307E-2
1.496462366E1,-2.086103261E-1,1.867718995E-1,-4.276053607E-2
1.497462366E1,-2.086103261E-1,1.867718995E-1,-4.276053607E-2
1.498462366E1,-2.086103261E-1,1.867718995E-1,-4.276053607E-2
1.499462366E1,-2.086103261E-1,1.867718995E-1,-4.276053607E-2
1.500462366E1,-2.086103261E-1,1.867718995E-1,-4.276053607E-2
1.501462366E1,2.641990185E-1,-1.125518382E-1,-5.314523727E-2
1.502462366E1,2.110537887E-1,-1.156061590E-1,-2.626718581E-2
1.503462366E1,2.110537887E-1,-1.156061590E-1,-2.626718581E-2
1.504462366E1,2.110537887E-1,-1.156061590E-1,-2.626718581E-2
1.505462366E1,2.110537887E-1,-1.156061590E-1,-2.626718581E-2
1.506462366E1,-8.582650125E-2,2.393062711E-1,7.880155742E-2
1.507462366E1,-2.138026757E-3,3.077231348E-1,7.269290835E-2
1.508462366E1,1.127045527E-1,3.504836559E-1,5.986474827E-2
1.509462366E1,2.177732885E-1,3.614792228E-1,2.993237413E-2
1.510462366E1,2.177732885E-1,3.614792228E-1,2.993237413E-2
1.511462366E1,2.177732885E-1,3.614792228E-1,2.993237413E-2
1.512462366E1,2.177732885E-1,3.614792228E-1,2.993237413E-2
1.513462366E1,1.597411335E-1,8.903354406E-2,4.398226365E-2
1.514462366E1,2.596175298E-2,6.398808211E-2,9.590577334E-2
1.515462366E1,-1.120936871E-1,6.520981342E-2,1.447749585E-1
1.516462366E1,-2.470948100E-1,1.116355360E-1,1.930332631E-1
1.517462366E1,-2.470948100E-1,1.116355360E-1,1.930332631E-1
1.518462366E1,-2.470948100E-1,1.116355360E-1,1.930332631E-1
1.519462366E1,-2.122755051E-1,2.215912044E-1,1.404989064E-1
1.520462366E1,-6.994401664E-2,3.119991720E-1,8.429934084E-2
1.521462366E1,8.155044913E-2,4.060723484E-1,5.009091273E-2
1.522462366E1,2.293797284E-1,4.470002949E-1,4.520399496E-2
1.523462366E1,3.576613367E-1,4.353938699E-1,5.070177838E-2
1.524462366E1,3.576613367E-1,4.353938699E-1,5.070177838E-2
1.525462366E1,4.437932670E-1,2.307541668E-1,6.719512399E-3
1.526462366E1,3.833176494E-1,1.458439678E-1,-1.099556591E-2
1.527462366E1,2.965748608E-1,6.826414168E-2,-1.832594350E-2
1.528462366E1,1.939495653E-1,1.145371422E-2,-2.199113183E-2
1.529462366E1,9.010255337E-2,-1.481347065E-2,-3.359756246E-2
1.530462366E1,1.130099874E-2,-3.985892609E-2,-5.925388262E-2
1.531462366E1,1.130099874E-2,-3.985892609E-2,-5.925388262E-2
1.532462366E1,1.130099874E-2,-3.985892609E-2,-5.925388262E-2
1.533462366E1,9.682206810E-2,-3.330740333E-1,-2.009745091E-1
1.534462366E1,3.149007857E-1,-4.833467603E-1,-1.887572110E-1
1.535462366E1,4.230238497E-1,-1.956294477E-1,-1.203403622E-1
1.536462366E1,4.627300799E-1,2.533561587E-1,-3.909534588E-2
1.537462366E1,5.274817348E-1,5.080868006E-1,-5.986474827E-2
1.538462366E1,6.099484563E-1,5.429060459E-1,-1.258381456E-1
1.539462366E1,5.952877402E-1,5.276344419E-1,-1.240055487E-1
1.540462366E1,5.415316224E-1,4.909825623E-1,-1.069013327E-1
1.541462366E1,4.871646762E-1,3.376555145E-1,-9.285144508E-2
1.542462366E1,4.407389462E-1,8.903354406E-2,-6.780599058E-2
1.543462366E1,3.588830531E-1,-1.589775532E-1,-2.138026804E-2
1.544462366E1,2.067777216E-1,-3.416261375E-1,1.099556591E-2
1.545462366E1,2.067777216E-1,-3.416261375E-1,1.099556591E-2
1.546462366E1,2.067777216E-1,-3.416261375E-1,1.099556591E-2
1.547462366E1,2.067777216E-1,-3.416261375E-1,1.099556591E-2
1.548462366E1,2.067777216E-1,-3.416261375E-1,1.099556591E-2
1.549462366E1,2.067777216E-1,-3.416261375E-1,1.099556591E-2
1.550462366E1,-2.910770774E-1,-3.680460155E-2,3.787361458E-2
1.551462366E1,-1.493564397E-1,8.353576064E-2,1.466075517E-2
1.552462366E1,-1.493564397E-1,8.353576064E-2,1.466075517E-2
1.553462366E1,-1.493564397E-1,8.353576064E-2,1.466075517E-2
1.554462366E1,-1.493564397E-1,8.353576064E-2,1.466075517E-2
1.555462366E1,3.179551065E-1,1.403461844E-1,-3.176496923E-2
1.556462366E1,3.106247485E-1,5.787943676E-2,-1.527161989E-2
1.557462366E1,2.648098767E-1,-6.856957078E-2,-1.832594397E-3
1.558462366E1,1.829539984E-1,-2.133445293E-1,1.221729559E-3
1.559462366E1,1.829539984E-1,-2.133445293E-1,1.221729559E-3
1.560462366E1,1.829539984E-1,-2.133445293E-1,1.221729559E-3
1.561462366E1,-2.379318327E-1,-5.004509687E-1,2.687804960E-2
1.562462366E1,-2.916879356E-1,-4.931205809E-1,1.649334840E-2
1.563462366E1,-3.179551065E-1,-4.528035223E-1,-8.552107029E-3
1.564462366E1,-3.222311735E-1,-4.100429714E-1,-2.871064469E-2
1.565462366E1,-3.161225319E-1,-3.507890999E-1,-2.138026804E-2
1.566462366E1,-3.161225319E-1,-3.507890999E-1,-2.138026804E-2
1.567462366E1,-2.385426909E-1,-1.638644785E-1,3.787361458E-2
1.568462366E1,-1.792888194E-1,-6.307178736E-2,3.481929377E-2
1.569462366E1,-9.437860548E-2,3.894263133E-2,1.954767294E-2
1.570462366E1,5.192350596E-3,1.342375278E-1,-3.665188793E-3
1.571462366E1,1.035415828E-1,2.069304436E-1,-2.565632015E-2
1.572462366E1,1.035415828E-1,2.069304436E-1,-2.565632015E-2
1.573462366E1,2.147189677E-1,1.146898642E-1,-2.809977904E-2
1.574462366E1,1.860083193E-1,8.781181276E-2,-9.162971750E-3
1.575462366E1,1.438586563E-1,9.636391699E-2,1.160643063E-2
1.576462366E1,1.029307172E-1,1.220202371E-1,2.565632015E-2
1.577462366E1,6.627883017E-2,1.336266696E-1,3.359756246E-2
1.578462366E1,3.145953640E-2,1.220202371E-1,3.176496923E-2
1.579462366E1,-1.802051067E-2,7.559451461E-2,1.466075517E-2
1.580462366E1,-1.618791744E-2,7.742711157E-2,1.038470119E-2
1.581462366E1,3.970621154E-3,9.330959618E-2,7.941242307E-3
1.582462366E1,2.718348242E-2,9.880737960E-2,5.497782957E-3
1.583462366E1,4.184423760E-2,9.330959618E-2,6.719512399E-3
1.584462366E1,4.306596518E-2,8.048143238E-2,1.099556591E-2
1.585462366E1,2.962694131E-2,6.459894776E-2,1.527161989E-2
1.586462366E1,-3.054323897E-4,5.910116807E-2,2.138026804E-2
1.587462366E1,-7.635809947E-3,7.742711157E-2,2.809977904E-2
1.588462366E1,-1.007926930E-2,1.018617004E-1,3.054323979E-2
1.589462366E1,-7.024944760E-3,1.293506175E-1,2.748891525E-2
1.590462366E1,-7.024944760E-3,1.293506175E-1,2.748891525E-2
1.591462366E1,2.107483521E-2,1.983783394E-1,2.504545636E-2
1.592462366E1,4.123337194E-2,2.215912044E-1,2.260199748E-2
1.593462366E1,4.123337194E-2,2.215912044E-1,2.260199748E-2
1.594462366E1,4.123337194E-2,2.215912044E-1,2.260199748E-2
1.595462366E1,4.123337194E-2,2.215912044E-1,2.260199748E-2
1.596462366E1,4.123337194E-2,2.215912044E-1,2.260199748E-2
1.597462366E1,4.123337194E-2,2.215912044E-1,2.260199748E-2
1.598462366E1,5.803215317E-3,-1.076649204E-1,-4.031707719E-2
1.599462366E1,-5.772672221E-2,-2.096793354E-1,-4.642572254E-2
1.600462366E1,-5.772672221E-2,-2.096793354E-1,-4.642572254E-2
1.601462366E1,-5.772672221E-2,-2.096793354E-1,-4.642572254E-2
1.602462366E1,-5.772672221E-2,-2.096793354E-1,-4.642572254E-2
1.603462366E1,-5.772672221E-2,-2.096793354E-1,-4.642572254E-2
1.604462366E1,-1.395826042E-1,3.181078434E-1,3.298669681E-2
1.605462366E1,-7.238747925E-2,4.201222658E-1,3.848448023E-2
1.606462366E1,7.635809947E-3,4.970912039E-1,3.848448023E-2
1.607462366E1,7.635809947E-3,4.970912039E-1,3.848448023E-2
1.608462366E1,7.635809947E-3,4.970912039E-1,3.848448023E-2
1.609462366E1,7.635809947E-3,4.970912039E-1,3.848448023E-2
1.610462366E1,3.833176494E-1,5.184714794E-1,5.497782957E-3
1.611462366E1,4.022544622E-1,4.470002949E-1,-1.343902480E-2
1.612462366E1,3.442223072E-1,2.203694731E-1,-2.138026804E-2
1.613462366E1,2.238819450E-1,-8.200860023E-2,-7.941242307E-3
1.614462366E1,2.238819450E-1,-8.200860023E-2,-7.941242307E-3
1.615462366E1,2.238819450E-1,-8.200860023E-2,-7.941242307E-3
1.616462366E1,-3.656025827E-1,-5.340485573E-1,1.099556591E-2
1.617462366E1,-3.790415823E-1,-4.338667095E-1,-6.108647678E-3
1.618462366E1,-3.191768527E-1,-2.994764447E-1,-7.941242307E-3
1.619462366E1,-2.122755051E-1,-1.815795600E-1,-1.710421406E-2
1.620462366E1,-8.338304609E-2,-9.117157012E-2,-3.481929377E-2
1.621462366E1,-8.338304609E-2,-9.117157012E-2,-3.481929377E-2
1.622462366E1,2.489273995E-1,1.183550507E-1,-4.276053607E-2
1.623462366E1,2.971857190E-1,1.635590494E-1,-3.909534588E-2
1.624462366E1,3.026835024E-1,1.831067204E-1,-3.787361458E-2
1.625462366E1,2.727511227E-1,1.501200199E-1,-4.337139800E-2
1.626462366E1,2.067777216E-1,4.871646687E-2,-5.253437161E-2
1.627462366E1,1.072067693E-1,-9.422589093E-2,-5.192350596E-2
1.628462366E1,-1.243109852E-1,-3.367392123E-1,-2.932151034E-2
1.629462366E1,-2.171624303E-1,-3.758345544E-1,-1.893680729E-2
1.630462366E1,-2.721402645E-1,-3.459021747E-1,-1.038470119E-2
1.631462366E1,-2.825249732E-1,-2.499964088E-1,1.221729559E-3
1.632462366E1,-2.519817352E-1,-1.088866442E-1,9.162971750E-3
1.633462366E1,-1.786779463E-1,4.566214234E-2,1.160643063E-2
1.634462366E1,-7.422006875E-2,1.824958473E-1,7.330377586E-3
1.635462366E1,1.664606482E-1,3.388772309E-1,-1.160643063E-2
1.636462366E1,2.623664141E-1,3.425424397E-1,-1.954767294E-2
1.637462366E1,3.191768527E-1,2.936732471E-1,-2.015853859E-2
1.638462366E1,3.191768527E-1,1.989891976E-1,-1.588248461E-2
1.639462366E1,2.550360560E-1,5.543597788E-2,-1.404988952E-2
1.640462366E1,1.310304999E-1,-1.259908676E-1,-1.893680729E-2
1.641462366E1,-2.901607752E-2,-3.135263622E-1,-2.443459071E-2
1.642462366E1,-3.423897028E-1,-5.572614074E-1,-3.726275265E-2
1.643462366E1,-4.462367296E-1,-5.633700490E-1,-5.253437161E-2
1.644462366E1,-4.920515716E-1,-4.955640435E-1,-5.986474827E-2
1.645462366E1,-4.773908257E-1,-3.654498458E-1,-4.581485689E-2
1.646462366E1,-4.101957083E-1,-2.115119249E-1,-2.993237413E-2
1.647462366E1,-2.971857190E-1,-2.886336111E-2,-1.221729536E-2
1.648462366E1,-1.475238502E-1,1.446222365E-1,5.497782957E-3
1.649462366E1,1.866191924E-1,3.828594983E-1,1.527161989E-2
1.650462366E1,1.866191924E-1,3.828594983E-1,1.527161989E-2
1.651462366E1,1.866191924E-1,3.828594983E-1,1.527161989E-2
1.652462366E1,1.866191924E-1,3.828594983E-1,1.527161989E-2
1.653462366E1,4.071413875E-1,3.095557392E-1,-2.932151034E-2
1.654462366E1,3.313941360E-1,1.953240186E-1,-4.214967042E-2
1.655462366E1,2.171624303E-1,7.437278330E-2,-4.948004708E-2
1.656462366E1,2.171624303E-1,7.437278330E-2,-4.948004708E-2
1.657462366E1,2.171624303E-1,7.437278330E-2,-4.948004708E-2
1.658462366E1,2.171624303E-1,7.437278330E-2,-4.948004708E-2
1.659462366E1,2.171624303E-1,7.437278330E-2,-4.948004708E-2
1.660462366E1,-2.519817352E-1,-5.207622424E-2,-4.276053514E-3
1.661462366E1,-2.134972364E-1,-3.497200832E-2,-1.893680729E-2
1.662462366E1,-1.591302752E-1,-7.284562290E-2,-3.237583488E-2
1.663462366E1,-1.591302752E-1,-7.284562290E-2,-3.237583488E-2
1.664462366E1,-1.591302752E-1,-7.284562290E-2,-3.237583488E-2
1.665462366E1,-1.591302752E-1,-7.284562290E-2,-3.237583488E-2
1.666462366E1,-1.591302752E-1,-7.284562290E-2,-3.237583488E-2
1.667462366E1,5.894844979E-2,-8.445205539E-2,-2.382372692E-2
1.668462366E1,6.444623321E-2,3.100138716E-2,-1.099556591E-2
1.669462366E1,6.505709887E-2,1.385135949E-1,-7.941242307E-3
1.670462366E1,6.505709887E-2,1.385135949E-1,-7.941242307E-3
1.671462366E1,6.505709887E-2,1.385135949E-1,-7.941242307E-3
1.672462366E1,1.194240674E-1,2.014326602E-1,-6.108647794E-4
1.673462366E1,1.200349256E-1,1.317940801E-1,3.665188793E-3
1.674462366E1,9.865466505E-2,3.344484791E-2,3.054323839E-3
1.675462366E1,5.283980444E-2,-8.445205539E-2,-1.832594397E-3
1.676462366E1,-1.679878123E-2,-2.200640440E-1,-1.160643063E-2
1.677462366E1,-1.679878123E-2,-2.200640440E-1,-1.160643063E-2
1.678462366E1,-1.679878123E-2,-2.200640440E-1,-1.160643063E-2
1.679462366E1,-2.654207349E-1,-4.540252388E-1,-4.153880477E-2
1.680462366E1,-2.696968019E-1,-3.733910918E-1,-4.337139800E-2
1.681462366E1,-2.495382577E-1,-3.043633699E-1,-5.070177838E-2
1.682462366E1,-2.098320574E-1,-2.493855506E-1,-5.681042373E-2
1.683462366E1,-1.652389169E-1,-1.913533956E-1,-5.375609919E-2
1.684462366E1,-1.652389169E-1,-1.913533956E-1,-5.375609919E-2
1.685462366E1,-1.652389169E-1,-1.913533956E-1,-5.375609919E-2
1.686462366E1,1.059850380E-1,2.503018379E-1,-3.665188793E-3
1.687462366E1,2.018908113E-1,3.914116025E-1,-1.282816008E-2
1.688462366E1,2.935205400E-1,4.848739207E-1,-2.626718581E-2
1.689462366E1,3.601047993E-1,4.818195999E-1,-4.520399496E-2
1.690462366E1,3.772090077E-1,3.303251266E-1,-6.291907281E-2
1.691462366E1,2.299905866E-1,-5.513054505E-2,-5.009091273E-2
1.692462366E1,8.765909821E-2,-2.115119249E-1,-3.726275265E-2
1.693462366E1,-6.322450191E-2,-3.373500705E-1,-1.588248461E-2
1.694462366E1,-1.921169758E-1,-4.240928590E-1,1.038470119E-2
1.695462366E1,-2.758054435E-1,-4.259254634E-1,2.932151034E-2
1.696462366E1,-3.039052188E-1,-3.306305707E-1,3.604102135E-2
1.697462366E1,-2.684750557E-1,-1.742491722E-1,3.665188700E-2
1.698462366E1,-4.917461425E-2,1.580612659E-1,3.481929377E-2
1.699462366E1,8.826996386E-2,2.576322258E-1,2.626718581E-2
1.700462366E1,2.000582218E-1,2.863428593E-1,1.343902480E-2
1.701462366E1,2.617555559E-1,2.612974048E-1,1.832594397E-3
1.702462366E1,2.648098767E-1,1.928805560E-1,-3.665188793E-3
1.703462366E1,2.171624303E-1,1.073594838E-1,-4.276053514E-3
1.704462366E1,1.389717311E-1,3.466657549E-2,-1.832594397E-3
1.705462366E1,-1.191186346E-2,-1.527161949E-4,-1.893680729E-2
1.706462366E1,-5.406153202E-2,-1.527161949E-4,-4.153880477E-2
1.707462366E1,-6.994401664E-2,-1.970038936E-2,-6.597339362E-2
1.708462366E1,-6.994401664E-2,-6.979130208E-2,-8.368847519E-2
1.709462366E1,-6.933315098E-2,-1.406516135E-1,-9.346231073E-2
1.710462366E1,-7.910698652E-2,-2.255618125E-1,-9.529490769E-2
1.711462366E1,-1.053741723E-1,-3.025307953E-1,-8.674279600E-2
1.712462366E1,-1.896735132E-1,-3.721693754E-1,-4.703658819E-2
1.713462366E1,-2.196058929E-1,-3.446804583E-1,-2.138026804E-2
1.714462366E1,-2.226602137E-1,-2.713766694E-1,1.038470119E-2
1.715462366E1,-1.908952445E-1,-1.528689116E-1,2.932151034E-2
1.716462366E1,-1.273653060E-1,-7.483093534E-3,2.687804960E-2
1.717462366E1,-3.451386094E-2,1.275180280E-1,1.466075517E-2
1.718462366E1,7.116574794E-2,2.386954129E-1,8.552107029E-3
1.719462366E1,2.544251680E-1,3.712530732E-1,3.298669681E-2
1.720462366E1,2.904661894E-1,3.706422150E-1,4.581485689E-2
1.721462366E1,2.806923687E-1,3.627009690E-1,5.192350596E-2
1.722462366E1,2.312123179E-1,3.352120519E-1,4.459312931E-2
1.723462366E1,1.505781710E-1,2.576322258E-1,3.054323979E-2
1.724462366E1,4.428769648E-2,1.177441850E-1,1.282816008E-2
1.725462366E1,-7.299833745E-2,-4.902189970E-2,6.108647794E-4
1.726462366E1,-2.501491308E-1,-2.884808779E-1,3.665188793E-3
1.727462366E1,-2.501491308E-1,-2.884808779E-1,3.665188793E-3
1.728462366E1,-2.501491308E-1,-2.884808779E-1,3.665188793E-3
1.729462366E1,-2.501491308E-1,-2.884808779E-1,3.665188793E-3
1.730462366E1,-1.438586563E-1,3.527744114E-2,3.115410358E-2
1.731462366E1,-4.306596518E-2,2.179260105E-1,3.970621154E-2
1.732462366E1,6.322450191E-2,3.853029609E-1,3.909534588E-2
1.733462366E1,6.322450191E-2,3.853029609E-1,3.909534588E-2
1.734462366E1,6.322450191E-2,3.853029609E-1,3.909534588E-2
1.735462366E1,6.322450191E-2,3.853029609E-1,3.909534588E-2
1.736462366E1,6.322450191E-2,3.853029609E-1,3.909534588E-2
1.737462366E1,3.185659945E-1,2.741255760E-1,-2.871064469E-2
1.738462366E1,2.434296161E-1,1.476765573E-1,-2.138026804E-2
1.739462366E1,1.420260668E-1,7.009673119E-2,-1.466075517E-2
1.740462366E1,1.420260668E-1,7.009673119E-2,-1.466075517E-2
1.741462366E1,1.420260668E-1,7.009673119E-2,-1.466075517E-2
1.742462366E1,1.420260668E-1,7.009673119E-2,-1.466075517E-2
1.743462366E1,-8.765909821E-2,2.000582218E-2,3.481929377E-2
1.744462366E1,-7.422006875E-2,2.290742937E-3,3.115410358E-2
1.745462366E1,-5.283980444E-2,-2.092211880E-2,3.054323979E-2
1.746462366E1,-2.474002354E-2,-5.268708616E-2,3.420842811E-2
1.747462366E1,-2.474002354E-2,-5.268708616E-2,3.420842811E-2
1.748462366E1,-2.474002354E-2,-5.268708616E-2,3.420842811E-2
1.749462366E1,3.817904741E-2,-6.185005978E-2,4.825831577E-2
1.750462366E1,3.207040206E-2,-4.413498193E-2,4.581485689E-2
1.751462366E1,1.740964688E-2,2.290742937E-3,4.214967042E-2
1.752462366E1,8.857538924E-3,7.987056673E-2,3.848448023E-2
1.753462366E1,1.618791744E-2,1.684459597E-1,3.054323979E-2
1.754462366E1,1.618791744E-2,1.684459597E-1,3.054323979E-2
1.755462366E1,1.346956789E-1,2.979492843E-1,-2.443459071E-2
1.756462366E1,1.572976857E-1,2.344193608E-1,-3.665188700E-2
1.757462366E1,1.383608729E-1,9.147699922E-2,-4.337139800E-2
1.758462366E1,6.505709887E-2,-1.094975099E-1,-4.092793912E-2
1.759462366E1,-4.612028971E-2,-3.281871080E-1,-2.626718581E-2
1.760462366E1,-1.750127524E-1,-4.931205809E-1,-1.404988952E-2
1.761462366E1,-3.765981495E-1,-5.548179150E-1,-1.649334840E-2
1.762462366E1,-4.297433794E-1,-5.035052896E-1,-2.748891525E-2
1.763462366E1,-4.358520210E-1,-4.161516428E-1,-4.337139800E-2
1.764462366E1,-3.937023580E-1,-3.000873327E-1,-5.558869615E-2
1.765462366E1,-3.179551065E-1,-1.754709035E-1,-5.742128938E-2
1.766462366E1,-2.183841616E-1,-5.757400393E-2,-5.009091273E-2
1.767462366E1,-1.127045527E-1,2.855792828E-2,-4.642572254E-2
1.768462366E1,6.383536756E-2,7.864884287E-2,-4.459312931E-2
1.769462366E1,1.133154184E-1,6.704241037E-2,-3.665188700E-2
1.770462366E1,1.334739476E-1,6.093376130E-2,-2.076940238E-2
1.771462366E1,1.316413581E-1,6.154462695E-2,-1.038470119E-2
1.772462366E1,1.139262840E-1,1.000291109E-1,-1.038470119E-2
1.773462366E1,9.376774728E-2,1.635590494E-1,-1.343902480E-2
1.774462366E1,9.010255337E-2,2.496909797E-1,1.221729559E-3
1.775462366E1,1.426369250E-1,3.046688139E-1,4.398226365E-2
1.776462366E1,1.884517819E-1,2.594648004E-1,5.131264031E-2
1.777462366E1,2.336557806E-1,2.252563834E-1,5.253437161E-2
1.778462366E1,2.623664141E-1,2.215912044E-1,4.825831577E-2
1.779462366E1,2.660316229E-1,2.099847645E-1,3.237583488E-2
1.780462366E1,2.354883701E-1,1.415679157E-1,1.099556591E-2
1.781462366E1,1.652389169E-1,2.794706449E-2,-3.665188793E-3
1.782462366E1,1.652389169E-1,2.794706449E-2,-3.665188793E-3
1.783462366E1,1.652389169E-1,2.794706449E-2,-3.665188793E-3
1.784462366E1,1.652389169E-1,2.794706449E-2,-3.665188793E-3
1.785462366E1,-1.927278340E-1,-1.638644785E-1,4.337139800E-2
1.786462366E1,-1.572976857E-1,-7.345648855E-2,4.764745384E-2
1.787462366E1,-1.010981202E-1,2.183841541E-2,4.398226365E-2
1.788462366E1,-3.084867075E-2,1.091920808E-1,3.665188700E-2
1.789462366E1,-3.084867075E-2,1.091920808E-1,3.665188700E-2
1.790462366E1,-3.084867075E-2,1.091920808E-1,3.665188700E-2
1.791462366E1,2.470948100E-1,2.246455252E-1,3.054323839E-3
1.792462366E1,2.483165264E-1,1.464548260E-1,-1.221729559E-3
1.793462366E1,2.110537887E-1,3.344484791E-2,6.108647794E-4
1.794462366E1,1.408043355E-1,-8.628465235E-2,4.886918236E-3
1.795462366E1,4.856374860E-2,-1.870773435E-1,1.221729536E-2
1.796462366E1,4.856374860E-2,-1.870773435E-1,1.221729536E-2
1.797462366E1,4.856374860E-2,-1.870773435E-1,1.221729536E-2
1.798462366E1,-1.750127524E-1,-7.651081681E-2,1.099556591E-2
1.799462366E1,-1.432477981E-1,-5.039634649E-3,4.276053514E-3
1.800462366E1,-7.971785218E-2,7.009673119E-2,-8.552107029E-3
1.801462366E1,5.803215317E-3,1.446222365E-1,-2.626718581E-2
1.802462366E1,9.682206810E-2,1.934914142E-1,-3.726275265E-2
1.803462366E1,9.682206810E-2,1.934914142E-1,-3.726275265E-2
1.804462366E1,2.452622056E-1,1.464548260E-1,-2.748891525E-2
1.805462366E1,2.348775119E-1,1.006399691E-1,-2.260199748E-2
1.806462366E1,2.018908113E-1,4.566214234E-2,-1.527161989E-2
1.807462366E1,1.524107605E-1,-4.428769462E-3,-5.497782957E-3
1.808462366E1,9.682206810E-2,-2.214384824E-2,6.719512399E-3
1.809462366E1,4.428769648E-2,-5.039634649E-3,1.649334840E-2
1.810462366E1,-2.596175298E-2,6.826414168E-2,2.260199748E-2
1.811462366E1,-5.589412898E-2,6.582067907E-2,2.626718581E-2
1.812462366E1,-9.193515033E-2,-3.817904973E-3,2.443459071E-2
1.813462366E1,-1.353065521E-1,-1.247691289E-1,1.527161989E-2
1.814462366E1,-1.921169758E-1,-2.561050653E-1,1.832594397E-3
1.815462366E1,-2.654207349E-1,-3.544542789E-1,-1.282816008E-2
1.816462366E1,-3.454440236E-1,-4.198168218E-1,-3.054323979E-2
1.817462366E1,-4.926624298E-1,-5.053378940E-1,-2.199113183E-2
1.818462366E1,-5.280926228E-1,-5.474875569E-1,-1.588248461E-2
1.819462366E1,-5.158752799E-1,-5.438223481E-1,-6.719512399E-3
1.820462366E1,-4.334085584E-1,-4.619664848E-1,9.162971750E-3
1.821462366E1,-2.782489061E-1,-2.872591615E-1,2.321286127E-2
1.822462366E1,-6.444623321E-2,-5.390881747E-2,2.138026804E-2
1.823462366E1,1.744018942E-1,1.904370934E-1,2.443459118E-3
1.824462366E1,5.555815101E-1,4.372264743E-1,-6.475166976E-2
1.825462366E1,6.282744408E-1,3.822486401E-1,-7.757982612E-2
1.826462366E1,6.001746655E-1,2.368628234E-1,-6.597339362E-2
1.827462366E1,4.914407134E-1,2.428187430E-2,-5.497783050E-2
1.828462366E1,3.106247485E-1,-2.066250145E-1,-4.703658819E-2
1.829462366E1,7.971785218E-2,-4.027126133E-1,-4.337139800E-2
1.830462366E1,-1.615737379E-1,-5.700895786E-1,-3.298669681E-2
1.831462366E1,-5.806269646E-1,-7.673988938E-1,1.527161989E-2
1.832462366E1,-6.747001410E-1,-6.617192626E-1,3.909534588E-2
1.833462366E1,-6.588176489E-1,-4.607447684E-1,6.108647957E-2
1.834462366E1,-5.396990180E-1,-2.261726856E-1,8.368847519E-2
1.835462366E1,-3.430005610E-1,1.511890348E-2,7.696896046E-2
1.836462366E1,-1.078176349E-1,2.167042792E-1,5.375609919E-2
1.837462366E1,1.273653060E-1,4.024071693E-1,3.970621154E-2
1.838462366E1,4.676169753E-1,6.467530727E-1,2.138026804E-2
1.839462366E1,5.201513767E-1,6.461422443E-1,7.941242307E-3
1.840462366E1,4.975493550E-1,5.337430835E-1,-7.941242307E-3
1.841462366E1,4.218021333E-1,3.901898861E-1,-1.649334840E-2
1.842462366E1,3.032943606E-1,2.527453005E-1,-9.162971750E-3
1.843462366E1,1.585194170E-1,1.214093715E-1,3.054323839E-3
1.844462366E1,1.496618707E-2,1.084284950E-2,1.404988952E-2
1.845462366E1,1.496618707E-2,1.084284950E-2,1.404988952E-2
1.846462366E1,1.496618707E-2,1.084284950E-2,1.404988952E-2
1.847462366E1,1.496618707E-2,1.084284950E-2,1.404988952E-2
1.848462366E1,1.496618707E-2,1.084284950E-2,1.404988952E-2
1.849462366E1,-5.100720748E-2,4.199695215E-2,-3.115410358E-2
1.850462366E1,2.474002354E-2,5.665770918E-2,-3.054323979E-2
1.851462366E1,9.987638891E-2,8.903354406E-2,-2.382372692E-2
1.852462366E1,9.987638891E-2,8.903354406E-2,-2.382372692E-2
1.853462366E1,9.987638891E-2,8.903354406E-2,-2.382372692E-2
1.854462366E1,2.922987938E-1,3.077231348E-1,-4.886918236E-3
1.855462366E1,2.977965772E-1,3.119991720E-1,-1.221729559E-3
1.856462366E1,2.745837271E-1,2.570213675E-1,-3.054323839E-3
1.857462366E1,2.147189677E-1,1.366809905E-1,-7.941242307E-3
1.858462366E1,1.133154184E-1,-3.863719851E-2,-8.552107029E-3
1.859462366E1,1.133154184E-1,-3.863719851E-2,-8.552107029E-3
1.860462366E1,1.133154184E-1,-3.863719851E-2,-8.552107029E-3
1.861462366E1,-3.992001414E-1,-5.401571989E-1,3.115410358E-2
1.862462366E1,-4.547888339E-1,-4.998401105E-1,4.214967042E-2
1.863462366E1,-4.657844007E-1,-4.021017551E-1,4.886918142E-2
1.864462366E1,-4.321868420E-1,-2.646571696E-1,4.581485689E-2
1.865462366E1,-3.558287323E-1,-9.666935354E-2,4.398226365E-2
1.866462366E1,-3.558287323E-1,-9.666935354E-2,4.398226365E-2
1.867462366E1,6.261363626E-2,3.590357602E-1,3.420842811E-2
1.868462366E1,2.025016695E-1,4.335612655E-1,9.773836471E-3
1.869462366E1,3.045161068E-1,4.506655037E-1,-1.771507785E-2
1.870462366E1,3.558287323E-1,3.920224607E-1,-3.848448023E-2
1.871462366E1,3.564395905E-1,2.649625838E-1,-5.314523727E-2
1.872462366E1,3.045161068E-1,1.036942974E-1,-6.597339362E-2
1.873462366E1,7.910698652E-2,-1.944077164E-1,-8.429934084E-2
1.874462366E1,-5.528326333E-2,-2.872591615E-1,-8.246674389E-2
1.875462366E1,-1.695149690E-1,-3.165806830E-1,-7.024945319E-2
1.876462366E1,-2.373209596E-1,-2.842048407E-1,-5.131264031E-2
1.877462366E1,-2.501491308E-1,-2.145662606E-1,-3.481929377E-2
1.878462366E1,-2.214384824E-1,-1.333212405E-1,-2.443459071E-2
1.879462366E1,-1.689041108E-1,-7.101303339E-2,-1.527161989E-2
1.880462366E1,-5.650499091E-2,-4.963276163E-2,-6.108647794E-4
1.881462366E1,-2.138026757E-3,-4.474584386E-2,1.343902480E-2
1.882462366E1,5.222893879E-2,1.756236330E-2,2.504545636E-2
1.883462366E1,1.096502244E-1,1.287397593E-1,2.138026804E-2
1.884462366E1,1.597411335E-1,2.215912044E-1,2.443459118E-3
1.885462366E1,1.878409237E-1,2.448040545E-1,-1.710421406E-2
1.886462366E1,1.456912458E-1,3.344484791E-2,-3.909534588E-2
1.887462366E1,7.360920310E-2,-1.180496216E-1,-3.298669681E-2
1.888462366E1,-1.435532235E-2,-2.005163580E-1,-2.138026804E-2
1.889462366E1,-9.498947114E-2,-1.974620372E-1,-1.343902480E-2
1.890462366E1,-1.493564397E-1,-1.498145908E-1,-6.719512399E-3
1.891462366E1,-1.737910360E-1,-1.046105921E-1,5.497782957E-3
1.892462366E1,-1.725693047E-1,-7.834340632E-2,2.015853859E-2
1.893462366E1,-1.194240674E-1,-5.085449293E-2,2.993237413E-2
1.894462366E1,-6.505709887E-2,-3.252854943E-2,2.504545636E-2
1.895462366E1,-6.505709887E-2,-3.252854943E-2,2.504545636E-2
1.896462366E1,-6.505709887E-2,-3.252854943E-2,2.504545636E-2
1.897462366E1,-6.505709887E-2,-3.252854943E-2,2.504545636E-2
1.898462366E1,1.579085439E-1,1.036942974E-1,-4.398226365E-2
1.899462366E1,1.517999023E-1,9.147699922E-2,-3.848448023E-2
1.900462366E1,1.517999023E-1,9.147699922E-2,-3.848448023E-2
1.901462366E1,1.517999023E-1,9.147699922E-2,-3.848448023E-2
1.902462366E1,1.517999023E-1,9.147699922E-2,-3.848448023E-2
1.903462366E1,1.517999023E-1,9.147699922E-2,-3.848448023E-2
1.904462366E1,4.306596518E-2,8.231402934E-2,9.162971750E-3
1.905462366E1,7.238747925E-2,1.226311028E-1,-4.276053514E-3
1.906462366E1,9.682206810E-2,1.440113783E-1,-2.015853859E-2
1.907462366E1,9.682206810E-2,1.440113783E-1,-2.015853859E-2
1.908462366E1,9.682206810E-2,1.440113783E-1,-2.015853859E-2
1.909462366E1,9.682206810E-2,1.440113783E-1,-2.015853859E-2
1.910462366E1,-1.007926930E-2,-6.490438432E-2,3.054323839E-3
1.911462366E1,-1.740964688E-2,-7.040216774E-2,1.160643063E-2
1.912462366E1,-4.581485875E-3,-4.291325063E-2,2.443459118E-3
1.913462366E1,1.618791744E-2,-2.641990222E-2,-9.773836471E-3
1.914462366E1,1.618791744E-2,-2.641990222E-2,-9.773836471E-3
1.915462366E1,1.618791744E-2,-2.641990222E-2,-9.773836471E-3
1.916462366E1,1.618791744E-2,-2.641990222E-2,-9.773836471E-3
1.917462366E1,-2.138026757E-3,-1.137735620E-1,4.886918236E-3
1.918462366E1,9.162971983E-4,-1.175914705E-2,2.626718581E-2
1.919462366E1,2.718348242E-2,1.122464016E-1,4.031707719E-2
1.920462366E1,6.933315098E-2,2.075413018E-1,3.298669681E-2
1.921462366E1,6.933315098E-2,2.075413018E-1,3.298669681E-2
1.922462366E1,1.908952445E-1,2.099847645E-1,-3.054323979E-2
1.923462366E1,2.079994529E-1,1.195767820E-1,-4.703658819E-2
1.924462366E1,1.994473487E-1,4.444041103E-2,-5.131264031E-2
1.925462366E1,1.646280587E-1,4.581485991E-4,-4.092793912E-2
1.926462366E1,1.029307172E-1,-9.926552884E-3,-2.260199748E-2
1.927462366E1,3.023780696E-2,4.123337101E-3,6.108647794E-4
1.928462366E1,-9.132428467E-2,2.733619884E-2,1.527161989E-2
1.929462366E1,-1.212566569E-1,2.428187430E-2,0.000000000E0
1.930462366E1,-1.291978955E-1,-1.664606482E-2,-2.199113183E-2
1.931462366E1,-1.298087686E-1,-1.039997265E-1,-3.726275265E-2
1.932462366E1,-1.346956789E-1,-2.121227980E-1,-3.909534588E-2
1.933462366E1,-1.536324918E-1,-3.092502952E-1,-3.359756246E-2
1.934462366E1,-1.805105358E-1,-3.685041666E-1,-2.504545636E-2
1.935462366E1,-2.012799382E-1,-3.074176908E-1,1.099556591E-2
1.936462366E1,-1.664606482E-1,-1.308777779E-1,4.398226365E-2
1.937462366E1,-9.315688163E-2,1.171333194E-1,6.841685623E-2
1.938462366E1,1.313359290E-2,3.749182522E-1,6.352993846E-2
1.939462366E1,1.408043355E-1,5.716167092E-1,3.359756246E-2
1.940462366E1,2.758054435E-1,7.047852278E-1,0.000000000E0
1.941462366E1,4.120282829E-1,8.184061050E-1,-2.932151034E-2
1.942462366E1,6.508764029E-1,9.393573403E-1,-6.902772188E-2
1.943462366E1,7.021890879E-1,8.819360137E-1,-8.063415438E-2
1.944462366E1,6.936369538E-1,6.858484149E-1,-1.130099818E-1
1.945462366E1,5.714640021E-1,3.028362095E-1,-1.258381456E-1
1.946462366E1,3.289506733E-1,-2.860374451E-1,-1.148425788E-1
1.947462366E1,-2.779434808E-2,-9.402735829E-1,-8.491020650E-2
1.948462366E1,-4.511236250E-1,-1.521206021E0,-2.687804960E-2
1.949462366E1,-1.279456258E0,-2.039830208E0,1.313359290E-1
1.950462366E1,-1.527467370E0,-1.695913315E0,1.881463528E-1
1.951462366E1,-1.590997338E0,-1.149800181E0,2.339612097E-1
1.952462366E1,-1.493869781E0,-5.755873322E-1,2.571740746E-1
1.953462366E1,-1.262962937E0,-1.847865991E-2,2.528980076E-1
1.954462366E1,-9.245438576E-1,4.451677203E-1,2.003636509E-1
1.955462366E1,-5.048797131E-1,7.603739500E-1,1.117882580E-1
1.956462366E1,-5.048797131E-1,7.603739500E-1,1.117882580E-1
1.957462366E1,-5.048797131E-1,7.603739500E-1,1.117882580E-1
1.958462366E1,-5.048797131E-1,7.603739500E-1,1.117882580E-1
1.959462366E1,-5.048797131E-1,7.603739500E-1,1.117882580E-1
1.960462366E1,1.115744472E0,-2.225074917E-1,-2.486219704E-1
1.961462366E1,9.208786488E-1,-4.747946560E-1,-2.315177470E-1
1.962462366E1,6.050615907E-1,-6.598866582E-1,-2.021962404E-1
1.963462366E1,6.050615907E-1,-6.598866582E-1,-2.021962404E-1
1.964462366E1,6.050615907E-1,-6.598866582E-1,-2.021962404E-1
1.965462366E1,6.050615907E-1,-6.598866582E-1,-2.021962404E-1
1.966462366E1,-6.838631034E-1,-4.381427765E-1,9.590577334E-2
1.967462366E1,-6.075050235E-1,-2.596175298E-3,1.447749585E-1
1.968462366E1,-4.291325212E-1,4.665479660E-1,1.673769504E-1
1.969462366E1,-1.994473487E-1,8.593340516E-1,1.722638607E-1
1.970462366E1,-1.994473487E-1,8.593340516E-1,1.722638607E-1
1.971462366E1,-1.994473487E-1,8.593340516E-1,1.722638607E-1
1.972462366E1,5.488619804E-1,2.887863219E-1,-3.665188700E-2
1.973462366E1,5.482511520E-1,-9.300415963E-2,-8.552107029E-3
1.974462366E1,5.177078843E-1,-2.518289983E-1,2.015853859E-2
1.975462366E1,4.676169753E-1,-2.145662606E-1,3.481929377E-2
1.976462366E1,4.065304995E-1,-7.040216774E-2,2.748891525E-2
1.977462366E1,2.550360560E-1,1.690568328E-1,-7.330377586E-3
1.978462366E1,1.701258421E-1,1.806632578E-1,-1.771507785E-2
1.979462366E1,9.865466505E-2,1.562286615E-1,-1.588248461E-2
1.980462366E1,4.123337194E-2,1.275180280E-1,-1.343902480E-2
1.981462366E1,-2.748891478E-3,1.140789986E-1,-1.771507785E-2
1.982462366E1,-4.245510325E-2,1.305723488E-1,-2.015853859E-2
