"Time (s)","Linear Acceleration x (m/s^2)","Linear Acceleration y (m/s^2)","Linear Acceleration z (m/s^2)"
2.810834800E-2,0.000000000E0,0.000000000E0,0.000000000E0
3.810834800E-2,4.975318909E-2,-3.658843040E-2,3.739948273E-1
4.810834800E-2,2.459471226E-1,-8.091306686E-2,3.491544724E-1
5.810834800E-2,5.846724510E-1,-2.355408669E-1,-1.301031113E-1
6.810834800E-2,9.528380632E-1,-4.353125095E-1,-7.300243378E-1
7.810834800E-2,1.053732276E0,-4.747800827E-1,-1.329377174E0
8.810834800E-2,6.056374311E-1,-4.720878601E-1,-1.717274666E0
9.810834800E-2,-1.460660696E-1,-1.626949310E-1,-1.785008430E0
1.081083480E-1,-3.039615154E-1,3.134961128E-1,-1.903811455E0
1.181083480E-1,-4.469611645E-1,7.754600048E-1,-2.140829086E0
1.281083480E-1,-2.971620560E-1,1.022809744E0,-2.303178787E0
1.381083480E-1,-1.073774099E-1,9.586904049E-1,-2.624615669E0
1.481083480E-1,-4.153473377E-1,8.117506504E-1,-2.671278000E0
1.581083480E-1,-1.041433215E0,6.612329483E-1,-1.912909508E0
1.681083480E-1,-1.191115856E0,6.297228336E-1,-5.197505951E-1
1.781083480E-1,-6.247718334E-1,7.689082623E-1,8.692750931E-1
1.881083480E-1,-1.116712093E-1,8.095231056E-1,1.776725769E0
1.981083480E-1,-1.665227413E-1,6.881968975E-1,2.219852448E0
2.081083480E-1,-3.197298050E-1,6.830542088E-1,1.731951714E0
2.181083480E-1,-2.362012267E-1,5.645666122E-1,1.231932640E0
2.281083480E-1,-2.170927525E-1,3.907382488E-1,2.694911957E-1
2.381083480E-1,-6.438630819E-2,2.612912655E-1,-4.076223373E-1
2.481083480E-1,1.027013063E-1,3.728127480E-2,-8.727169037E-1
2.581083480E-1,3.764647543E-1,-8.157563210E-2,-1.066711426E0
2.681083480E-1,5.451250672E-1,4.020047188E-2,-9.966888428E-1
2.781083480E-1,6.755200624E-1,1.773266792E-1,-3.776540756E-1
2.881083480E-1,6.193433404E-1,1.864817142E-1,1.628942490E-1
2.981083480E-1,2.234693468E-1,1.589326859E-1,-1.691875458E-1
3.081083480E-1,-3.027567267E-2,1.188893318E-1,-5.106687546E-1
3.181083480E-1,-1.882731915E-3,-9.935235977E-2,-3.426456451E-1
3.281083480E-1,8.797076344E-1,-2.712879181E-1,3.979568481E-1
3.381083480E-1,1.106863976E0,-5.783973932E-1,8.588552475E-1
3.481083480E-1,1.323912144E0,-8.163075447E-1,1.204273224E0
3.581083480E-1,1.607806802E0,-9.374032021E-1,1.297371864E0
3.681083480E-1,1.803161144E0,-1.306699753E0,7.532892227E-1
3.781083480E-1,1.887453556E0,-1.757000685E0,-4.766845703E-2
3.881083480E-1,1.581731558E0,-2.186381578E0,-1.008360863E0
3.981083480E-1,1.214017630E0,-1.920926809E0,-1.520436287E0
4.081083480E-1,9.615241885E-1,-1.853698134E0,-1.310425758E0
4.181083480E-1,8.345415592E-1,-1.912529469E0,-8.328313828E-1
4.281083480E-1,6.736270189E-1,-1.466265917E0,2.022933960E-2
4.381083480E-1,3.248365521E-1,-9.794180393E-1,2.784490585E-1
4.481083480E-1,-1.237801611E-1,-4.609535933E-1,-3.107166290E-2
4.581083480E-1,-7.679301500E-2,-1.490303278E-1,-5.159749985E-1
4.681083480E-1,-1.746048927E-1,-2.333952188E-1,-1.392167091E0
4.781083480E-1,-2.974714041E-1,-2.116930485E-1,-1.873488426E0
4.881083480E-1,-6.211245656E-1,-9.641361237E-2,-2.180299759E-1
4.981083480E-1,-1.319749355E0,-2.091786861E-1,-1.290130615E-2
5.081083480E-1,-2.020945311E0,1.459262371E-1,7.705974579E-2
5.181083480E-1,-1.762388468E0,4.274624586E-1,4.841423035E-1
5.281083480E-1,-1.383480310E0,6.472356319E-1,8.731384277E-1
5.381083480E-1,-1.001178265E0,8.116687536E-1,1.253356934E0
5.481083480E-1,-3.214591742E-1,7.294480801E-1,8.645477295E-1
5.581083480E-1,1.090681553E-2,4.166390896E-1,1.800260544E-1
5.681083480E-1,5.294003487E-1,1.471072435E-1,-2.999114990E-1
5.781083480E-1,7.188118696E-1,-3.333067894E-1,-8.581542969E-1
5.881083480E-1,8.090803623E-1,-6.993632913E-1,-1.387141228E0
5.981083480E-1,7.743774652E-1,-6.694520712E-1,-1.937908173E0
6.081083480E-1,5.754611492E-1,-2.590235472E-1,-2.399316788E0
6.181083480E-1,6.181929111E-1,1.222711802E-1,-2.380376816E0
6.281083480E-1,5.745557547E-1,3.978534937E-1,-2.042692661E0
6.381083480E-1,1.004707813E-1,9.889002442E-1,-1.560241699E0
6.481083480E-1,-1.154513359E-1,1.466786385E0,-1.047436714E0
6.581083480E-1,2.108161449E-1,1.384564161E0,-6.194114685E-1
6.681083480E-1,6.482086182E-1,7.689806819E-1,-4.312038422E-2
6.781083480E-1,1.046212435E0,1.014733016E-1,6.271896362E-1
6.881083480E-1,6.275844574E-1,-1.709861159E-1,1.381221771E0
6.981083480E-1,1.767537594E-1,-4.334129989E-1,2.340202332E0
7.081083480E-1,-4.946074486E-1,-4.090356231E-1,2.877152443E0
7.181083480E-1,-7.107675076E-1,-2.449939251E-1,2.836927414E0
7.281083480E-1,-9.483592510E-1,7.306666672E-2,2.688966751E0
7.381083480E-1,-1.385769606E0,3.441115320E-1,2.611142159E0
7.481083480E-1,-1.285974979E0,3.119764030E-1,2.250230789E0
7.581083480E-1,-9.628653526E-1,7.831930369E-2,1.778158188E0
7.681083480E-1,-7.758088112E-1,-1.675202399E-1,1.257824898E0
7.781083480E-1,-7.007794380E-1,-2.702661455E-1,7.246675491E-1
7.881083480E-1,-6.910603046E-1,-1.641787589E-1,5.272302628E-1
7.981083480E-1,-1.000359297E0,-2.404936254E-1,2.692909241E-1
8.081083480E-1,-6.982200146E-1,-7.490128279E-1,-1.490335464E-1
8.181083480E-1,-5.028758049E-1,-1.022958398E0,-6.349649429E-1
8.281083480E-1,-4.490809441E-1,-1.164871454E0,-9.179658890E-1
8.381083480E-1,-4.000461102E-1,-1.079607606E0,-9.882278442E-1
8.481083480E-1,-2.244858742E-1,-1.002224445E0,-9.640398026E-1
8.581083480E-1,-7.294201851E-2,-9.323445559E-1,-8.185691833E-1
8.681083480E-1,3.413558006E-2,-9.109662771E-1,-4.126062393E-1
8.781083480E-1,4.548072815E-2,-7.941272855E-1,-1.464815140E-1
8.881083480E-1,2.918369770E-1,-4.510467649E-1,5.800914764E-2
8.981083480E-1,-3.597366810E-1,-3.081035912E-1,-2.834224701E-1
9.081083480E-1,-1.323905230E0,1.398549378E-1,-5.595359802E-1
9.181083480E-1,-1.292753220E0,3.486425281E-1,-1.425685883E-1
9.281083480E-1,-6.776394844E-1,5.188027024E-1,1.497783661E-1
9.381083480E-1,1.492350101E-1,4.665796161E-1,1.891870499E-1
9.481083480E-1,3.742623329E-1,1.187778115E-1,3.023033142E-1
9.581083480E-1,3.332319260E-1,-2.536911368E-1,5.881977081E-2
9.681083480E-1,3.252613544E-1,-5.498210788E-1,-3.330297470E-1
9.781083480E-1,5.999063253E-1,-6.252955794E-1,-6.596908569E-1
9.881083480E-1,9.356224537E-1,-7.251487374E-1,-9.671239853E-1
9.981083480E-1,1.164628744E0,-8.383015990E-1,-1.173805237E0
1.008108348E0,1.174339533E0,-8.060151339E-1,-1.276561737E0
1.018108348E0,1.037571549E0,-9.818308949E-1,-1.509212494E0
1.028108348E0,9.560227394E-1,-1.275585890E0,-1.841259003E0
1.038108348E0,8.358064294E-1,-1.499304891E0,-2.045344353E0
1.048108348E0,6.519576311E-1,-1.605991364E0,-2.181399345E0
1.058108348E0,4.307609200E-1,-1.555922389E0,-2.358620644E0
1.068108348E0,2.054501772E-1,-1.324121237E0,-2.496678352E0
1.078108348E0,2.757677436E-1,-9.156290293E-1,-2.114664078E0
1.088108348E0,6.570907235E-1,-3.791984320E-1,-1.343380928E0
1.098108348E0,1.317696929E0,-2.627599239E-2,-5.797367096E-1
1.108108348E0,1.970136523E0,1.015573740E-1,9.774208069E-3
1.118108348E0,2.102972507E0,-2.461656928E-2,1.147193909E-1
1.128108348E0,1.695265174E0,-2.775893807E-1,-1.098613739E-1
1.138108348E0,1.148061395E0,-4.589238465E-1,-1.632146835E-1
1.148108348E0,6.776094437E-1,-4.081300795E-1,1.330318451E-1
1.158108348E0,2.693938017E-1,-1.430627406E-1,3.277635574E-1
1.168108348E0,-1.075719148E-1,2.384245992E-1,7.605676651E-1
1.178108348E0,-2.926720381E-1,4.403804243E-1,9.528188705E-1
1.188108348E0,-2.439318299E-1,4.083582163E-1,7.685394287E-1
1.198108348E0,-9.077394009E-2,2.660824060E-1,6.272506714E-1
1.208108348E0,-4.316547513E-2,2.149484754E-1,5.531063080E-1
1.218108348E0,-1.392902136E-1,3.052646518E-1,3.876590729E-1
1.228108348E0,-1.435215175E-1,4.735021591E-1,3.148422241E-1
1.238108348E0,-1.686969995E-1,4.941682816E-1,-2.076005936E-1
1.248108348E0,-2.039585263E-2,3.533095121E-1,-5.898904800E-1
1.258108348E0,7.872608304E-2,2.539664507E-1,-5.838327408E-1
1.268108348E0,-1.574117690E-2,2.044805884E-1,-2.090911865E-1
1.278108348E0,-2.368566692E-1,1.890396476E-1,3.799543381E-1
1.288108348E0,-5.974930525E-1,2.661001682E-1,7.691221237E-1
1.298108348E0,-7.201050520E-1,3.491638303E-1,9.097700119E-1
1.308108348E0,-2.969832122E-1,2.684531808E-1,5.763568878E-1
1.318108348E0,2.437176108E-1,2.030579448E-1,-3.255748749E-2
1.328108348E0,7.077914476E-1,1.474115252E-1,-2.550964355E-1
1.338108348E0,8.816180229E-1,5.000895262E-2,2.447128296E-2
1.348108348E0,8.360925317E-1,-2.290054560E-1,5.381536484E-1
1.358108348E0,7.076622844E-1,-5.837875605E-1,8.073568344E-1
1.368108348E0,3.216409683E-1,-7.589122653E-1,6.357431412E-1
1.378108348E0,7.734759152E-2,-7.609055638E-1,1.469449997E-1
1.388108348E0,-6.000506878E-2,-7.062392831E-1,-2.040967941E-1
1.398108348E0,1.155533195E-1,-6.832501888E-1,-6.451129913E-2
1.408108348E0,1.128560305E-1,-5.652953386E-1,1.191711426E-1
1.418108348E0,2.918880582E-1,-4.287011623E-1,3.954601288E-1
1.428108348E0,3.018934131E-1,-4.543447495E-2,5.306348801E-1
1.438108348E0,1.158658266E-1,3.667278290E-1,2.228078842E-1
1.448108348E0,3.727651834E-1,4.293327332E-1,-1.696109772E-2
1.458108348E0,3.260016441E-3,1.080969930E0,-1.583921432E0
1.468108348E0,-1.371805668E-1,1.641043305E0,-2.159548759E0
1.478108348E0,-1.568603516E-2,1.830433607E0,-1.854532242E0
1.488108348E0,3.610754013E-2,1.583513260E0,-1.561287880E0
1.498108348E0,-1.053423882E-1,1.156210899E0,-1.417055130E0
1.508108348E0,-1.503410339E-1,6.960847378E-1,-1.282577515E0
1.518108348E0,-1.634018421E-1,2.478601933E-1,-1.214429855E0
1.528108348E0,-2.935786247E-1,-2.724933624E-2,-1.091040611E0
1.538108348E0,-4.738343954E-1,2.553880215E-2,-7.834415436E-1
1.548108348E0,-5.003510714E-1,1.432000399E-1,-4.651222229E-1
1.558108348E0,-2.730706930E-1,1.473394632E-1,-2.453851700E-1
1.568108348E0,6.939220428E-2,8.408975601E-2,-2.823238373E-1
1.578108348E0,3.678570986E-1,-5.989587307E-2,-4.561271667E-1
1.588108348E0,4.905050397E-1,-2.058982849E-1,-6.167650223E-1
1.598108348E0,4.412380457E-1,-2.998758554E-1,-1.006304741E0
1.608108348E0,2.867925167E-1,-2.957534790E-1,-1.383929253E0
1.618108348E0,5.902051926E-2,-2.698993683E-1,-1.517806053E0
1.628108348E0,-3.152971268E-1,-6.517732143E-2,-1.471584320E0
1.638108348E0,-5.933495760E-1,1.784254313E-1,-1.338061333E0
1.648108348E0,-7.077977657E-1,3.932253122E-1,-1.128477097E0
1.658108348E0,-8.701878786E-1,6.496363878E-1,-8.156013489E-1
1.668108348E0,-8.313876390E-1,7.119544744E-1,-3.425416946E-1
1.678108348E0,-4.158917665E-1,4.258325100E-1,1.804895401E-1
1.688108348E0,-1.231600046E-1,1.918674707E-1,6.306924820E-1
1.698108348E0,-1.610451937E-1,2.481009960E-1,7.944536209E-1
1.708108348E0,-2.395620346E-1,3.728507757E-1,7.349090576E-1
1.718108348E0,-4.788470268E-2,3.895580769E-1,6.835289001E-1
1.728108348E0,3.999151587E-1,2.760297060E-1,7.052545547E-1
1.738108348E0,7.128702402E-1,1.673966646E-1,8.658342361E-1
1.748108348E0,6.171048880E-1,2.462537289E-1,1.312841415E0
1.758108348E0,4.610653222E-1,2.016414404E-1,1.436880112E0
1.768108348E0,2.794935107E-1,1.498936415E-1,1.468620300E0
1.778108348E0,-1.013641357E-1,2.471976280E-1,1.526575089E0
1.788108348E0,-4.128505588E-1,2.752999067E-1,1.390193939E0
1.798108348E0,-3.312836885E-1,1.064686775E-1,1.180609703E0
1.808108348E0,-1.699643731E-1,3.096210957E-2,9.765386581E-1
1.818108348E0,-9.356307983E-2,8.519947529E-2,6.521759033E-1
1.828108348E0,1.095473766E-3,1.609675884E-1,3.032159805E-1
1.838108348E0,1.107841134E-1,2.312287092E-1,1.281318665E-1
1.848108348E0,1.401333809E-1,3.249018192E-1,1.235828400E-1
1.858108348E0,1.347641349E-1,4.171073437E-1,2.488069534E-1
1.868108348E0,1.535166502E-1,4.497976303E-1,4.379796982E-1
1.878108348E0,1.736387610E-1,4.519230127E-1,6.118545532E-1
1.888108348E0,1.711356044E-1,3.714928627E-1,6.907920837E-1
1.898108348E0,4.606139660E-2,2.794291973E-1,7.042369843E-1
1.908108348E0,-4.229247570E-2,1.348004341E-1,6.375389099E-1
1.918108348E0,-1.922309399E-3,-5.827116966E-2,5.620870590E-1
1.928108348E0,-8.923542500E-2,-1.497048140E-1,4.637966156E-1
1.938108348E0,-2.121891379E-1,-2.445788383E-1,3.891181946E-1
1.948108348E0,-3.936677575E-1,-3.214193583E-1,3.655319214E-1
1.958108348E0,-5.551992059E-1,-3.121633530E-1,2.514410019E-1
1.968108348E0,-6.287272573E-1,-2.949372530E-1,1.429796219E-1
1.978108348E0,-5.882865787E-1,-3.323402405E-1,6.753921509E-3
1.988108348E0,-4.836227298E-1,-3.597036600E-1,-1.397228241E-1
1.998108348E0,-3.365685940E-1,-3.759233356E-1,-3.835201263E-1
2.008108348E0,-2.279996872E-1,-3.559925556E-1,-6.548757553E-1
2.018108348E0,-2.240279317E-1,-2.673171759E-1,-7.486352921E-1
2.028108348E0,-3.012958765E-1,-9.892177582E-2,-7.698621750E-1
2.038108348E0,-4.033721685E-1,1.156492233E-1,-6.508312225E-1
2.048108348E0,-4.519909024E-1,3.587826490E-1,-3.926887512E-1
2.058108348E0,-3.599621058E-1,5.009232759E-1,-5.430507660E-2
2.068108348E0,-6.621384621E-2,4.507540464E-1,1.746358871E-1
2.078108348E0,2.666894794E-1,3.009039164E-1,4.286661148E-1
2.088108348E0,3.730198145E-1,2.117513418E-1,6.286973953E-1
2.098108348E0,2.763181925E-1,1.018974185E-1,5.687084198E-1
2.108108348E0,1.402218938E-1,-4.783052206E-2,3.095922470E-1
2.118108348E0,9.180760384E-2,-1.232500076E-1,1.327085495E-1
2.128108348E0,1.148563027E-1,-7.232874632E-2,2.785873413E-2
2.138108348E0,1.914054155E-1,9.002327919E-2,-1.153907776E-1
2.148108348E0,4.196610749E-1,2.002129555E-1,-2.100534439E-1
2.158108348E0,6.211448908E-1,3.069413900E-1,-1.117906570E-1
2.168108348E0,6.050541401E-1,4.790912271E-1,1.170473099E-1
2.178108348E0,6.038333178E-1,5.596795678E-1,3.612337112E-1
2.188108348E0,7.562299967E-1,4.833996892E-1,7.527256012E-1
2.198108348E0,8.260988593E-1,3.285372257E-1,1.133466721E0
2.208108348E0,5.618311763E-1,2.244583368E-1,1.172757149E0
2.218108348E0,2.552016973E-1,1.732498407E-2,8.527927399E-1
2.228108348E0,1.197524667E-1,-1.934753656E-1,5.159072876E-1
2.238108348E0,-7.855296135E-4,-3.181006908E-1,3.363046646E-1
2.248108348E0,-2.618547082E-1,-3.107181191E-1,2.089252472E-1
2.258108348E0,-3.225304484E-1,-4.122323394E-1,-1.056594849E-1
2.268108348E0,-1.066882610E-1,-4.314854741E-1,-3.886747360E-1
2.278108348E0,1.457866430E-1,-3.254154325E-1,-6.658792496E-1
2.288108348E0,2.015104890E-1,-2.398800850E-1,-8.234643936E-1
2.298108348E0,2.027356625E-2,-2.109194994E-1,-8.445529938E-1
2.308108348E0,-2.375826240E-1,-1.205945015E-1,-7.391376495E-1
2.318108348E0,-8.951478004E-1,2.440270185E-1,-4.209041595E-1
2.328108348E0,-3.853022456E-1,4.587666988E-1,-3.572492599E-1
2.338108348E0,1.064639688E-1,3.896474838E-1,-3.095035553E-1
2.348108348E0,4.730912745E-1,3.277291059E-1,-1.319074631E-1
2.358108348E0,9.386138916E-1,1.212707758E-1,-1.899242401E-2
2.368108348E0,1.101026893E0,6.011724472E-3,3.041639328E-1
2.378108348E0,1.086135745E0,-1.052430868E-1,4.455852509E-1
2.388108348E0,9.825665951E-1,-2.060699463E-1,4.209156036E-1
2.398108348E0,8.449969292E-1,-1.342917085E-1,2.443647385E-1
2.408108348E0,4.870066941E-1,1.093065739E-2,3.874111176E-2
2.418108348E0,1.410596371E-1,2.780055404E-1,2.846622467E-2
2.428108348E0,1.277751923E-1,4.180613756E-1,-1.604948044E-1
2.438108348E0,1.565424204E-1,2.479227781E-1,-7.064094543E-1
2.448108348E0,1.293671727E-1,1.995432377E-1,-1.102990150E0
2.458108348E0,-7.473868132E-2,3.492046595E-1,-1.336346626E0
2.468108348E0,-3.117248416E-1,4.927375317E-1,-1.334207535E0
2.478108348E0,-2.582646608E-1,5.406076908E-1,-1.185064316E0
2.488108348E0,6.154686213E-2,4.928448200E-1,-1.049439430E0
2.498108348E0,4.458195865E-1,2.996522784E-1,-7.825441360E-1
2.508108348E0,6.687846184E-1,-7.165610790E-3,-2.832908630E-1
2.518108348E0,5.985764265E-1,-3.052248955E-1,1.844568253E-1
2.528108348E0,3.165362179E-1,-4.030053020E-1,4.323587418E-1
2.538108348E0,8.689343929E-2,-4.112667739E-1,3.938446045E-1
2.548108348E0,-2.089583278E-1,-2.558471560E-1,3.952560425E-1
2.558108348E0,-4.180195928E-1,-1.034904122E-1,2.199831009E-1
2.568108348E0,-2.374245524E-1,5.915760994E-2,-1.094932556E-1
2.578108348E0,-2.616373897E-1,2.331585884E-1,-4.623918533E-1
2.588108348E0,-7.306544185E-1,9.446328878E-2,-1.071887016E0
2.598108348E0,-1.001571417E0,1.579656601E-1,-1.121654510E0
2.608108348E0,-1.271317244E0,1.971297860E-1,-1.222018242E0
2.618108348E0,-1.454320192E0,4.434106946E-1,-1.196604729E0
2.628108348E0,-1.304799318E0,4.967387319E-1,-7.742261887E-1
2.638108348E0,-1.004124045E0,4.482912421E-1,-5.100831985E-1
2.648108348E0,-7.403777838E-1,3.831834793E-1,-4.776840210E-1
2.658108348E0,-4.624217153E-1,3.538610935E-1,-2.916879654E-1
2.668108348E0,-8.989554644E-2,3.453813195E-1,6.638240814E-2
2.678108348E0,1.942908168E-1,2.666718364E-1,3.132266998E-1
2.688108348E0,3.962734938E-1,6.409454346E-2,3.924293518E-1
2.698108348E0,5.713953972E-1,-1.110466123E-1,2.545166016E-1
2.708108348E0,8.781278729E-1,-1.282458305E-1,1.644229889E-1
2.718108348E0,1.272904873E0,-1.896558404E-1,2.719135284E-1
2.728108348E0,1.685052276E0,-3.254099488E-1,3.195152283E-1
2.738108348E0,1.920966625E0,-3.146703243E-1,2.965545654E-1
2.748108348E0,1.244254827E0,2.804732323E-2,2.127561569E-1
2.758108348E0,4.762133956E-1,4.370284081E-1,1.712388992E-1
2.768108348E0,-6.114220619E-2,4.794529676E-1,7.275962830E-2
2.778108348E0,3.153151274E-2,1.543375254E-1,-1.886453629E-1
2.788108348E0,4.506425261E-1,-2.699434757E-1,-5.287761688E-1
2.798108348E0,9.387744665E-1,-5.520577431E-1,-8.458700180E-1
2.808108348E0,9.097716808E-1,-5.925506949E-1,-1.236085892E0
2.818108348E0,9.836471081E-1,-6.923996210E-1,-3.291826248E-1
2.828108348E0,3.260947466E-1,-3.714672327E-1,1.493377686E-1
2.838108348E0,1.740781426E0,5.199754238E-1,1.659854889E0
2.848108348E0,1.779608011E0,3.364970684E-1,1.844059944E0
2.858108348E0,1.986145973E0,5.666588545E-1,1.765166283E0
2.868108348E0,2.310854673E0,1.129905701E0,3.036594391E-2
2.878108348E0,1.702473402E0,1.117825150E0,-2.996625900E-1
2.888108348E0,7.414299250E-2,2.105917931E-1,2.722740173E-3
2.898108348E0,-8.785911798E-1,-5.700289011E-1,2.928562164E-1
2.908108348E0,-8.531727195E-1,-7.477632761E-1,4.186029434E-1
2.918108348E0,-1.817264557E-1,-5.239291191E-1,1.685905457E-1
2.928108348E0,5.070563555E-1,-2.279264927E-1,-4.697427750E-1
2.938108348E0,5.670692325E-1,-1.540269852E-1,-1.209526062E0
2.948108348E0,1.461481452E-1,-1.537169218E-1,-1.666462421E0
2.958108348E0,-1.257131100E-1,4.702997208E-2,-1.962187767E0
2.968108348E0,-2.380544543E-1,2.652425766E-1,-2.118582726E0
2.978108348E0,-4.310566187E-2,3.162348270E-1,-2.038209915E0
2.988108348E0,3.491455913E-1,3.008518219E-1,-1.671680450E0
2.998108348E0,3.721164167E-1,3.735015392E-1,-1.399657249E0
3.008108348E0,1.189861298E-1,4.716966152E-1,-1.292970657E0
3.018108348E0,-1.278966069E-1,7.166597843E-1,-9.615449905E-1
3.028108348E0,-9.612298012E-2,9.848299026E-1,-7.932605743E-1
3.038108348E0,-7.310289145E-2,6.439768076E-1,-1.092758179E0
3.048108348E0,-4.898506403E-2,4.310480356E-1,-1.092308044E0
3.058108348E0,-6.381100416E-2,4.018021822E-1,-7.769393921E-2
3.068108348E0,-3.194648027E-2,1.964845657E-1,1.653525352E0
3.078108348E0,2.929171324E-1,-7.335231304E-1,3.027600288E0
3.088108348E0,1.189291239E0,-1.342361569E0,4.085786819E0
3.098108348E0,1.370224237E0,-8.253332376E-1,4.317619324E0
3.108108348E0,1.168579102E0,1.694846153E-2,3.573808670E0
3.118108348E0,9.265273809E-1,5.898474455E-1,2.400859833E0
3.128108348E0,4.491428137E-1,6.943018436E-1,1.067502022E0
3.138108348E0,8.183515072E-2,3.685710430E-1,-2.645826340E-1
3.148108348E0,3.021273017E-1,-9.313583374E-2,-1.764667988E0
3.158108348E0,7.804394960E-1,-3.862830400E-1,-2.693693161E0
3.168108348E0,5.862654448E-1,-7.302308083E-2,-3.144498825E0
3.178108348E0,-3.009298444E-1,7.517267466E-1,-2.935643196E0
3.188108348E0,-1.021346450E0,1.320014238E0,-2.204975605E0
3.198108348E0,-1.021508455E0,1.265424728E0,-1.427969933E0
3.208108348E0,-5.952948332E-1,8.792642355E-1,-6.165370941E-1
3.218108348E0,-2.373597026E-2,5.727654696E-1,4.118824005E-1
3.228108348E0,3.863975704E-1,4.186500311E-1,1.629931450E0
3.238108348E0,3.627411723E-1,3.666373491E-1,2.731394768E0
3.248108348E0,6.654947996E-1,3.022083044E-1,3.388989449E0
3.258108348E0,1.110077620E0,2.908567190E-1,3.419240952E0
3.268108348E0,1.088079691E0,1.654773951E-1,2.714614868E0
3.278108348E0,9.586508870E-1,9.725093842E-3,1.489834785E0
3.288108348E0,8.116414547E-1,-2.214300632E-1,4.402256012E-2
3.298108348E0,9.351849556E-1,-2.508357763E-1,-1.394421577E0
3.308108348E0,1.088259339E0,-2.192618847E-1,-2.526571751E0
3.318108348E0,1.004035950E0,-2.418760061E-1,-3.160104752E0
3.328108348E0,6.295323372E-1,-2.506148815E-2,-3.202694893E0
3.338108348E0,1.522680521E-1,4.766056538E-1,-2.920483589E0
3.348108348E0,2.019301057E-1,9.462176561E-1,-2.567616940E0
3.358108348E0,2.774385214E-1,1.147808194E0,-2.338217735E0
3.368108348E0,6.133269072E-1,1.105817914E0,-2.012546062E0
3.378108348E0,6.808583736E-1,8.517457247E-1,-1.789257526E0
3.388108348E0,6.393662691E-1,8.093420267E-1,-1.442171097E0
3.398108348E0,9.907026291E-1,9.450584650E-1,-8.010215759E-1
3.408108348E0,7.963865399E-1,8.021736145E-1,-2.822904587E-1
3.418108348E0,6.523429155E-1,5.318001509E-1,1.014785767E-1
3.428108348E0,5.571801662E-1,3.489837646E-1,1.792564392E-1
3.438108348E0,5.958417654E-1,1.890535355E-1,-9.886741638E-3
3.448108348E0,6.850607991E-1,3.083205223E-2,-5.239706039E-1
3.458108348E0,6.977590322E-1,-1.270411015E-1,-1.090695381E0
3.468108348E0,5.776637793E-1,-2.550503016E-1,-1.493218899E0
3.478108348E0,3.578516245E-1,-2.733566761E-1,-1.794260979E0
3.488108348E0,1.677355766E-1,-1.894538403E-1,-1.957490921E0
3.498108348E0,8.321750164E-2,-1.613950729E-2,-2.112638474E0
3.508108348E0,4.722952843E-3,2.117917538E-1,-2.164351463E0
3.518108348E0,-1.385250092E-1,4.956197739E-1,-1.943731308E0
3.528108348E0,-2.487268448E-1,7.025504112E-1,-1.512433529E0
3.538108348E0,-3.355475664E-1,7.500305176E-1,-6.694936752E-1
3.548108348E0,-2.441717386E-1,5.339651108E-1,-5.062770844E-2
3.558108348E0,2.559107542E-1,2.237627506E-1,3.852510452E-1
3.568108348E0,5.295495987E-1,1.776731014E-1,7.391185760E-1
3.578108348E0,7.283052206E-1,2.936797142E-1,7.474641800E-1
3.588108348E0,6.859586835E-1,4.267876148E-1,5.471782684E-1
3.598108348E0,6.587557197E-1,3.388659954E-1,3.882951736E-1
3.608108348E0,8.319163322E-1,1.264597178E-1,2.103090286E-1
3.618108348E0,8.388559222E-1,-5.700194836E-2,1.773090363E-1
3.628108348E0,4.791626632E-1,-8.749175072E-2,4.138097763E-1
3.638108348E0,-2.415692806E-2,5.536472797E-2,9.798679352E-1
3.648108348E0,-3.448717594E-1,2.499222755E-1,1.949443817E0
3.658108348E0,-4.412233233E-1,3.120239973E-1,2.744094849E0
3.668108348E0,6.752043962E-3,3.266402483E-1,2.958724976E0
3.678108348E0,5.206193924E-1,3.980433941E-1,2.853970528E0
3.688108348E0,1.124197006E0,3.149577379E-1,2.411621094E0
3.698108348E0,1.279463053E0,-5.517506599E-2,1.932865143E0
3.708108348E0,7.739709616E-1,-3.422082067E-1,1.448156357E0
3.718108348E0,5.834381580E-1,-5.814359188E-1,1.077421188E0
3.728108348E0,4.856642783E-1,-5.445441008E-1,8.757343292E-1
3.738108348E0,4.374726415E-1,-2.534203529E-1,7.965164185E-1
3.748108348E0,4.354270101E-1,8.349716663E-2,6.380434036E-1
3.758108348E0,3.995814919E-1,3.633767366E-1,3.521432877E-1
3.768108348E0,4.377190769E-1,4.822732210E-1,-1.158523560E-2
3.778108348E0,3.367709816E-1,6.011531353E-1,-4.161949158E-1
3.788108348E0,3.973592520E-1,7.893823385E-1,-5.527954102E-1
3.798108348E0,6.016589403E-1,8.159631491E-1,-4.433336258E-1
3.808108348E0,5.930193067E-1,8.324496746E-1,-2.719669342E-1
3.818108348E0,3.680934310E-1,8.779994249E-1,-6.013870239E-3
3.828108348E0,1.918864399E-1,7.692178488E-1,1.471395493E-1
3.838108348E0,2.990102470E-1,4.751318693E-1,2.315187454E-1
3.848108348E0,5.196141601E-1,3.379294872E-1,5.161161423E-1
3.858108348E0,1.034134388E0,5.313695669E-1,8.236865997E-1
3.868108348E0,1.059327841E0,5.180981159E-1,8.705053329E-1
3.878108348E0,5.140562654E-1,4.698499441E-1,6.272602081E-1
3.888108348E0,7.012829185E-2,3.421827555E-1,1.103286743E-1
3.898108348E0,-2.308794856E-1,-1.851356030E-1,-4.773683548E-1
3.908108348E0,-1.254727244E-1,-8.219151497E-1,-8.875217438E-1
3.918108348E0,2.409704328E-1,-1.204274654E0,-1.009953499E0
3.928108348E0,5.104646087E-1,-1.221683145E0,-8.572750092E-1
3.938108348E0,8.488146067E-1,-9.093421102E-1,-7.362947464E-1
3.948108348E0,1.236145377E0,-4.469572306E-1,-8.147230148E-1
3.958108348E0,1.603010654E0,-2.496147156E-2,-1.521539688E0
3.968108348E0,1.950216293E0,5.894602537E-1,-2.628550529E0
3.978108348E0,2.337085009E0,1.025639296E0,-3.681513786E0
3.988108348E0,2.049645662E0,7.840340137E-1,-4.663500786E0
3.998108348E0,6.977411509E-1,9.390513897E-1,-5.038954258E0
4.008108348E0,-2.904717326E-1,1.211324930E0,-4.662190437E0
4.018108348E0,-1.384559155E0,1.521067142E0,-2.837856293E0
4.028108348E0,-2.506652594E0,1.107197285E0,-7.867364883E-1
4.038108348E0,-2.273790836E0,1.041284204E0,1.349378586E0
4.048108348E0,-6.796177626E-1,8.155785799E-1,3.651064873E0
4.058108348E0,8.966500759E-1,3.409962654E-1,5.011726379E0
4.068108348E0,1.768866897E0,4.283189774E-4,5.357620239E0
4.078108348E0,1.656897426E0,3.773880005E-2,4.767558098E0
4.088108348E0,1.014939070E0,4.171835184E-1,4.112374306E0
4.098108348E0,-2.926248312E-2,2.637660503E-1,3.370355606E0
4.108108348E0,-7.957214117E-1,-1.087127924E-1,2.666951180E0
4.118108348E0,-9.451530576E-1,-5.727602243E-1,1.708689690E0
4.128108348E0,-3.302350342E-1,-6.720709801E-1,7.857418060E-1
4.138108348E0,1.668156683E-1,-3.050140142E-1,2.154827118E-2
4.148108348E0,5.613088012E-1,1.863429546E-1,-6.459035873E-1
4.158108348E0,7.526661158E-1,7.705352306E-1,-8.980903625E-1
4.168108348E0,7.905735970E-1,1.243679881E0,-6.894187927E-1
4.178108348E0,5.484644175E-1,1.431409240E0,-1.759138107E-1
4.188108348E0,1.497644037E-1,1.436082602E0,6.968698502E-1
4.198108348E0,-5.074999928E-1,1.183705568E0,1.886038780E0
4.208108348E0,-8.610361814E-1,8.989496231E-1,3.208370209E0
4.218108348E0,-4.730504453E-1,7.847558260E-1,4.381617546E0
4.228108348E0,5.827158093E-1,4.621007442E-1,4.794071198E0
4.238108348E0,1.711810827E0,-6.086719036E-2,4.486252785E0
4.248108348E0,1.904589653E0,-3.959757090E-1,3.739795685E0
4.258108348E0,1.541415334E0,-5.737729073E-1,2.605366707E0
4.268108348E0,1.462753177E0,-5.303741693E-1,1.308070183E0
4.278108348E0,1.178832173E0,-4.285427332E-1,5.606269836E-2
4.288108348E0,7.208591700E-1,-4.343973994E-1,-1.069602966E0
4.298108348E0,8.017062545E-1,-5.229794383E-1,-2.233372211E0
4.308108348E0,1.252746344E0,-4.380422831E-1,-3.173218727E0
4.318108348E0,1.508028030E0,-2.582608461E-1,-3.864636421E0
4.328108348E0,1.526633263E0,1.091926098E-1,-4.101040840E0
4.338108348E0,1.342558622E0,5.163179636E-1,-3.965390205E0
4.348108348E0,4.892599583E-1,9.724384546E-1,-3.209327698E0
4.358108348E0,-1.586188972E-1,1.360960126E0,-2.950246811E0
4.368108348E0,-2.770752013E-1,1.482521653E0,-2.279212952E0
4.378108348E0,-7.362501621E-1,1.485912919E0,-1.327914238E0
4.388108348E0,-7.996986508E-1,1.401342988E0,-2.135553360E-1
4.398108348E0,-4.880818725E-1,9.012601376E-1,9.426689148E-1
4.408108348E0,1.618015021E-1,3.397806883E-1,1.810879707E0
4.418108348E0,4.578070641E-1,1.308004856E-1,2.251678467E0
4.428108348E0,5.660511851E-1,-1.625406742E-2,2.182394028E0
4.438108348E0,8.156142831E-1,-1.797388792E-1,1.697543144E0
4.448108348E0,8.922424316E-1,-5.346295834E-1,8.941450119E-1
4.458108348E0,9.876456261E-1,-9.326579571E-1,4.391765594E-2
4.468108348E0,1.208804846E0,-1.099053144E0,-8.106317520E-1
4.478108348E0,1.222508073E0,-1.069285274E0,-1.724481583E0
4.488108348E0,1.291462660E0,-9.342131615E-1,-2.486704826E0
4.498108348E0,1.356795549E0,-6.479070187E-1,-2.921411514E0
4.508108348E0,1.581262946E0,-4.004142284E-1,-3.429504395E0
4.518108348E0,1.679556608E0,4.811072350E-2,-3.742840290E0
4.528108348E0,1.512405992E0,4.838109016E-1,-3.831449509E0
4.538108348E0,1.531207204E0,8.372073174E-1,-3.895406723E0
4.548108348E0,1.480573893E0,1.312956572E0,-3.530287266E0
4.558108348E0,1.106240749E0,1.613464594E0,-3.060475349E0
4.568108348E0,6.676939130E-1,1.756203651E0,-2.301269531E0
4.578108348E0,2.586837411E-1,1.722270727E0,-1.298858643E0
4.588108348E0,-2.632228732E-1,1.526134014E0,-3.548822403E-1
4.598108348E0,-9.679135680E-1,1.439797878E0,4.582109451E-1
4.608108348E0,-1.255369425E0,8.579516411E-1,1.090817451E0
4.618108348E0,-8.960981369E-1,2.155826092E-1,1.639545441E0
4.628108348E0,-2.979124486E-1,-2.162530422E-1,2.138288498E0
4.638108348E0,-1.030138135E-2,-3.400980234E-1,2.397134781E0
4.648108348E0,5.952054262E-2,-3.381859064E-1,2.446427345E0
4.658108348E0,2.688072026E-1,-3.444814682E-1,2.295711517E0
4.668108348E0,5.487353206E-1,-2.564022541E-1,1.922380447E0
4.678108348E0,7.142415047E-1,-7.770478725E-2,1.392680168E0
4.688108348E0,7.262519598E-1,1.705222130E-1,7.842912674E-1
4.698108348E0,6.788348556E-1,4.544532299E-1,1.301221848E-1
4.708108348E0,5.017278194E-1,7.564692497E-1,-4.381914139E-1
4.718108348E0,2.518295348E-1,9.150192738E-1,-8.109807968E-1
4.728108348E0,1.341305375E-1,1.004081964E0,-8.884563446E-1
4.738108348E0,4.374259710E-2,1.024825573E0,-7.214727402E-1
4.748108348E0,3.816843033E-3,9.588418007E-1,-4.236030579E-1
4.758108348E0,4.239282012E-2,8.180654049E-1,-2.105226517E-1
4.768108348E0,2.441078424E-2,6.248910427E-1,-2.092456818E-2
4.778108348E0,5.820533633E-2,4.331901073E-1,1.582651138E-1
4.788108348E0,1.330417395E-1,2.490048409E-1,3.073263168E-1
4.798108348E0,-3.350007534E-2,9.304320812E-2,5.595216751E-1
4.808108348E0,7.185339928E-4,7.807850838E-3,8.182106018E-1
4.818108348E0,3.173783422E-1,-5.318963528E-2,9.409389496E-1
4.828108348E0,6.080785394E-1,-1.071146727E-1,8.767290115E-1
4.838108348E0,7.870640159E-1,-1.013300419E-1,6.708135605E-1
4.848108348E0,8.721103668E-1,-2.535462379E-3,2.940149307E-1
4.858108348E0,9.261066914E-1,1.662375927E-1,-1.365308762E-1
4.868108348E0,8.053499460E-1,2.585444450E-1,-6.906719208E-1
4.878108348E0,6.629485488E-1,2.822358608E-1,-1.364958763E0
4.888108348E0,6.863682866E-1,3.919441700E-1,-1.811685562E0
4.898108348E0,6.995502114E-1,5.606172085E-1,-1.965066910E0
4.908108348E0,6.382505894E-1,6.644823551E-1,-1.892710686E0
4.918108348E0,5.102884769E-1,7.615995407E-1,-1.686730862E0
4.928108348E0,3.350186944E-1,7.402722836E-1,-1.288149834E0
4.938108348E0,1.572056711E-1,6.994283199E-1,-7.484560013E-1
4.948108348E0,-1.667916775E-3,6.826617718E-1,-2.872657776E-1
4.958108348E0,-9.482735395E-2,6.430239677E-1,1.048583984E-1
4.968108348E0,-1.265708804E-1,5.266760588E-1,3.367347717E-1
4.978108348E0,3.806668520E-2,3.596135378E-1,5.673189163E-1
4.988108348E0,7.869261503E-2,2.070536613E-1,6.152086258E-1
4.998108348E0,2.749032974E-1,5.809581280E-2,7.199659348E-1
5.008108348E0,3.354507387E-1,-1.852631569E-3,9.536075592E-1
5.018108348E0,2.422935963E-1,-4.465222359E-2,1.084411621E0
5.028108348E0,2.355609238E-1,-1.950240135E-2,9.882955551E-1
5.038108348E0,4.023923576E-1,5.576145649E-2,6.556882858E-1
5.048108348E0,5.838664174E-1,1.284171343E-1,2.139415741E-1
5.058108348E0,7.031904459E-1,1.797753572E-1,-1.448297501E-1
5.068108348E0,7.034938335E-1,1.994659901E-1,-4.532632828E-1
5.078108348E0,7.158198357E-1,2.204595804E-1,-7.106695175E-1
5.088108348E0,6.592781544E-1,2.586822510E-1,-8.961868286E-1
5.098108348E0,5.037766099E-1,3.946465254E-1,-9.098148346E-1
5.108108348E0,3.428472877E-1,5.109388828E-1,-8.764381409E-1
5.118108348E0,1.815286875E-1,5.099691153E-1,-8.811407089E-1
5.128108348E0,5.690473318E-2,5.326011181E-1,-7.249002457E-1
5.138108348E0,8.875012398E-3,5.459842682E-1,-4.947242737E-1
5.148108348E0,1.060264707E-1,4.533593655E-1,-2.743911743E-1
5.158108348E0,2.940222621E-1,2.716484070E-1,-4.668140411E-2
5.168108348E0,3.975767791E-1,1.336408854E-1,6.623363495E-2
5.178108348E0,3.635158241E-1,1.363667250E-1,7.211875916E-2
5.188108348E0,3.645487130E-1,1.954799891E-1,1.061620712E-1
5.198108348E0,4.826574922E-1,2.208511829E-1,2.366704941E-1
5.208108348E0,4.778105021E-1,2.858368158E-1,5.018463135E-1
5.218108348E0,4.761870503E-1,2.912384272E-1,5.798530579E-1
5.228108348E0,5.239165425E-1,2.828087807E-1,5.088644028E-1
5.238108348E0,5.564074516E-1,2.915418148E-1,4.028797150E-1
5.248108348E0,4.494357407E-1,3.122276068E-1,4.461364746E-1
5.258108348E0,2.457935214E-1,3.823876381E-1,6.173410416E-1
5.268108348E0,1.572160721E-1,4.284365177E-1,6.908273697E-1
5.278108348E0,3.051351607E-1,4.312270880E-1,5.781335831E-1
5.288108348E0,5.451227427E-1,3.480628729E-1,4.544944763E-1
5.298108348E0,6.000454426E-1,2.543284893E-1,3.335428238E-1
5.308108348E0,4.439365864E-1,1.835616827E-1,2.091693878E-1
5.318108348E0,3.281255066E-1,1.415983438E-1,9.167003632E-2
5.328108348E0,3.592998385E-1,1.469252110E-1,-4.413986206E-2
5.338108348E0,3.555420041E-1,1.565293074E-1,-2.103958130E-1
5.348108348E0,2.485778034E-1,2.072253227E-1,-2.836437225E-1
5.358108348E0,2.882738709E-1,2.849062681E-1,-1.891736984E-1
5.368108348E0,3.454052806E-1,3.108812571E-1,2.057428360E-1
5.378108348E0,3.288725317E-1,3.051326275E-1,6.426477432E-1
5.388108348E0,4.577160776E-1,2.406772375E-1,7.809419632E-1
5.398108348E0,6.843472123E-1,1.539442539E-1,6.449756622E-1
5.408108348E0,8.136242628E-1,8.248686790E-3,3.403329849E-1
5.418108348E0,7.558946609E-1,1.150608063E-2,1.193017960E-1
5.428108348E0,5.339884758E-1,1.019849777E-1,-3.952884674E-2
5.438108348E0,4.515945315E-1,1.040420532E-1,-2.344427109E-1
5.448108348E0,4.870509803E-1,6.158447266E-2,-4.399776459E-1
5.458108348E0,4.523587227E-1,1.208534241E-1,-5.675640106E-1
5.468108348E0,3.844009638E-1,2.592532635E-1,-5.638942719E-1
5.478108348E0,2.764408290E-1,3.395875692E-1,-3.235425949E-1
5.488108348E0,1.467283070E-1,3.120279312E-1,1.190586090E-1
5.498108348E0,1.589531302E-1,2.834476233E-1,4.571781158E-1
5.508108348E0,1.512892842E-1,2.775425911E-1,6.471252441E-1
5.518108348E0,1.960311681E-1,2.534584999E-1,6.931304932E-1
5.528108348E0,3.086348176E-1,2.004184723E-1,5.178956985E-1
5.538108348E0,5.076568127E-1,1.579246521E-1,2.324142456E-1
5.548108348E0,5.652946830E-1,1.259158850E-1,8.070564270E-2
5.558108348E0,3.186807334E-1,5.888640881E-2,-7.647132874E-2
5.568108348E0,2.710480690E-1,5.418789387E-2,-1.424274445E-1
5.578108348E0,4.011635780E-1,5.744040012E-2,-1.257772446E-1
5.588108348E0,6.369380355E-1,5.791926384E-2,-2.732658386E-2
5.598108348E0,7.974704504E-1,7.744908333E-2,7.491397858E-2
5.608108348E0,7.125742435E-1,1.508949995E-1,2.532911301E-1
5.618108348E0,6.036142111E-1,2.445665598E-1,3.164901733E-1
5.628108348E0,5.396299362E-1,2.830200195E-1,1.480283737E-1
5.638108348E0,5.550781488E-1,2.578892708E-1,-2.041807175E-1
5.648108348E0,6.716737747E-1,3.060336113E-1,-6.840496063E-1
5.658108348E0,6.984710693E-1,3.406563997E-1,-1.053639412E0
5.668108348E0,5.770937204E-1,3.116927147E-1,-1.257881165E0
5.678108348E0,4.093907475E-1,2.847639322E-1,-1.274487495E0
5.688108348E0,1.617005169E-1,3.178998232E-1,-1.039709091E0
5.698108348E0,1.930162311E-2,3.602126837E-1,-5.818252563E-1
5.708108348E0,-5.466678739E-2,4.386366606E-1,-9.239006042E-2
5.718108348E0,-1.657794118E-1,3.917920589E-1,2.755737305E-1
5.728108348E0,-1.069325209E-1,2.408986092E-1,5.049839020E-1
5.738108348E0,3.376643360E-2,9.226226807E-2,5.551996231E-1
5.748108348E0,2.968229055E-1,-8.485734463E-2,5.283746719E-1
5.758108348E0,5.036274791E-1,-2.476773262E-1,3.672981262E-1
5.768108348E0,6.317210197E-1,-2.716131210E-1,7.825088501E-2
5.778108348E0,7.766532898E-1,-6.316542625E-2,-3.165607452E-1
5.788108348E0,9.594494700E-1,1.771898270E-1,-5.852470398E-1
5.798108348E0,9.434571862E-1,1.736662388E-1,-9.577217102E-1
5.808108348E0,7.902977467E-1,2.084189653E-1,-1.146969795E0
5.818108348E0,3.334326446E-1,3.445522785E-1,-1.251780510E0
5.828108348E0,1.987672001E-1,4.723674059E-1,-1.435620308E0
5.838108348E0,1.714370251E-1,5.081642866E-1,-1.282667160E0
5.848108348E0,1.457021832E-1,4.119451046E-1,-7.201004028E-1
5.858108348E0,1.138698161E-1,2.771909237E-1,-1.934242249E-2
5.868108348E0,1.948631257E-1,1.517087221E-1,5.316486359E-1
5.878108348E0,3.407034576E-1,5.403590202E-2,8.624181747E-1
5.888108348E0,3.826190233E-1,1.679408550E-2,8.949556351E-1
5.898108348E0,3.142324686E-1,3.167188168E-2,5.176439285E-1
5.908108348E0,2.372378409E-1,3.210544586E-3,-1.500635147E-1
5.918108348E0,-5.890250206E-3,-3.103661537E-2,-8.871917725E-1
5.928108348E0,-2.390592694E-1,3.136730194E-2,-1.458661079E0
5.938108348E0,-3.072973490E-1,2.454639673E-1,-1.875740051E0
5.948108348E0,-2.745609283E-1,4.391139746E-1,-1.920047760E0
5.958108348E0,-2.551344335E-1,5.010097027E-1,-1.517403603E0
5.968108348E0,7.983018458E-2,4.801512957E-1,-8.684453964E-1
5.978108348E0,2.378612757E-1,3.021028042E-1,-1.404266357E-1
5.988108348E0,1.238946915E-1,2.891665697E-1,5.626792908E-1
5.998108348E0,1.217854321E-1,2.838239670E-1,1.074828148E0
6.008108348E0,7.863640785E-3,1.899474859E-1,1.295745850E0
6.018108348E0,-1.033717990E-1,4.597580433E-2,1.117908478E0
6.028108348E0,2.392697334E-2,-9.383797646E-3,9.392318726E-1
6.038108348E0,-5.434197187E-2,-1.300988197E-1,5.125083923E-1
6.048108348E0,-4.393953085E-2,-1.805101633E-1,1.876144409E-1
6.058108348E0,1.195037663E-1,-1.179941893E-1,-1.609802246E-3
6.068108348E0,2.745110393E-1,-3.968000412E-3,-3.363990784E-2
6.078108348E0,3.674611449E-1,5.379748344E-2,8.473014832E-2
6.088108348E0,4.334505796E-1,6.473004818E-2,2.554759979E-1
6.098108348E0,4.347993433E-1,1.100698709E-1,3.207225800E-1
6.108108348E0,4.034157395E-1,1.433161497E-1,2.946376801E-1
6.118108348E0,4.126437306E-1,1.214128733E-1,1.543216705E-1
6.128108348E0,3.463906348E-1,6.827247143E-2,-6.163215637E-2
6.138108348E0,2.577199936E-1,8.187592030E-2,-2.687530518E-1
6.148108348E0,1.129480302E-1,1.318234205E-1,-2.190885544E-1
6.158108348E0,-1.007861495E-1,1.441925764E-1,-1.032590866E-1
6.168108348E0,-2.295754552E-1,1.636528969E-1,-5.652999878E-2
6.178108348E0,-1.844308078E-1,2.331250906E-1,-6.885051727E-2
6.188108348E0,-1.979555190E-2,2.390511036E-1,4.760265350E-2
6.198108348E0,5.633161962E-2,1.103240252E-1,3.148727417E-1
6.208108348E0,1.732560992E-2,4.986405373E-3,5.427484512E-1
6.218108348E0,7.703021169E-3,1.910805702E-3,7.022724152E-1
6.228108348E0,4.681655765E-2,2.701330185E-2,6.276540756E-1
6.238108348E0,4.998007417E-2,2.005684376E-2,3.919572830E-1
6.248108348E0,-1.758679748E-2,-5.118370056E-2,1.282186508E-1
6.258108348E0,-3.820994496E-2,-4.385638237E-2,-3.293514252E-2
6.268108348E0,5.662910640E-2,1.310136318E-1,-5.153465271E-2
6.278108348E0,1.227602065E-1,3.063702583E-1,-5.042171478E-2
6.288108348E0,1.146283299E-1,3.972184658E-1,-1.876544952E-2
6.298108348E0,7.789081335E-2,3.970260620E-1,1.423702240E-1
6.308108348E0,-1.377245188E-1,2.817327976E-1,3.574714661E-1
6.318108348E0,-4.539538324E-1,1.811642647E-1,6.270761490E-1
6.328108348E0,-6.788618565E-1,1.557955742E-1,9.000005722E-1
6.338108348E0,-5.663061738E-1,9.493970871E-2,1.028131485E0
6.348108348E0,-1.861536503E-1,-1.383352280E-2,9.887943268E-1
6.358108348E0,8.706280589E-2,-1.729891300E-1,7.945814133E-1
6.368108348E0,2.600176036E-1,-2.057284117E-1,6.432952881E-1
6.378108348E0,3.089109957E-1,-2.137726545E-1,3.143272400E-1
6.388108348E0,3.798743486E-1,-1.201065779E-1,-2.810955048E-2
6.398108348E0,3.742985427E-1,-9.401202202E-3,-2.747545242E-1
6.408108348E0,2.315133959E-1,3.877592087E-2,-4.790830612E-1
6.418108348E0,2.143836170E-1,9.188711643E-2,-6.683769226E-1
6.428108348E0,2.496644855E-1,1.546056271E-1,-7.748565674E-1
6.438108348E0,2.009448558E-1,1.599967480E-1,-7.961997986E-1
6.448108348E0,2.221229523E-1,1.645334959E-1,-6.981868744E-1
6.458108348E0,1.788603067E-1,1.787185669E-1,-4.546947479E-1
6.468108348E0,7.365088165E-2,2.366411686E-1,-7.860660553E-2
6.478108348E0,1.191712469E-1,2.595287561E-1,2.666110992E-1
6.488108348E0,1.859482676E-1,1.790480614E-1,5.056991577E-1
6.498108348E0,1.609328538E-1,7.202947140E-2,6.854801178E-1
6.508108348E0,9.383986890E-2,-1.677966118E-2,7.021560669E-1
6.518108348E0,-7.984176278E-3,-3.491008282E-2,6.014909744E-1
6.528108348E0,-8.560736477E-2,-3.141438961E-2,5.117244720E-1
6.538108348E0,-6.310687959E-2,-4.336154461E-2,4.090423584E-1
6.548108348E0,1.285690069E-1,-1.428246498E-2,2.616662979E-1
6.558108348E0,3.417337239E-1,1.995229721E-2,1.190032959E-1
6.568108348E0,5.524865985E-1,4.686284065E-2,-1.525497437E-1
6.578108348E0,6.300235987E-1,9.416592121E-2,-5.564994812E-1
6.588108348E0,5.213660002E-1,1.558005810E-1,-8.419818878E-1
6.598108348E0,2.020295560E-1,1.834423542E-1,-1.006550789E0
6.608108348E0,-1.608184576E-1,2.260109186E-1,-1.059035301E0
6.618108348E0,-3.748300672E-1,3.298020363E-1,-9.751701355E-1
6.628108348E0,-4.546526074E-1,4.252687693E-1,-8.051738739E-1
6.638108348E0,-4.585538507E-1,4.220138788E-1,-4.153604507E-1
6.648108348E0,-3.285988271E-1,2.034236193E-1,1.590385437E-1
6.658108348E0,-1.796633005E-1,2.190852165E-2,7.408323288E-1
6.668108348E0,-1.555774808E-1,-5.744123459E-2,1.219150543E0
6.678108348E0,-1.047411859E-1,-1.159898043E-1,1.386264801E0
6.688108348E0,5.123764277E-2,-1.168450117E-1,1.196868896E0
6.698108348E0,7.409718633E-2,-1.159372330E-1,8.134107590E-1
6.708108348E0,-1.705205441E-2,-7.823264599E-2,3.819942474E-1
6.718108348E0,-4.365503788E-3,3.337132931E-2,-4.146099091E-2
6.728108348E0,5.091041327E-2,1.239780188E-1,-4.184970856E-1
6.738108348E0,5.280068517E-2,1.928383112E-1,-6.247510910E-1
6.748108348E0,-1.388173550E-1,2.899774313E-1,-5.897064209E-1
6.758108348E0,-4.343621135E-1,3.012946844E-1,-3.569927216E-1
6.768108348E0,-5.022088289E-1,1.991914511E-1,6.339550018E-2
6.778108348E0,-2.865141630E-1,1.389625072E-1,5.693387985E-1
6.788108348E0,-2.147296071E-2,-2.133882046E-2,9.634075165E-1
6.798108348E0,1.655625403E-1,-1.177004576E-1,1.005741119E0
6.808108348E0,3.862394691E-1,-2.369202375E-1,7.419910431E-1
6.818108348E0,4.930735528E-1,-3.559436798E-1,2.575206757E-1
6.828108348E0,2.984585762E-1,-3.778771162E-1,-2.185697556E-1
6.838108348E0,8.169552684E-2,-2.522100210E-1,-6.355381012E-1
6.848108348E0,1.895482838E-1,-4.287958145E-4,-8.714246750E-1
6.858108348E0,1.639497876E-1,1.758638620E-1,-1.084263802E0
6.868108348E0,2.283178121E-1,2.429434061E-1,-1.131022453E0
6.878108348E0,2.104201168E-1,2.817746401E-1,-1.115345001E0
6.888108348E0,6.124164164E-2,4.058157206E-1,-9.929924011E-1
6.898108348E0,-2.620390952E-1,4.948375225E-1,-6.542663574E-1
6.908108348E0,-3.957558274E-1,4.433277845E-1,-2.078208923E-1
6.918108348E0,-2.956032753E-1,3.190697432E-1,2.722558975E-1
6.928108348E0,-2.994542122E-1,1.682970524E-1,6.677684784E-1
6.938108348E0,-3.196073174E-1,3.754961491E-2,1.012507439E0
6.948108348E0,-2.458868027E-1,-1.036093235E-1,1.222835541E0
6.958108348E0,-8.059725165E-2,-2.176312208E-1,1.287672043E0
6.968108348E0,2.570074797E-2,-3.271282911E-1,1.149957657E0
6.978108348E0,4.345715046E-3,-3.035264015E-1,8.375139236E-1
6.988108348E0,-4.070296884E-2,-2.084305286E-1,3.603925705E-1
6.998108348E0,6.533265114E-4,-6.410336494E-2,-1.718692780E-1
7.008108348E0,4.768651724E-2,3.839695454E-2,-5.426549911E-1
7.018108348E0,7.754090428E-2,1.418193579E-1,-8.139085770E-1
7.028108348E0,1.505839229E-1,2.364939451E-1,-1.037208557E0
7.038108348E0,1.172318757E-1,2.973498106E-1,-1.142917633E0
7.048108348E0,-3.238391876E-2,3.476425409E-1,-1.119944572E0
7.058108348E0,-2.395404577E-1,3.832412958E-1,-1.003808975E0
7.068108348E0,-4.072121680E-1,3.777173758E-1,-7.203836441E-1
7.078108348E0,-5.197522044E-1,2.959971428E-1,-3.199329376E-1
7.088108348E0,-3.488827944E-1,1.796634197E-1,1.177244186E-1
7.098108348E0,-1.765628755E-1,1.522481441E-2,3.749608994E-1
7.108108348E0,-4.898458719E-2,-9.610736370E-2,4.455690384E-1
7.118108348E0,-6.648448110E-2,-1.374337673E-1,3.563528061E-1
7.128108348E0,-2.156471610E-1,-1.337645054E-1,1.604185104E-1
7.138108348E0,-3.137935996E-1,-1.245584488E-1,7.543373108E-2
7.148108348E0,-3.238007128E-1,-7.748615742E-2,1.534748077E-2
7.158108348E0,-2.762935460E-1,-1.046240330E-2,2.075481415E-2
7.168108348E0,-1.507991552E-1,5.428397655E-2,1.191759109E-1
7.178108348E0,-4.170984030E-2,1.077635288E-1,3.449831009E-1
7.188108348E0,-1.093235016E-1,1.566795111E-1,5.937261581E-1
7.198108348E0,-1.716293395E-1,2.246048450E-1,5.472850800E-1
7.208108348E0,-2.385452092E-1,2.838026285E-1,4.063224792E-1
7.218108348E0,-3.669715524E-1,1.802840233E-1,3.277587891E-1
7.228108348E0,-4.078786671E-1,5.796468258E-2,2.304601669E-1
7.238108348E0,-3.804872930E-1,1.664388180E-2,6.218147278E-2
7.248108348E0,-2.193551958E-1,4.614424706E-2,-1.420640945E-1
7.258108348E0,-5.241352320E-2,8.141803741E-2,-3.646192551E-1
7.268108348E0,-4.492446780E-2,7.148814201E-2,-4.867830276E-1
7.278108348E0,-1.652161181E-1,7.650709152E-2,-5.606679916E-1
7.288108348E0,-2.843610942E-1,1.387177706E-1,-5.777530670E-1
7.298108348E0,-5.383361578E-1,2.601993084E-1,-3.969678879E-1
7.308108348E0,-8.347901106E-1,3.104302883E-1,-1.272583008E-2
7.318108348E0,-7.805300951E-1,2.397367954E-1,3.265132904E-1
7.328108348E0,-5.437731743E-1,4.246509075E-2,5.367612839E-1
7.338108348E0,-1.145768613E-1,-7.248580456E-2,8.034248352E-1
7.348108348E0,1.729373038E-1,-1.069884300E-1,9.300098419E-1
7.358108348E0,3.246393800E-1,-1.523836851E-1,9.810848236E-1
7.368108348E0,2.837879956E-1,-1.492925882E-1,1.026964188E0
7.378108348E0,1.562690735E-2,-1.387780905E-1,8.715076447E-1
7.388108348E0,-1.116407663E-1,-5.008482933E-2,4.827804565E-1
7.398108348E0,-4.295879602E-2,5.530941486E-2,1.233711243E-1
7.408108348E0,-5.606701970E-2,9.674549103E-2,-9.661579132E-2
7.418108348E0,-8.866754919E-2,1.372575760E-1,-1.817340851E-1
7.428108348E0,-8.471739292E-2,2.896919250E-1,-1.413764954E-1
7.438108348E0,-2.366975993E-1,3.790043592E-1,2.209138870E-1
7.448108348E0,-3.888403177E-1,3.262660503E-1,6.290559769E-1
7.458108348E0,-4.212833345E-1,1.559685469E-1,9.361152649E-1
7.468108348E0,-2.190793753E-1,-8.760440350E-2,8.783121109E-1
7.478108348E0,3.665469587E-3,-2.166540623E-1,6.119422913E-1
7.488108348E0,1.954897642E-1,-2.502864599E-1,3.137264252E-1
7.498108348E0,3.022598028E-1,-2.864116430E-1,6.096172333E-2
7.508108348E0,2.700766027E-1,-2.934616804E-1,-1.953029633E-1
7.518108348E0,4.248082638E-2,-1.966629028E-1,-5.994157791E-1
7.528108348E0,-1.180685759E-1,-2.589380741E-2,-9.134778976E-1
7.538108348E0,-2.048880607E-1,2.121391296E-1,-1.037283897E0
7.548108348E0,-2.547932863E-1,4.630482197E-1,-1.009420395E0
7.558108348E0,-2.628166080E-1,6.030817032E-1,-6.734943390E-1
7.568108348E0,-2.614433169E-1,6.404109001E-1,-1.270084381E-1
7.578108348E0,-1.580000520E-1,5.172853470E-1,4.898929596E-1
7.588108348E0,-9.633675218E-3,2.955427170E-1,1.063762665E0
7.598108348E0,-4.393853992E-2,1.163887978E-1,1.510459900E0
7.608108348E0,-1.758807302E-1,-4.372715950E-2,1.764868736E0
7.618108348E0,-2.476716191E-1,-2.154688835E-1,1.772687912E0
7.628108348E0,-2.622799277E-1,-3.672571182E-1,1.541267395E0
7.638108348E0,-1.640034169E-1,-4.614595175E-1,1.078581810E0
7.648108348E0,5.038616061E-2,-4.609913826E-1,5.918827057E-1
7.658108348E0,1.920701861E-1,-4.730855227E-1,8.041572571E-2
7.668108348E0,2.721157372E-1,-4.463963509E-1,-4.194726944E-1
7.678108348E0,2.540827394E-1,-2.556680441E-1,-8.603954315E-1
7.688108348E0,1.156023890E-1,2.878832817E-2,-1.220779419E0
7.698108348E0,3.488984704E-2,2.635233402E-1,-1.485290051E0
7.708108348E0,8.989694715E-2,4.019722939E-1,-1.552981853E0
7.718108348E0,1.392365545E-1,4.689779282E-1,-1.489578247E0
7.728108348E0,1.118872762E-1,4.094946384E-1,-1.299683571E0
7.738108348E0,-6.128460169E-3,3.168702126E-1,-9.194307327E-1
7.748108348E0,-2.608618438E-1,2.333145142E-1,-5.293769836E-1
7.758108348E0,-5.659908056E-1,2.280254364E-1,-2.767982483E-1
7.768108348E0,-7.884321213E-1,2.720518112E-1,6.146907806E-2
7.778108348E0,-9.302279353E-1,2.302918434E-1,4.495038986E-1
7.788108348E0,-8.758057356E-1,1.052726507E-1,8.141002655E-1
7.798108348E0,-7.433585525E-1,-5.050528049E-2,1.033160210E0
7.808108348E0,-5.071936846E-1,-1.692910194E-1,1.234450340E0
7.818108348E0,-1.262900382E-1,-2.517611980E-1,1.389174461E0
7.828108348E0,6.705990434E-2,-3.054770231E-1,1.321660995E0
7.838108348E0,6.570219994E-2,-2.621333599E-1,8.730058670E-1
7.848108348E0,1.090623140E-1,-1.535028219E-1,2.978563309E-1
7.858108348E0,1.306615174E-1,-8.232009411E-2,-2.129583359E-1
7.868108348E0,8.265843987E-2,-8.219921589E-2,-6.669931412E-1
7.878108348E0,5.356526375E-2,-3.029370308E-2,-9.665451050E-1
7.888108348E0,-2.446517348E-2,1.203815937E-1,-1.186798096E0
7.898108348E0,-1.896923780E-1,2.322268486E-1,-1.261267662E0
7.908108348E0,-3.150014281E-1,2.819528580E-1,-9.911470413E-1
7.918108348E0,-2.438372523E-1,3.268861771E-1,-4.723901749E-1
7.928108348E0,-2.012281418E-1,3.796663284E-1,6.162834167E-2
7.938108348E0,-1.330229193E-1,3.467787504E-1,4.725303650E-1
7.948108348E0,-1.014594734E-2,2.268582582E-1,8.770284653E-1
7.958108348E0,7.461957633E-2,5.984950066E-2,1.188032150E0
7.968108348E0,1.374155730E-1,-9.066534042E-2,1.261271477E0
7.978108348E0,1.020759195E-1,-1.665580273E-1,1.173190117E0
7.988108348E0,-7.329529524E-2,-1.770071983E-1,1.037961006E0
7.998108348E0,-2.178944051E-1,-1.759185791E-1,8.198919296E-1
8.008108348E0,-1.400431544E-1,-1.986981630E-1,4.532575607E-1
8.018108348E0,2.952824533E-2,-1.969742775E-1,5.090522766E-2
8.028108348E0,1.084495336E-1,-8.655941486E-2,-1.678457260E-1
8.038108348E0,6.272196770E-3,5.368125439E-2,-2.952222824E-1
8.048108348E0,8.465704322E-2,1.239680052E-1,-3.769445419E-1
8.058108348E0,2.683052123E-1,1.854388714E-1,-5.040493011E-1
8.068108348E0,2.839915156E-1,2.279462814E-1,-6.019315720E-1
8.078108348E0,1.821533293E-1,2.361798286E-1,-5.089111328E-1
8.088108348E0,-1.996949315E-3,2.264062166E-1,-3.893270493E-1
8.098108348E0,-1.846901029E-1,2.167061567E-1,-3.108434677E-1
8.108108348E0,-1.914621294E-1,2.714198828E-1,-1.873502731E-1
8.118108348E0,-1.662806720E-1,2.730469704E-1,7.598304749E-2
8.128108348E0,-2.768196464E-1,2.021167278E-1,3.864860535E-1
8.138108348E0,-3.777152896E-1,1.879951954E-1,6.403751373E-1
8.148108348E0,-3.501923084E-1,1.406971216E-1,8.489446640E-1
8.158108348E0,-2.702528834E-1,2.048873901E-2,9.154424667E-1
8.168108348E0,-1.572912335E-1,-1.578149796E-1,7.079439163E-1
8.178108348E0,1.152878851E-1,-2.407109737E-1,4.390430450E-1
8.188108348E0,3.153241873E-1,-2.019163370E-1,1.975469589E-1
8.198108348E0,2.898681164E-1,-1.648101807E-1,-3.039264679E-2
8.208108348E0,2.253011912E-1,-1.032124758E-1,-2.866430283E-1
8.218108348E0,4.128831625E-2,-5.813837051E-3,-5.916204453E-1
8.228108348E0,-2.602638006E-1,1.182515621E-1,-8.088283539E-1
8.238108348E0,-3.921225965E-1,2.274786234E-1,-9.592189789E-1
8.248108348E0,-2.858991623E-1,2.170941830E-1,-1.041807175E0
8.258108348E0,-1.052118242E-1,1.375994682E-1,-1.010648727E0
8.268108348E0,-1.358270645E-2,7.196545601E-2,-8.346595764E-1
8.278108348E0,3.828200698E-2,-5.826830864E-3,-5.717267990E-1
8.288108348E0,1.450939029E-1,-8.460330963E-2,-4.232416153E-1
8.298108348E0,2.002011091E-1,-3.544640541E-2,-3.640413284E-1
8.308108348E0,1.110563874E-1,3.148674965E-2,-3.668365479E-1
8.318108348E0,-1.483514905E-2,1.660728455E-2,-2.717561722E-1
8.328108348E0,-1.247994900E-1,4.649782181E-2,-3.553962708E-2
8.338108348E0,-3.025052845E-1,8.776724339E-2,2.615156174E-1
8.348108348E0,-4.191516042E-1,8.481729031E-2,5.369176865E-1
8.358108348E0,-3.620416820E-1,8.850157261E-2,7.052593231E-1
8.368108348E0,-2.858951092E-1,1.487267017E-1,8.194789886E-1
8.378108348E0,-3.913576603E-1,2.143135071E-1,8.419027328E-1
8.388108348E0,-3.921654522E-1,2.379649878E-1,8.627834320E-1
8.398108348E0,-2.137750983E-1,5.608534813E-2,9.007034302E-1
8.408108348E0,3.900491446E-2,-1.298530102E-1,8.331689835E-1
8.418108348E0,3.371069431E-1,-2.334051132E-1,6.412687302E-1
8.428108348E0,4.689214826E-1,-3.196673393E-1,3.601255417E-1
8.438108348E0,4.443980157E-1,-3.474925756E-1,-1.178264618E-2
8.448108348E0,3.534950018E-1,-2.859106064E-1,-3.185634613E-1
8.458108348E0,2.510626316E-1,-1.507055759E-1,-6.438903809E-1
8.468108348E0,1.181826442E-1,-2.555823326E-2,-8.415565491E-1
8.478108348E0,5.241343379E-2,6.969070435E-2,-9.036283493E-1
8.488108348E0,5.219343305E-2,1.639735699E-1,-8.373565674E-1
8.498108348E0,4.871016741E-2,2.231068611E-1,-6.379985809E-1
8.508108348E0,4.400905222E-2,1.921069622E-1,-3.148660660E-1
8.518108348E0,1.829209775E-1,1.710042953E-1,-5.752372742E-2
8.528108348E0,1.701765060E-1,1.599291563E-1,1.350393295E-1
8.538108348E0,1.105124056E-1,7.564461231E-2,2.649145126E-1
8.548108348E0,-1.954078674E-3,-1.768028736E-2,4.685306549E-1
8.558108348E0,-1.129592508E-1,2.245545387E-3,6.629791260E-1
8.568108348E0,-2.091469467E-1,1.078685522E-1,8.188581467E-1
8.578108348E0,-1.931155473E-1,1.256921291E-1,9.396848679E-1
8.588108348E0,-1.666281074E-1,7.012808323E-2,1.094398499E0
8.598108348E0,-2.832430303E-1,3.023147583E-2,1.208282471E0
8.608108348E0,-4.951305985E-1,3.458571434E-2,1.222188950E0
8.618108348E0,-5.917214751E-1,-8.767604828E-3,1.184870720E0
8.628108348E0,-2.902633548E-1,-9.039223194E-2,1.105792046E0
8.638108348E0,1.309698075E-1,-1.634654999E-1,9.264945984E-1
8.648108348E0,4.492334127E-1,-1.794117689E-1,5.523128510E-1
8.658108348E0,6.332963109E-1,-1.778824329E-1,4.380130768E-2
8.668108348E0,5.399363041E-1,-2.565356493E-1,-4.253921509E-1
8.678108348E0,3.767519295E-1,-2.153925896E-1,-1.145136833E0
8.688108348E0,2.773514390E-1,-1.470708847E-2,-1.766361237E0
8.698108348E0,5.348321795E-2,2.212159634E-1,-2.082940102E0
8.708108348E0,-1.711496115E-1,3.806200027E-1,-1.950356483E0
8.718108348E0,-1.911002845E-1,4.558763504E-1,-1.474245071E0
8.728108348E0,-1.312332153E-1,4.114618301E-1,-7.997055054E-1
8.738108348E0,-1.202733219E-1,2.636046410E-1,-1.358633041E-1
8.748108348E0,-2.030746043E-1,1.658033133E-1,4.603719711E-1
8.758108348E0,-3.196439147E-1,6.565988064E-2,9.913568497E-1
8.768108348E0,-3.317003846E-1,-7.001483440E-2,1.396450043E0
8.778108348E0,-2.871660888E-1,-1.845074892E-1,1.561069489E0
8.788108348E0,-1.677333415E-1,-3.140245676E-1,1.450274467E0
8.798108348E0,-3.875464201E-3,-3.471785784E-1,1.074348450E0
8.808108348E0,2.523797154E-1,-2.551825047E-1,5.753183365E-1
8.818108348E0,3.378099203E-1,-1.824754477E-1,8.544254303E-2
8.828108348E0,5.812264979E-2,-2.484986782E-1,-3.444995880E-1
8.838108348E0,-8.203412592E-2,-2.447352409E-1,-6.930208206E-1
8.848108348E0,-2.324609756E-1,-5.853176117E-4,-9.297676086E-1
8.858108348E0,-2.822014689E-1,2.118480206E-1,-9.794235229E-1
8.868108348E0,6.525724381E-2,3.504807949E-1,-8.580121994E-1
8.878108348E0,2.621446848E-1,3.759536743E-1,-6.440877914E-1
8.888108348E0,4.258656502E-1,3.633689880E-1,-4.849195480E-1
8.898108348E0,4.077464938E-1,2.703201771E-1,-3.598442078E-1
8.908108348E0,2.066705823E-1,1.409142017E-1,-3.964061737E-1
8.918108348E0,-7.286280394E-2,3.593683243E-3,-4.656734467E-1
8.928108348E0,-3.954335451E-1,-1.056133509E-1,-4.638118744E-1
8.938108348E0,-4.635039866E-1,-8.521330357E-2,-3.414859772E-1
8.948108348E0,-1.897606701E-1,4.537057877E-2,-1.159086227E-1
8.958108348E0,2.582531869E-1,1.644600630E-1,7.080936432E-2
8.968108348E0,4.274461269E-1,1.265404224E-1,1.709489822E-1
8.978108348E0,4.468677938E-1,6.332516670E-2,3.072643280E-1
8.988108348E0,2.283974886E-1,1.045736074E-1,3.021869659E-1
8.998108348E0,-8.898182213E-2,1.261428595E-1,2.603921890E-1
9.008108348E0,-3.453511000E-1,1.124001741E-1,3.281192780E-1
9.018108348E0,-4.489330649E-1,3.359961510E-2,5.158119202E-1
9.028108348E0,-9.044602513E-2,2.629876137E-3,5.238037109E-1
9.038108348E0,4.490199983E-1,9.405255318E-3,3.326368332E-1
9.048108348E0,8.354223371E-1,-7.338523865E-3,-4.320993423E-1
9.058108348E0,6.313700080E-1,-1.254458427E-1,1.138162613E-1
9.068108348E0,3.430551291E-2,-1.381516457E-2,2.678728104E-1
9.078108348E0,-3.064695299E-1,2.201734781E-1,4.753589630E-2
9.088108348E0,-3.595739007E-1,2.291774750E-1,1.304340363E-1
9.098108348E0,-2.840748727E-1,1.266679764E-1,2.735052109E-1
9.108108348E0,-1.566602290E-2,1.189303398E-1,2.755956650E-1
9.118108348E0,4.097990096E-1,1.543190479E-1,8.629703522E-2
9.128108348E0,7.708591223E-1,1.134883165E-1,-8.537483215E-2
9.138108348E0,8.953937292E-1,4.631757736E-2,-2.582998276E-1
9.148108348E0,6.939915419E-1,3.233003616E-2,-4.785518646E-1
9.158108348E0,3.103411496E-1,1.358475685E-1,-7.038354874E-1
9.168108348E0,-1.561978459E-2,3.110790253E-1,-8.850679398E-1
9.178108348E0,-3.338442147E-1,3.867262602E-1,-1.018383980E0
9.188108348E0,-4.860483110E-1,4.242056608E-1,-9.362287521E-1
9.198108348E0,-4.148708582E-1,3.946644068E-1,-5.356521606E-1
9.208108348E0,-2.704961598E-1,2.312289476E-1,2.731609344E-2
9.218108348E0,-9.484179318E-2,-8.998036385E-3,5.759849548E-1
9.228108348E0,1.517621875E-1,-1.482698917E-1,9.679784775E-1
9.238108348E0,4.957745075E-1,-1.232830286E-1,1.027825356E0
9.248108348E0,4.895975888E-1,-1.302182674E-1,7.882156372E-1
9.258108348E0,2.323617637E-1,-1.689890623E-1,3.464393616E-1
9.268108348E0,3.240108490E-1,-1.146748066E-1,-2.369508743E-1
9.278108348E0,4.111402035E-1,-1.271380186E-1,-7.179212570E-1
9.288108348E0,4.189324379E-2,-2.337366343E-1,-9.380702972E-1
9.298108348E0,-1.856967807E-1,-1.834126711E-1,-1.046947479E0
9.308108348E0,-3.986662626E-2,-2.005839348E-2,-1.044854164E0
9.318108348E0,2.703718543E-1,5.285155773E-2,-7.776880264E-1
9.328108348E0,4.346661270E-1,1.946805716E-1,-2.247810364E-1
9.338108348E0,3.285786808E-1,3.115437031E-1,3.564672470E-1
9.348108348E0,3.083046973E-1,3.417773247E-1,8.000240326E-1
9.358108348E0,3.306123614E-1,1.979221106E-1,9.706888199E-1
9.368108348E0,1.386308968E-1,-2.370250225E-2,9.068889618E-1
9.378108348E0,-2.051538229E-1,-1.698268652E-1,7.945785522E-1
9.388108348E0,-3.822419643E-1,-2.146494389E-1,6.746578217E-1
9.398108348E0,-2.934137881E-1,-2.152804136E-1,5.589752197E-1
9.408108348E0,-1.125435829E-1,-1.782561541E-1,4.974908829E-1
9.418108348E0,7.758513093E-3,-1.222572327E-1,5.469007492E-1
9.428108348E0,1.689631641E-1,-8.723092079E-2,6.685428619E-1
9.438108348E0,3.018166721E-1,-3.251898289E-2,7.011966705E-1
9.448108348E0,3.123434186E-1,5.811226368E-2,6.112928391E-1
9.458108348E0,1.655079126E-1,8.697831631E-2,4.035224915E-1
9.468108348E0,2.939164639E-3,3.543102741E-2,6.999301910E-2
9.478108348E0,-3.124141693E-2,9.429812431E-3,-2.769041061E-1
9.488108348E0,4.648968577E-3,1.640117168E-2,-5.171060562E-1
9.498108348E0,2.158054709E-1,-2.917921543E-2,-5.929746628E-1
9.508108348E0,3.375858366E-1,-9.768223763E-2,-4.060764313E-1
9.518108348E0,2.684771717E-1,-4.062950611E-2,-2.659511566E-2
9.528108348E0,1.337420046E-1,6.643795967E-2,3.219442368E-1
9.538108348E0,6.374873221E-2,7.932591438E-2,5.615911484E-1
9.548108348E0,1.210803390E-1,-1.171100140E-2,7.758483887E-1
9.558108348E0,1.203966364E-1,-4.150390625E-2,9.056873322E-1
9.568108348E0,1.727141291E-1,-7.280981541E-2,9.339790344E-1
9.578108348E0,3.610759377E-1,-1.289559603E-1,7.968893051E-1
9.588108348E0,5.300648808E-1,-1.548260450E-1,6.340656281E-1
9.598108348E0,5.842540264E-1,-1.211040020E-1,5.391874313E-1
9.608108348E0,4.447308779E-1,-4.137730598E-2,4.756660461E-1
9.618108348E0,2.055602819E-1,7.053601742E-2,3.472862244E-1
9.628108348E0,1.744017005E-3,1.280474663E-1,1.692638397E-1
9.638108348E0,-1.768241078E-1,1.003187895E-1,2.085113525E-2
9.648108348E0,-2.207231522E-1,1.950132847E-2,-1.491546631E-2
9.658108348E0,1.683336496E-2,-3.382813931E-2,6.379699707E-2
9.668108348E0,2.010739893E-1,-4.130339622E-2,1.579570770E-1
9.678108348E0,2.182288468E-1,-7.986867428E-2,9.028339386E-2
9.688108348E0,2.612864971E-1,-9.904158115E-2,-2.188110352E-2
9.698108348E0,2.041461468E-1,-1.077815294E-1,-1.463155746E-1
9.708108348E0,1.963340342E-1,-4.479753971E-2,-4.262428284E-1
9.718108348E0,2.241909951E-1,-2.532446384E-2,-7.401361465E-1
9.728108348E0,1.318112612E-1,-1.815414429E-2,-1.079853058E0
9.738108348E0,7.575054467E-2,1.922225952E-2,-1.365588188E0
9.748108348E0,8.424364030E-2,2.266693115E-2,-1.575759888E0
9.758108348E0,2.347881049E-1,9.366083145E-2,-1.526170731E0
9.768108348E0,2.651526034E-1,2.497370243E-1,-1.277878761E0
9.778108348E0,-9.588906169E-2,2.624223232E-1,-8.615159988E-1
9.788108348E0,-1.101144999E-1,2.427822351E-1,-3.544101715E-1
9.798108348E0,-2.033456713E-1,2.767374516E-1,2.118558884E-1
9.808108348E0,-1.766502261E-1,1.299264431E-1,8.387546539E-1
9.818108348E0,-3.286923468E-2,-4.581570625E-3,1.229495049E0
9.828108348E0,3.227194548E-1,-1.882817745E-1,1.300252914E0
9.838108348E0,4.361347556E-1,-1.825572252E-1,1.184484482E0
9.848108348E0,1.892656833E-1,-8.685266972E-2,8.142843246E-1
9.858108348E0,1.781392843E-1,-6.285071373E-3,2.768898010E-1
9.868108348E0,1.650300324E-1,2.643215656E-2,-2.803030014E-1
9.878108348E0,9.792736173E-2,8.463907242E-2,-7.544803619E-1
9.888108348E0,1.377606988E-1,2.491114140E-1,-1.086324692E0
9.898108348E0,2.616512775E-1,3.473467827E-1,-1.197783470E0
9.908108348E0,3.438881934E-1,3.819284439E-1,-1.057387352E0
9.918108348E0,2.822833061E-1,4.155211449E-1,-7.832918167E-1
9.928108348E0,7.127779722E-2,3.910057545E-1,-4.229459763E-1
9.938108348E0,-2.130817771E-1,3.160222769E-1,-7.996654510E-2
9.948108348E0,-2.902319729E-1,1.959902048E-1,1.087398529E-1
9.958108348E0,-1.708190739E-1,4.662501812E-2,1.515865326E-1
9.968108348E0,3.173470497E-3,-7.480549812E-2,1.701593399E-1
9.978108348E0,1.017286927E-1,-1.256536245E-1,2.136135101E-1
9.988108348E0,1.728158295E-1,-1.358028650E-1,2.463893890E-1
9.998108348E0,2.016442269E-1,-5.954885483E-2,3.241958618E-1
1.000810835E1,1.749745756E-1,9.904110432E-2,3.690872192E-1
1.001810835E1,1.233121231E-1,2.003331184E-1,3.845968246E-1
1.002810835E1,2.878618240E-2,2.212190628E-1,3.837499619E-1
1.003810835E1,-2.533739805E-2,2.005593777E-1,3.052406311E-1
1.004810835E1,5.917082727E-2,1.800962687E-1,2.262935638E-1
1.005810835E1,2.199938446E-1,1.432834864E-1,1.520080566E-1
1.006810835E1,4.087626338E-1,1.282989979E-1,6.360816956E-2
1.007810835E1,4.000348151E-1,1.466330290E-1,5.578994751E-4
1.008810835E1,1.864186823E-1,1.200765371E-1,9.288215637E-2
1.009810835E1,-5.448901653E-2,9.393405914E-2,-4.771327972E-2
1.010810835E1,-1.051280797E-1,2.258861065E-1,-2.513866425E-1
1.011810835E1,-2.018208504E-1,2.604262829E-1,-2.870874405E-1
1.012810835E1,-1.789185405E-2,1.990487576E-1,-1.390619278E-1
1.013810835E1,1.199625731E-1,2.804279327E-2,1.612749100E-1
1.014810835E1,9.655782580E-2,-2.992558479E-2,3.797864914E-1
1.015810835E1,2.485460937E-1,-4.685616493E-2,5.030736923E-1
1.016810835E1,3.918248117E-1,-1.663172245E-1,5.222721100E-1
1.017810835E1,3.946072459E-1,-1.891028881E-1,4.747171402E-1
1.018810835E1,3.542008102E-1,-9.623289108E-2,3.035898209E-1
1.019810835E1,3.266931474E-1,1.815128326E-2,6.179714203E-2
1.020810835E1,3.323285878E-1,6.296610832E-2,-2.376976013E-1
1.021810835E1,3.134050965E-1,4.763269424E-2,-4.812746048E-1
1.022810835E1,1.445860267E-1,9.142398834E-2,-6.433572769E-1
1.023810835E1,-1.011380553E-2,2.278201580E-1,-6.354837418E-1
1.024810835E1,-1.537489593E-1,2.864041328E-1,-4.843864441E-1
1.025810835E1,-2.076335847E-1,2.295506001E-1,-1.660690308E-1
1.026810835E1,-1.930293590E-1,1.511073112E-1,3.233270645E-1
1.027810835E1,-1.183750629E-1,9.289836884E-2,8.035125732E-1
1.028810835E1,1.748268306E-2,5.774378777E-2,1.129613876E0
1.029810835E1,1.311130226E-1,5.956888199E-3,1.227083206E0
1.030810835E1,2.415780425E-1,-3.175091743E-2,1.009387016E0
1.031810835E1,2.859299779E-1,-1.047897339E-2,5.964775085E-1
1.032810835E1,2.159497142E-1,1.296544075E-2,1.075239182E-1
1.033810835E1,2.229034454E-1,6.014966965E-2,-3.752918243E-1
1.034810835E1,2.719702423E-1,8.295607567E-2,-7.223253250E-1
1.035810835E1,3.121093214E-1,4.444861412E-2,-8.981304169E-1
1.036810835E1,4.047453403E-1,1.010208130E-1,-9.065513611E-1
1.037810835E1,3.821834922E-1,2.282564640E-1,-7.257022858E-1
1.038810835E1,2.039507926E-1,3.366670609E-1,-4.291200638E-1
1.039810835E1,6.080813706E-2,4.033596516E-1,-5.373382568E-2
1.040810835E1,6.409096718E-2,4.492413998E-1,2.325325012E-1
1.041810835E1,6.336385012E-2,3.730986118E-1,3.530464172E-1
1.042810835E1,1.788420975E-2,2.226669788E-1,4.489526749E-1
1.043810835E1,-8.711706102E-2,1.650426388E-1,6.599578857E-1
1.044810835E1,-2.055553496E-1,1.185941696E-1,9.956827164E-1
1.045810835E1,-1.479924321E-1,3.390777111E-2,1.408461571E0
1.046810835E1,-6.878079474E-2,-1.239550114E-2,1.524417877E0
1.047810835E1,1.001798138E-1,2.034499645E-1,1.572468758E0
1.048810835E1,1.189973354E-1,3.972634077E-1,1.506656647E0
1.049810835E1,7.577823848E-2,1.640510559E-1,1.154477119E0
1.050810835E1,7.698559761E-2,-4.604101181E-2,7.199373245E-1
1.051810835E1,4.619762301E-2,-6.650209427E-2,2.273397446E-1
1.052810835E1,1.659118682E-1,-5.705046654E-2,-1.773128510E-1
1.053810835E1,3.361759484E-1,-9.468269348E-2,-4.985628128E-1
1.054810835E1,4.734133482E-1,-3.392577171E-2,-7.243309021E-1
1.055810835E1,5.542405844E-1,9.858036041E-2,-1.011854172E0
1.056810835E1,6.155498028E-1,2.185516357E-1,-1.234785080E0
1.057810835E1,5.189179182E-1,3.191835880E-1,-1.345747948E0
1.058810835E1,3.001221716E-1,3.628246784E-1,-1.301894188E0
1.059810835E1,4.989193380E-2,4.259200096E-1,-1.154781342E0
1.060810835E1,-6.106613576E-2,4.775886536E-1,-9.779233932E-1
1.061810835E1,4.363715649E-2,4.297134876E-1,-7.730541229E-1
1.062810835E1,2.133892924E-1,2.544384003E-1,-5.234842300E-1
1.063810835E1,1.120406389E-1,3.172614574E-1,5.648422241E-2
1.064810835E1,4.650941491E-2,3.317823410E-1,4.934787750E-1
1.065810835E1,4.132539779E-2,3.529980183E-1,8.041028976E-1
1.066810835E1,-4.159440100E-2,2.119164467E-1,9.861087799E-1
1.067810835E1,1.266642362E-1,6.838750839E-2,9.709777832E-1
1.068810835E1,3.653139472E-1,3.580188751E-2,7.099914551E-1
1.069810835E1,4.791660309E-1,1.043953896E-1,4.033651352E-1
1.070810835E1,3.733990788E-1,1.771211624E-1,1.179666519E-1
1.071810835E1,2.304939330E-1,2.332534790E-1,-1.687250137E-1
1.072810835E1,1.347326636E-1,3.148193359E-1,-3.659420013E-1
1.073810835E1,9.434273839E-2,3.672685623E-1,-5.102548599E-1
1.074810835E1,3.233662248E-2,3.499717712E-1,-5.288333893E-1
1.075810835E1,1.604752541E-1,3.234279156E-1,-4.273033142E-1
1.076810835E1,4.339111745E-1,2.761249542E-1,-3.080577850E-1
1.077810835E1,5.883231759E-1,2.255825996E-1,-2.774505615E-1
1.078810835E1,5.957729816E-1,2.439067364E-1,-3.179035187E-1
1.079810835E1,4.168474972E-1,2.846782207E-1,-3.930606842E-1
1.080810835E1,2.362988293E-1,3.109743595E-1,-5.450296402E-1
1.081810835E1,2.356374711E-1,3.534872532E-1,-6.476688385E-1
1.082810835E1,2.600977719E-1,3.981037140E-1,-5.952110291E-1
1.083810835E1,2.243326604E-1,4.061532021E-1,-4.017047882E-1
1.084810835E1,1.640784144E-1,4.178488255E-1,-1.600475311E-1
1.085810835E1,8.460068703E-2,3.638727665E-1,6.122779846E-2
1.086810835E1,4.380498827E-2,3.132562637E-1,2.876243591E-1
1.087810835E1,3.771552444E-2,2.748405933E-1,4.445676804E-1
1.088810835E1,1.506977677E-1,2.283544540E-1,4.251565933E-1
1.089810835E1,3.459479213E-1,1.412038803E-1,2.519874573E-1
1.090810835E1,3.740709722E-1,1.122694016E-1,-5.299758911E-2
1.091810835E1,2.796826959E-1,1.707088947E-1,-3.950080872E-1
1.092810835E1,1.895919144E-1,1.649012566E-1,-6.693983078E-1
1.093810835E1,1.788815260E-1,2.133803368E-1,-9.060754776E-1
1.094810835E1,1.965073347E-1,3.334493637E-1,-1.154487610E0
1.095810835E1,2.496931702E-1,4.737746716E-1,-1.354547501E0
1.096810835E1,2.035149634E-1,6.239600182E-1,-1.390629768E0
1.097810835E1,7.505336404E-2,6.773946285E-1,-1.354436874E0
1.098810835E1,1.901778579E-2,6.523389816E-1,-1.083053589E0
1.099810835E1,-3.907510638E-2,6.051752567E-1,-5.845670700E-1
1.100810835E1,-6.867022812E-2,6.017916203E-1,-3.201580048E-2
1.101810835E1,-1.466174722E-1,5.417115688E-1,4.680366516E-1
1.102810835E1,-1.033294797E-1,3.590657711E-1,8.166580200E-1
1.103810835E1,1.413069665E-2,1.838192940E-1,9.533414841E-1
1.104810835E1,1.364220381E-1,4.415512085E-2,9.292984009E-1
1.105810835E1,3.150089383E-1,-6.097269058E-2,8.575143814E-1
1.106810835E1,5.427957773E-1,-2.920579910E-2,6.650447845E-1
1.107810835E1,6.385481358E-1,1.110961437E-1,3.301725388E-1
1.108810835E1,5.557115078E-1,2.251741886E-1,-1.581277847E-1
1.109810835E1,5.480922461E-1,2.889702320E-1,-6.389951706E-1
1.110810835E1,3.824485540E-1,3.802480698E-1,-9.986972809E-1
1.111810835E1,2.238683403E-1,4.870045185E-1,-1.410655975E0
1.112810835E1,1.522531360E-1,5.560643673E-1,-1.523462296E0
1.113810835E1,-4.555034637E-2,5.992972851E-1,-1.327623367E0
1.114810835E1,-8.229301870E-2,6.066048145E-1,-9.626674652E-1
1.115810835E1,7.079020143E-2,5.206887722E-1,-5.893831253E-1
1.116810835E1,2.207335681E-1,3.912827969E-1,-2.005834579E-1
1.117810835E1,2.730399668E-1,3.193323612E-1,1.069374084E-1
1.118810835E1,1.957288235E-1,2.186179161E-1,2.641487122E-1
1.119810835E1,6.870828569E-2,1.661577225E-1,2.833299637E-1
1.120810835E1,1.436910033E-2,2.184906006E-1,2.632884979E-1
1.121810835E1,3.033432364E-2,2.701570988E-1,2.710418701E-1
1.122810835E1,1.106943786E-1,2.364542484E-1,2.862615585E-1
1.123810835E1,2.526677251E-1,1.543626785E-1,4.062490463E-1
1.124810835E1,3.561099172E-1,1.142566204E-1,5.301837921E-1
1.125810835E1,4.218735993E-1,1.001181602E-1,5.408058167E-1
1.126810835E1,5.388712287E-1,1.982338428E-1,3.679246902E-1
1.127810835E1,4.985735714E-1,4.004175663E-1,8.124732971E-2
1.128810835E1,3.085561991E-1,4.768087864E-1,-1.387844086E-1
1.129810835E1,1.399108469E-1,5.035500526E-1,-4.033594131E-1
1.130810835E1,1.867357194E-1,4.356725216E-1,-6.300382614E-1
1.131810835E1,2.515281439E-1,3.797340393E-1,-8.058528900E-1
1.132810835E1,2.268593311E-1,2.885348797E-1,-9.016809464E-1
1.133810835E1,2.403796911E-1,2.780451775E-1,-8.103904724E-1
1.134810835E1,1.966652274E-1,3.110764027E-1,-5.813531876E-1
1.135810835E1,1.414667666E-1,3.701879978E-1,-2.159070969E-1
1.136810835E1,7.515849918E-2,4.388167858E-1,2.243461609E-1
1.137810835E1,5.580966920E-2,4.421081543E-1,6.062517166E-1
1.138810835E1,9.541184455E-2,3.642337322E-1,8.580265045E-1
1.139810835E1,1.536138952E-1,2.207636833E-1,8.874597549E-1
1.140810835E1,2.302225977E-1,1.138391495E-1,7.004766464E-1
1.141810835E1,2.566002309E-1,6.566858292E-2,3.000173569E-1
1.142810835E1,2.804329395E-1,1.257824898E-1,-2.012662888E-1
1.143810835E1,2.922192812E-1,2.502031326E-1,-5.876035690E-1
1.144810835E1,2.581424713E-1,4.093754292E-1,-7.488632202E-1
1.145810835E1,1.330140233E-1,5.543487072E-1,-6.959877014E-1
1.146810835E1,7.740526646E-2,5.867927074E-1,-4.727668762E-1
1.147810835E1,8.727545291E-2,5.667433739E-1,-8.417415619E-2
1.148810835E1,8.214950562E-3,4.437003136E-1,4.358186722E-1
1.149810835E1,7.081982493E-2,3.275921345E-1,8.088073730E-1
1.150810835E1,1.892754883E-1,2.191264629E-1,9.943761826E-1
1.151810835E1,2.003856897E-1,9.011459351E-2,1.069925308E0
1.152810835E1,2.215231657E-1,1.914548874E-2,1.015651703E0
1.153810835E1,3.338448405E-1,-5.147242546E-2,7.772073746E-1
1.154810835E1,3.915545344E-1,7.067489624E-2,4.565811157E-1
1.155810835E1,3.390735686E-1,2.181720734E-1,7.752799988E-2
1.156810835E1,4.495805204E-1,3.130333424E-1,-3.724279404E-1
1.157810835E1,5.247678757E-1,2.892572880E-1,-7.014951706E-1
1.158810835E1,3.744321167E-1,2.588417530E-1,-9.035835266E-1
1.159810835E1,1.809303910E-1,2.747607231E-1,-9.582281113E-1
1.160810835E1,1.234668940E-1,2.857637405E-1,-8.678598404E-1
1.161810835E1,9.943313897E-2,2.719762325E-1,-6.012306213E-1
1.162810835E1,1.768933237E-1,3.047451973E-1,-2.384862900E-1
1.163810835E1,1.426899135E-1,3.499584198E-1,1.392717361E-1
1.164810835E1,1.460271329E-1,3.647198677E-1,3.522090912E-1
1.165810835E1,2.563676238E-1,2.856547832E-1,4.232406616E-1
1.166810835E1,1.967121214E-1,2.870888710E-1,4.414062500E-1
1.167810835E1,4.939610511E-2,3.017094135E-1,3.048648834E-1
1.168810835E1,7.241003215E-3,3.121790886E-1,3.819751740E-2
1.169810835E1,4.242636263E-3,2.808184624E-1,-1.626825333E-1
1.170810835E1,4.624450207E-2,1.613469124E-1,-2.971086502E-1
1.171810835E1,1.116629690E-1,9.413671494E-2,-3.737058640E-1
1.172810835E1,6.727010012E-2,7.623124123E-2,-1.962337494E-1
1.173810835E1,-4.597685486E-2,1.008577347E-1,2.050209045E-1
1.174810835E1,-3.366708755E-3,1.630775928E-1,4.763956070E-1
1.175810835E1,1.030207053E-1,2.451465130E-1,5.119771957E-1
1.176810835E1,1.364730746E-1,1.439509392E-1,5.532388687E-1
1.177810835E1,1.924182773E-1,8.548116684E-2,4.797229767E-1
1.178810835E1,3.036845922E-1,2.590100765E-1,3.392848969E-1
1.179810835E1,2.478545010E-1,2.854266167E-1,-1.439142227E-1
1.180810835E1,1.906707883E-1,2.429411411E-1,-4.864606857E-1
1.181810835E1,2.224450856E-1,2.143259048E-1,-8.225936890E-1
1.182810835E1,1.796525568E-1,2.619137764E-1,-9.811000824E-1
1.183810835E1,3.136359155E-3,3.445925713E-1,-8.622226715E-1
1.184810835E1,-7.776751369E-2,3.494968414E-1,-6.101856232E-1
1.185810835E1,-3.744568676E-3,2.914490700E-1,-2.806806564E-1
1.186810835E1,5.719421431E-2,1.382689476E-1,-2.752914429E-1
1.187810835E1,-7.551561296E-2,-5.858063698E-2,3.917264938E-1
1.188810835E1,1.537445337E-1,-1.083617210E-1,6.122016907E-1
1.189810835E1,1.685929000E-1,6.862783432E-2,5.040655136E-1
1.190810835E1,1.794242114E-1,4.142022133E-2,3.713703156E-1
1.191810835E1,3.087774515E-1,-1.169700623E-1,1.904344559E-1
1.192810835E1,2.664830685E-1,-1.842396259E-1,-1.243495941E-2
1.193810835E1,1.254460365E-1,-1.954503059E-1,-1.746320724E-1
1.194810835E1,2.282383293E-2,-2.496671677E-2,-3.038244247E-1
1.195810835E1,-9.772598743E-3,1.193442345E-1,-2.149448395E-1
1.196810835E1,3.277722374E-2,1.452033520E-1,9.693145752E-3
1.197810835E1,3.195996583E-2,1.390366554E-1,2.603960037E-1
1.198810835E1,-7.329713553E-2,9.653544426E-2,5.337743759E-1
1.199810835E1,-2.752320468E-2,6.802797318E-3,7.012844086E-1
1.200810835E1,1.339732707E-1,-1.313776970E-1,6.722211838E-1
1.201810835E1,1.727308035E-1,-1.510305405E-1,5.497684479E-1
1.202810835E1,1.488097310E-1,-1.124649048E-1,3.158760071E-1
1.203810835E1,1.950354576E-1,-5.363178253E-2,-4.197311401E-2
1.204810835E1,2.677193582E-1,2.201652527E-2,-4.572134018E-1
1.205810835E1,3.481132090E-1,7.248926163E-2,-8.290138245E-1
1.206810835E1,4.178697169E-1,1.255428791E-1,-1.229846001E0
1.207810835E1,2.928549647E-1,2.231335640E-1,-1.483417988E0
1.208810835E1,9.065166116E-3,3.038921356E-1,-1.518866539E0
1.209810835E1,-1.793318987E-1,3.620290756E-1,-1.285042763E0
1.210810835E1,-1.735076159E-1,3.210916519E-1,-8.844671249E-1
1.211810835E1,-2.243902534E-1,2.468988895E-1,-3.470239639E-1
1.212810835E1,-3.003834486E-1,4.424095154E-2,2.050790787E-1
1.213810835E1,-2.313886583E-1,-1.961026192E-1,7.136917114E-1
1.214810835E1,-4.842574894E-2,-3.255910873E-1,1.060338020E0
1.215810835E1,8.501705527E-2,-3.411436081E-1,1.067602158E0
1.216810835E1,1.371746510E-1,-2.618806362E-1,8.008937836E-1
1.217810835E1,1.097287312E-1,-1.466825008E-1,2.593889236E-1
1.218810835E1,2.073872089E-2,-6.050324440E-2,-3.678836823E-1
1.219810835E1,-3.311052918E-3,3.950309753E-2,-9.018497467E-1
1.220810835E1,2.499161661E-2,1.618113518E-1,-1.274719238E0
1.221810835E1,4.410466552E-2,2.116281986E-1,-1.378376961E0
1.222810835E1,7.121201605E-2,2.377767563E-1,-1.159249306E0
1.223810835E1,3.211151063E-2,2.021996975E-1,-7.403259277E-1
1.224810835E1,-4.113211855E-2,5.302715302E-2,-1.956415176E-1
1.225810835E1,-3.694636002E-2,-5.325365067E-2,2.493143082E-1
1.226810835E1,-1.158959121E-1,-9.735989571E-2,6.764326096E-1
1.227810835E1,-2.200856805E-1,-1.589362621E-1,8.582754135E-1
1.228810835E1,-1.405432522E-1,-3.058593273E-1,7.369155884E-1
1.229810835E1,7.574963570E-2,-4.060578346E-1,4.457626343E-1
1.230810835E1,3.239136338E-1,-3.643589020E-1,6.436729431E-2
1.231810835E1,5.450059772E-1,-3.011336327E-1,-3.561401367E-1
1.232810835E1,6.868930459E-1,-2.142410278E-1,-8.225240707E-1
1.233810835E1,7.102484703E-1,-6.291699409E-2,-1.196297646E0
1.234810835E1,4.789314270E-1,5.943965912E-2,-1.391099930E0
1.235810835E1,9.960846603E-2,1.999020576E-1,-1.372996330E0
1.236810835E1,-1.674210131E-1,2.791535854E-1,-1.140470505E0
1.237810835E1,-2.537609637E-1,2.626602650E-1,-7.472324371E-1
1.238810835E1,-2.375310510E-1,1.511356831E-1,-2.383174896E-1
1.239810835E1,-9.680026770E-2,9.016990662E-4,2.690010071E-1
1.240810835E1,5.985990167E-3,-1.197481155E-1,6.288299561E-1
1.241810835E1,1.041637361E-2,-1.866757870E-1,9.146957397E-1
1.242810835E1,-4.145474732E-2,-2.392928600E-1,1.037092209E0
1.243810835E1,-1.131818146E-1,-2.267723083E-1,1.005171776E0
1.244810835E1,-1.823385656E-1,-1.969430447E-1,8.458013535E-1
1.245810835E1,-1.855233908E-1,-1.781787872E-1,6.518945694E-1
1.246810835E1,-1.869394481E-1,-1.723258495E-1,4.793682098E-1
1.247810835E1,-7.263690978E-2,-1.865773201E-1,4.170322418E-1
1.248810835E1,1.253483295E-1,-2.198877335E-1,3.816261292E-1
1.249810835E1,1.948144138E-1,-2.585594654E-1,3.966541290E-1
1.250810835E1,2.583413124E-1,-2.749416828E-1,3.669004440E-1
1.251810835E1,2.977361381E-1,-2.389631271E-1,2.399272919E-1
1.252810835E1,2.523987293E-1,-2.265508175E-1,9.300327301E-2
1.253810835E1,1.348728389E-1,-2.269153595E-1,-7.661819458E-2
1.254810835E1,4.080215096E-2,-1.897034645E-1,-2.422466278E-1
1.255810835E1,6.269490719E-2,-9.834957123E-2,-3.132181168E-1
1.256810835E1,5.093180388E-2,-6.471490860E-2,-2.268114090E-1
1.257810835E1,2.087261826E-1,-8.034825325E-2,-6.560420990E-2
1.258810835E1,3.496798873E-1,-1.053795815E-1,-6.618309021E-2
1.259810835E1,3.859346211E-1,-1.161310673E-1,-4.636669159E-2
1.260810835E1,1.363622844E-1,-1.331255436E-1,3.756237030E-2
1.261810835E1,-1.487999111E-1,-1.494483948E-1,1.224784851E-1
1.262810835E1,-2.363995910E-1,-1.724016666E-1,2.133893967E-1
1.263810835E1,-1.977819949E-1,-2.501783371E-1,3.218727112E-1
1.264810835E1,-2.893595770E-2,-3.098552227E-1,4.945640564E-1
1.265810835E1,6.852392852E-2,-1.067283154E-1,6.801748276E-1
1.266810835E1,4.020194709E-2,-4.000377655E-2,9.223909378E-1
1.267810835E1,6.592727453E-2,-2.008953094E-1,1.094544411E0
1.268810835E1,1.557259113E-1,-3.044383526E-1,8.474702835E-1
1.269810835E1,1.403975785E-1,-2.313098907E-1,4.514808655E-1
1.270810835E1,-1.046420187E-1,-2.299532890E-1,1.383810043E-1
1.271810835E1,-2.552170753E-1,-2.802906036E-1,-2.237005234E-1
1.272810835E1,-2.494463325E-1,-2.180097103E-1,-4.816350937E-1
1.273810835E1,-2.414542735E-1,-1.019754410E-1,-5.595045090E-1
1.274810835E1,-3.140451312E-1,-1.593589783E-2,-4.011106491E-1
1.275810835E1,-3.285096288E-1,-1.682543755E-2,-1.317434311E-1
1.276810835E1,-2.246622741E-1,-1.303291321E-1,1.275825500E-1
1.277810835E1,-2.173817158E-1,-2.420208454E-1,3.549718857E-1
1.278810835E1,-2.083586454E-1,-3.193094730E-1,4.372739792E-1
1.279810835E1,-3.274868429E-2,-4.078657627E-1,4.456415176E-1
1.280810835E1,-6.245278195E-2,-3.672790527E-1,6.199216843E-1
1.281810835E1,5.760071427E-2,-3.232319355E-1,5.092611313E-1
1.282810835E1,2.456920445E-1,-2.291150093E-1,1.747474670E-1
1.283810835E1,4.518243670E-1,-2.457220554E-1,-1.359691620E-1
1.284810835E1,6.130460501E-1,-3.089811802E-1,-4.948062897E-1
1.285810835E1,6.385577917E-1,-3.079514503E-1,-8.818044662E-1
1.286810835E1,5.395310521E-1,-2.501389980E-1,-1.099480629E0
1.287810835E1,2.392716259E-1,-1.368944645E-1,-1.217355728E0
1.288810835E1,3.181806207E-2,-1.429271698E-2,-1.204489708E0
1.289810835E1,-1.083897129E-1,5.515670776E-2,-9.540920258E-1
1.290810835E1,-2.238843441E-1,6.269788742E-2,-4.911375046E-1
1.291810835E1,-2.654832006E-1,6.192302704E-2,9.278106689E-2
1.292810835E1,-1.699066013E-1,2.246785164E-2,6.544542313E-1
1.293810835E1,-1.921617985E-2,-9.559059143E-2,1.176166534E0
1.294810835E1,4.305154830E-2,-2.269778252E-1,1.476044655E0
1.295810835E1,5.228081718E-4,-3.269989491E-1,1.429010391E0
1.296810835E1,-1.576156169E-1,-3.547215462E-1,1.032479286E0
1.297810835E1,-1.946614683E-1,-3.710711002E-1,5.261344910E-1
1.298810835E1,-6.616067141E-2,-3.133976460E-1,9.705829620E-2
1.299810835E1,1.111159474E-1,-2.174453735E-1,-1.780176163E-1
1.300810835E1,1.864185035E-1,-1.411528587E-1,-1.969575882E-1
1.301810835E1,6.627846509E-2,-3.208589554E-2,-2.331705093E-1
1.302810835E1,1.215513647E-1,2.971005440E-2,-2.657108307E-1
1.303810835E1,-2.508395910E-2,1.517057419E-2,-1.765298843E-1
1.304810835E1,-4.146696627E-1,-3.545522690E-3,-9.243869781E-2
1.305810835E1,-5.476512313E-1,-3.503894806E-2,-6.604862213E-2
1.306810835E1,-4.201424718E-1,-1.196289062E-1,-4.329490662E-2
1.307810835E1,-1.166253388E-1,-2.212326527E-1,3.980922699E-2
1.308810835E1,2.758265138E-1,-2.941100597E-1,2.459297180E-1
1.309810835E1,4.490835369E-1,-2.713642120E-1,4.462108612E-1
1.310810835E1,4.027847052E-1,-1.805307865E-1,5.390052795E-1
1.311810835E1,2.601555288E-1,-8.362269402E-2,6.088247299E-1
1.312810835E1,1.025892422E-1,-8.662700653E-3,6.708774567E-1
1.313810835E1,-1.425855905E-1,1.314878464E-2,6.904039383E-1
1.314810835E1,-2.953913808E-1,-2.386784554E-2,7.050914764E-1
1.315810835E1,-3.121750951E-1,-3.685998917E-2,7.054653168E-1
1.316810835E1,-2.227035761E-1,-5.680203438E-2,6.203985214E-1
1.317810835E1,-3.903162479E-2,-1.979250908E-1,5.884180069E-1
1.318810835E1,9.733382612E-2,-3.146431446E-1,5.125398636E-1
1.319810835E1,1.687951684E-1,-2.848811150E-1,2.926177979E-1
1.320810835E1,1.629862487E-1,-2.287559509E-1,5.899333954E-2
1.321810835E1,1.373815536E-1,-1.368429661E-1,-2.883758545E-1
1.322810835E1,1.028259695E-1,-4.003024101E-2,-6.116695404E-1
1.323810835E1,-4.120191932E-2,-5.385160446E-3,-8.427162170E-1
1.324810835E1,-1.462183297E-1,4.480934143E-2,-1.064758301E0
1.325810835E1,-1.917776465E-1,9.400057793E-2,-1.167216301E0
1.326810835E1,-2.389936149E-1,1.199214458E-1,-1.029941559E0
1.327810835E1,-2.237475514E-1,1.205172539E-1,-6.991233826E-1
1.328810835E1,-2.150571793E-1,5.839443207E-2,-2.376327515E-1
1.329810835E1,-2.084398717E-1,-3.742027283E-2,1.782999039E-1
1.330810835E1,-1.791888177E-1,-1.211881638E-1,4.796619415E-1
1.331810835E1,-4.732659459E-2,-2.122607231E-1,5.583457947E-1
1.332810835E1,1.201629266E-1,-3.389286995E-1,4.614887238E-1
1.333810835E1,2.697223127E-1,-3.897511959E-1,2.626771927E-1
1.334810835E1,4.983546436E-1,-3.051605225E-1,-1.326370239E-2
1.335810835E1,5.760347843E-1,-1.749458313E-1,-3.716115952E-1
1.336810835E1,5.946837068E-1,-1.224300861E-1,-8.080816269E-1
1.337810835E1,5.831655860E-1,-5.369400978E-2,-1.172016144E0
1.338810835E1,4.109696448E-1,5.527734756E-3,-1.388967514E0
1.339810835E1,4.407699406E-2,1.021280289E-1,-1.392523766E0
1.340810835E1,-2.027727515E-1,2.854895592E-1,-1.245632172E0
1.341810835E1,-2.247161716E-1,4.195303917E-1,-9.304590225E-1
1.342810835E1,-2.203087807E-1,3.786354065E-1,-4.220771790E-1
1.343810835E1,-1.745099425E-1,2.369656563E-1,1.177377701E-1
1.344810835E1,-6.708656996E-2,-1.342487335E-2,5.535726547E-1
1.345810835E1,-2.001155168E-2,-1.919631958E-1,8.603143692E-1
1.346810835E1,-3.750191629E-2,-2.450375557E-1,9.615268707E-1
1.347810835E1,-1.245170832E-2,-2.891154289E-1,8.380002975E-1
1.348810835E1,1.173743606E-2,-3.074178696E-1,5.523529053E-1
1.349810835E1,-7.609165460E-2,-3.098983765E-1,2.447891235E-1
1.350810835E1,-6.855505705E-2,-1.624550819E-1,-1.301670074E-2
1.351810835E1,1.553468406E-3,1.519012451E-2,-1.637315750E-1
1.352810835E1,8.833704889E-2,9.937214851E-2,-1.730651855E-1
1.353810835E1,8.363468945E-2,1.576776505E-1,-1.258163452E-1
1.354810835E1,1.942715794E-2,1.342172623E-1,-4.578304291E-2
1.355810835E1,-3.030765057E-2,1.348898411E-1,9.527587891E-2
1.356810835E1,-1.573171020E-1,1.461980343E-1,2.807331085E-1
1.357810835E1,-1.770483106E-1,1.268429756E-1,4.044609070E-1
1.358810835E1,-2.300390154E-1,9.144496918E-2,4.873552322E-1
1.359810835E1,-2.447834611E-1,-6.086349487E-3,5.684642792E-1
1.360810835E1,-3.380466998E-2,-4.775619507E-2,5.972824097E-1
1.361810835E1,2.180270255E-1,-5.945181847E-2,5.466442108E-1
1.362810835E1,3.521688581E-1,-5.593991280E-2,4.772462845E-1
1.363810835E1,2.456178367E-1,-2.237606049E-2,3.603401184E-1
1.364810835E1,1.072272807E-1,-8.986711502E-3,1.738805771E-1
1.365810835E1,1.800198108E-2,3.496575356E-2,4.745483398E-2
1.366810835E1,-1.539272219E-1,9.670710564E-2,1.360130310E-2
1.367810835E1,-2.545480728E-1,9.699726105E-2,3.768062592E-2
1.368810835E1,-2.609617412E-1,9.677147865E-2,1.989459991E-1
1.369810835E1,-1.613041759E-1,3.165411949E-2,3.421134949E-1
1.370810835E1,5.667801201E-2,-2.495813370E-2,4.714794159E-1
1.371810835E1,1.425811201E-1,-1.377606392E-2,4.221553802E-1
1.372810835E1,8.281872422E-2,1.750183105E-2,3.097343445E-1
1.373810835E1,-4.764653742E-2,9.949684143E-3,2.031250000E-1
1.374810835E1,-1.928081810E-1,-1.936769485E-2,8.374309540E-2
1.375810835E1,-3.513485789E-1,1.015663147E-2,1.550769806E-2
1.376810835E1,-3.228657246E-1,4.839658737E-2,3.498268127E-2
1.377810835E1,-2.233278751E-1,9.463882446E-2,1.258220673E-1
1.378810835E1,-1.835988462E-1,3.300666809E-2,2.636537552E-1
1.379810835E1,-1.862757280E-2,-5.877971649E-2,3.882989883E-1
1.380810835E1,1.886930913E-1,-1.065409184E-1,4.466695786E-1
1.381810835E1,1.899495125E-1,-1.609747410E-1,5.013790131E-1
1.382810835E1,4.620918632E-2,-1.478185654E-1,4.291419983E-1
1.383810835E1,4.414948076E-2,-7.887220383E-2,3.107147217E-1
1.384810835E1,-2.677020431E-2,-5.551671982E-2,1.009502411E-1
1.385810835E1,-9.163918346E-2,-1.033411026E-1,-1.626081467E-1
1.386810835E1,7.890112698E-2,-1.084165573E-1,-3.359270096E-1
1.387810835E1,2.952541113E-1,-4.619884491E-2,-3.895950317E-1
1.388810835E1,2.898011506E-1,5.306696892E-2,-3.191947937E-1
1.389810835E1,1.362553984E-1,6.793808937E-2,-2.493190765E-1
1.390810835E1,7.107835263E-2,6.513214111E-2,-2.676134109E-1
1.391810835E1,-1.638819650E-2,1.035709381E-1,-1.538877487E-1
1.392810835E1,-2.321980596E-1,1.256458759E-1,6.470012665E-2
1.393810835E1,-2.435734868E-1,2.261424065E-2,3.239650726E-1
1.394810835E1,-7.898334414E-2,-8.828496933E-2,5.019073486E-1
1.395810835E1,-3.126390278E-2,-1.355581284E-1,5.589990616E-1
1.396810835E1,-1.593470573E-2,-1.762821674E-1,4.862365723E-1
1.397810835E1,6.689296663E-2,-2.297911644E-1,2.233762741E-1
1.398810835E1,6.615316868E-2,-2.032787800E-1,-1.147422791E-1
1.399810835E1,1.369176060E-1,-2.052824497E-1,-3.829298019E-1
1.400810835E1,2.758597732E-1,-2.425236702E-1,-5.673112869E-1
1.401810835E1,2.257593274E-1,-1.767313480E-1,-6.878223419E-1
1.402810835E1,7.025057077E-2,-8.637452126E-2,-6.757335663E-1
1.403810835E1,-1.043246984E-1,-3.784084320E-2,-6.076459885E-1
1.404810835E1,-1.831489801E-1,5.532503128E-2,-4.565734863E-1
1.405810835E1,-1.208257452E-1,8.276653290E-2,-9.702682495E-2
1.406810835E1,-5.919051915E-2,3.118991852E-3,3.316497803E-1
1.407810835E1,-8.384001255E-2,-9.032297134E-2,8.005590439E-1
1.408810835E1,4.326669499E-2,-2.269454002E-1,1.153318405E0
1.409810835E1,3.185578436E-2,-2.889059782E-1,1.261957169E0
1.410810835E1,-9.691872448E-2,-3.247467279E-1,1.174305916E0
1.411810835E1,-2.273969054E-1,-2.874910831E-1,7.671442032E-1
1.412810835E1,-1.226477996E-1,-2.706525326E-1,3.044204712E-1
1.413810835E1,1.661315560E-3,-2.789402008E-1,-1.272630692E-1
1.414810835E1,1.889628023E-1,-2.044451237E-1,-4.809322357E-1
1.415810835E1,3.735978007E-1,-6.404089928E-2,-7.087144852E-1
1.416810835E1,3.656389713E-1,3.963232040E-3,-8.674240112E-1
1.417810835E1,2.122267336E-1,2.154850960E-2,-9.473838806E-1
1.418810835E1,1.808594167E-2,4.673910141E-2,-8.751878738E-1
1.419810835E1,-1.510101259E-1,7.298302650E-2,-7.651748657E-1
1.420810835E1,-2.433010638E-1,6.486892700E-2,-5.465192795E-1
1.421810835E1,-2.861230671E-1,-1.627874374E-2,-2.735528946E-1
1.422810835E1,-2.570938170E-1,-8.126759529E-2,1.207208633E-1
1.423810835E1,-2.352350354E-1,-1.267642975E-1,5.648956299E-1
1.424810835E1,-1.769092381E-1,-2.723011971E-1,9.121799469E-1
1.425810835E1,-2.869579196E-2,-3.545764685E-1,1.035480499E0
1.426810835E1,6.118868291E-2,-3.931372166E-1,7.753543854E-1
1.427810835E1,2.157712579E-1,-3.308906555E-1,4.560699463E-1
1.428810835E1,1.933854073E-1,-2.547528744E-1,5.198478699E-3
1.429810835E1,-1.397180557E-2,-2.400563955E-1,-4.625101089E-1
1.430810835E1,-3.959882259E-2,-1.689970493E-1,-7.813339233E-1
1.431810835E1,3.434336185E-2,-4.834890366E-2,-1.037434578E0
1.432810835E1,1.941286772E-2,3.531980515E-2,-1.155661583E0
1.433810835E1,-1.997228712E-2,1.140415668E-1,-9.997768402E-1
1.434810835E1,6.560891867E-3,1.315937042E-1,-5.623760223E-1
1.435810835E1,7.450602949E-3,8.289885521E-2,-8.995437622E-2
1.436810835E1,-8.447863162E-2,5.766391754E-3,3.345441818E-1
1.437810835E1,-1.925656497E-1,-7.752680779E-2,5.570497513E-1
1.438810835E1,-2.644902766E-1,-1.240172386E-1,7.821969986E-1
1.439810835E1,-1.936369240E-1,-2.047243118E-1,8.869190216E-1
1.440810835E1,4.820594192E-2,-3.069812059E-1,8.932180405E-1
1.441810835E1,2.652120590E-1,-3.090590239E-1,8.978652954E-1
1.442810835E1,3.044259250E-1,-2.588381767E-1,7.626791000E-1
1.443810835E1,2.540251911E-1,-2.512652874E-1,4.205770493E-1
1.444810835E1,2.154521346E-1,-2.321968079E-1,-5.635166168E-2
1.445810835E1,1.861806214E-1,-1.446347237E-1,-3.859558105E-1
1.446810835E1,9.101001918E-2,-4.225921631E-2,-5.124197006E-1
1.447810835E1,-3.618463874E-3,-1.699829102E-2,-5.367059708E-1
1.448810835E1,2.422934771E-2,-5.613136292E-2,-5.470438004E-1
1.449810835E1,4.922432452E-2,-1.569151878E-2,-4.397611618E-1
1.450810835E1,-1.129132435E-1,5.262970924E-2,-2.613878250E-1
1.451810835E1,-1.950334460E-1,4.554605484E-2,-1.304159164E-1
1.452810835E1,-1.758494973E-1,2.411890030E-2,-4.876136780E-2
1.453810835E1,-1.780257672E-1,-2.453088760E-3,5.768871307E-2
1.454810835E1,-6.638637185E-2,-1.562714577E-2,2.129220963E-1
1.455810835E1,8.864843845E-2,-5.792999268E-2,2.331981659E-1
1.456810835E1,1.435909867E-1,-7.766652107E-2,2.104949951E-1
1.457810835E1,3.323391825E-2,-1.395535469E-2,1.351823807E-1
1.458810835E1,-1.410790980E-1,-2.369213104E-2,5.007934570E-2
1.459810835E1,-2.496136725E-1,-6.575870514E-2,-3.946590424E-2
1.460810835E1,-3.080397546E-1,-1.026854515E-1,-1.297349930E-1
1.461810835E1,-2.642801702E-1,-1.313521862E-1,-2.172565460E-2
1.462810835E1,-3.417397290E-2,-1.697902679E-1,1.820859909E-1
1.463810835E1,-2.431209944E-2,-2.215499878E-1,3.562927246E-1
1.464810835E1,-5.014346167E-2,-2.563415766E-1,4.831581116E-1
1.465810835E1,-9.179820120E-2,-2.454714775E-1,4.182682037E-1
1.466810835E1,-4.856116697E-2,-2.051954269E-1,2.486677170E-1
1.467810835E1,1.076306254E-1,-2.165167332E-1,-2.682685852E-2
1.468810835E1,2.776830792E-1,-1.563947201E-1,-3.520460129E-1
1.469810835E1,2.998731732E-1,-1.383519173E-2,-5.907411575E-1
1.470810835E1,4.119113088E-2,9.561610222E-2,-6.368885040E-1
1.471810835E1,-2.834388316E-1,1.753959656E-1,-5.052232742E-1
1.472810835E1,-3.155415058E-1,2.497482300E-1,-3.835563660E-1
1.473810835E1,-4.017852545E-1,2.496535778E-1,-2.852506638E-1
1.474810835E1,-5.615195036E-1,2.771279812E-1,-7.123947144E-4
1.475810835E1,-6.542971730E-1,2.250827551E-1,2.325668335E-1
1.476810835E1,-5.612443089E-1,-8.726882935E-2,3.047552109E-1
1.477810835E1,-4.352830052E-1,-3.458848000E-1,3.837270737E-1
1.478810835E1,-2.238189727E-1,-4.275612831E-1,3.947677612E-1
1.479810835E1,1.601945311E-1,-4.769263268E-1,3.416271210E-1
1.480810835E1,2.214467973E-1,-5.662879944E-1,3.634557724E-1
1.481810835E1,3.434260488E-1,-5.383342505E-1,4.688491821E-1
1.482810835E1,3.359099627E-1,-3.447848558E-1,3.839664459E-1
1.483810835E1,2.218393832E-1,-1.311013699E-1,3.959083557E-2
1.484810835E1,6.598686427E-2,4.288327694E-2,-3.780841827E-1
1.485810835E1,6.987495720E-2,1.200815439E-1,-6.609354019E-1
1.486810835E1,8.762830496E-2,1.721132994E-1,-8.061904907E-1
1.487810835E1,5.252034217E-2,3.189160824E-1,-7.981481552E-1
1.488810835E1,1.084225625E-1,4.819263220E-1,-7.214746475E-1
1.489810835E1,-2.035442367E-2,3.573907614E-1,-5.050230026E-1
1.490810835E1,1.672546193E-2,2.502583265E-1,-2.043275833E-1
1.491810835E1,-1.784108877E-1,-5.137515068E-2,1.058731079E-1
1.492810835E1,-3.124244213E-1,-1.110619307E-1,3.707914352E-1
1.493810835E1,-4.225435853E-1,-3.805472851E-1,5.276365280E-1
1.494810835E1,-3.391304910E-1,-7.168128490E-1,5.712652206E-1
1.495810835E1,-1.450993121E-1,-9.166281223E-1,7.150707245E-1
1.496810835E1,1.873112619E-1,-1.007699847E0,8.958911896E-1
1.497810835E1,6.728974581E-1,-4.136933088E-1,1.162570953E0
1.498810835E1,4.093700051E-1,-2.075302601E-2,1.023008347E0
1.499810835E1,8.471876383E-2,1.296315193E-1,6.262359619E-1
1.500810835E1,-1.073274761E-1,2.277224064E-1,1.479234695E-1
1.501810835E1,-2.451333106E-1,2.631583214E-1,-2.049036026E-1
1.502810835E1,-3.346113265E-1,2.015414238E-1,-2.043542862E-1
1.503810835E1,-2.799351215E-1,1.247606277E-1,-5.052566528E-3
1.504810835E1,-1.337081194E-1,6.039142609E-4,4.417352676E-1
1.505810835E1,-1.355912536E-2,-1.267175674E-1,9.808425903E-1
1.506810835E1,-6.562907994E-2,-2.447167635E-1,1.327646255E0
1.507810835E1,-4.541743547E-2,-2.684603930E-1,1.400439262E0
1.508810835E1,-3.311756626E-2,-1.744836569E-1,1.189102173E0
1.509810835E1,-2.080027759E-1,-8.586347103E-2,8.760633469E-1
1.510810835E1,-3.646693826E-1,-3.283727169E-2,5.171031952E-1
1.511810835E1,-3.390300870E-1,4.516720772E-3,1.501607895E-1
1.512810835E1,-5.441124439E-1,1.140804291E-1,-3.076515198E-1
1.513810835E1,-6.534218192E-1,1.478245258E-1,-7.691192627E-1
1.514810835E1,-4.672729075E-1,1.509164572E-1,-1.020860672E0
1.515810835E1,-1.534650922E-1,3.792417049E-2,-1.070540428E0
1.516810835E1,4.325221777E-1,-1.324453354E-1,-6.793889999E-1
1.517810835E1,5.308307409E-1,-7.344424725E-2,2.228403091E-1
1.518810835E1,5.548421741E-1,-1.985280514E-1,8.103427887E-1
1.519810835E1,2.602134943E-1,-2.845402956E-1,1.007161140E0
1.520810835E1,-9.817737341E-2,-1.735734940E-1,8.755245209E-1
1.521810835E1,-2.720416784E-1,-2.132582664E-2,6.615552902E-1
1.522810835E1,-1.518951952E-1,2.889037132E-2,4.114103317E-1
1.523810835E1,1.320966482E-1,-9.099662304E-2,-1.820850372E-2
1.524810835E1,3.451340497E-1,-1.832035780E-1,-5.170936584E-1
1.525810835E1,3.796379864E-1,-1.659820080E-1,-8.974142075E-1
1.526810835E1,2.915297747E-1,2.706396580E-2,-1.235898018E0
1.527810835E1,1.684217155E-1,2.163953781E-1,-1.432341576E0
1.528810835E1,3.809216619E-2,2.775008678E-1,-1.260208130E0
1.529810835E1,-1.655519009E-3,2.886027098E-1,-6.866731644E-1
1.530810835E1,-2.100921273E-1,1.517943144E-1,-2.036046982E-1
1.531810835E1,-3.365135491E-1,-3.593742847E-2,-7.659816742E-2
1.532810835E1,-2.272248566E-1,-2.886917591E-1,-2.298707962E-1
1.533810835E1,-5.070878267E-1,-4.005683661E-1,2.851524353E-1
1.534810835E1,-6.436322927E-1,-4.938998222E-1,-3.478813171E-2
1.535810835E1,2.242604047E-1,-2.766809464E-1,1.501779556E-1
1.536810835E1,9.615299702E-1,-2.882293463E-1,6.084680557E-1
1.537810835E1,5.654436350E-1,-3.596369028E-1,4.009904861E-1
1.538810835E1,-7.671296597E-3,-2.275617123E-1,-3.385210037E-1
1.539810835E1,-3.114289343E-1,-7.204771042E-3,-9.381084442E-1
1.540810835E1,-2.751831412E-1,1.486341953E-1,-1.060611725E0
1.541810835E1,-3.339820504E-1,2.927947044E-1,-1.051058769E0
1.542810835E1,-4.038242102E-1,3.132033348E-1,-1.136574745E0
1.543810835E1,-2.934654355E-1,2.805168629E-1,-1.321065903E0
1.544810835E1,-2.275037169E-1,2.849919796E-1,-1.205684662E0
1.545810835E1,-4.862934947E-1,2.956519127E-1,-7.971248627E-1
1.546810835E1,-8.002345562E-1,2.685875893E-1,-9.090518951E-2
1.547810835E1,-8.183860779E-1,-5.199909210E-4,5.036888123E-1
1.548810835E1,-5.310168266E-1,-1.392750740E-1,1.026519775E0
1.549810835E1,-1.534782946E-1,-2.908029556E-1,1.349470139E0
1.550810835E1,5.414417386E-2,-4.250242710E-1,1.366011620E0
1.551810835E1,2.350609750E-1,-5.384984016E-1,1.112782478E0
1.552810835E1,3.078316748E-1,-5.327246189E-1,6.672258377E-1
1.553810835E1,2.419735193E-1,-4.049503803E-1,1.119031906E-1
1.554810835E1,6.224855781E-2,-2.061951160E-1,-3.902645111E-1
1.555810835E1,-4.775360227E-2,-4.113125801E-2,-7.848033905E-1
1.556810835E1,-3.028696775E-2,5.637025833E-2,-1.001977921E0
1.557810835E1,5.276137590E-2,1.332986355E-1,-1.060338020E0
1.558810835E1,-3.633233905E-2,2.554311752E-1,-9.717216492E-1
1.559810835E1,-1.998782158E-1,3.588902950E-1,-7.405729294E-1
1.560810835E1,-1.960807890E-1,4.429192543E-1,-3.364419937E-1
1.561810835E1,-1.206169128E-1,3.718895912E-1,1.145544052E-1
1.562810835E1,4.684720933E-2,2.537083626E-1,5.783662796E-1
1.563810835E1,-5.179286003E-3,1.073777676E-1,1.015379906E0
1.564810835E1,-4.146991372E-1,7.623672485E-3,1.217473030E0
1.565810835E1,-5.586889386E-1,-1.380043030E-1,1.343513489E0
1.566810835E1,-5.484910607E-1,-2.519602776E-1,1.371998787E0
1.567810835E1,-3.549454212E-1,-3.199028969E-1,1.379605293E0
1.568810835E1,-9.756269306E-2,-3.249114752E-1,1.386013031E0
1.569810835E1,1.829929352E-1,-3.189485073E-1,1.213768005E0
1.570810835E1,3.405492008E-1,-2.794058323E-1,9.705238342E-1
1.571810835E1,2.880075574E-1,-2.159781456E-1,7.743930817E-1
1.572810835E1,1.082948297E-1,-4.566597939E-2,5.365924835E-1
1.573810835E1,-9.796895832E-2,9.092426300E-2,2.296447754E-1
1.574810835E1,-2.481215000E-1,1.453456879E-1,-3.497886658E-2
1.575810835E1,-1.991357058E-1,1.283137798E-1,-1.860170364E-1
1.576810835E1,-6.304293871E-2,6.192016602E-2,-1.778974533E-1
1.577810835E1,9.974507987E-2,4.503965378E-3,-1.109209061E-1
1.578810835E1,1.157126278E-1,2.774024010E-2,6.593608856E-2
1.579810835E1,4.213935137E-2,8.408284187E-2,1.688938141E-1
1.580810835E1,-3.576688468E-2,7.917356491E-2,1.815586090E-1
1.581810835E1,-3.112040460E-2,1.536440849E-2,4.346656799E-2
1.582810835E1,-1.088988483E-1,-3.499531746E-2,-8.723545074E-2
1.583810835E1,-2.724381983E-1,-8.926296234E-2,-1.767463684E-1
1.584810835E1,-2.954734564E-1,-1.617437601E-1,-1.441211700E-1
1.585810835E1,-2.154171169E-1,-2.157940865E-1,-5.925083160E-2
1.586810835E1,-2.083710581E-1,-1.810348034E-1,-1.914024353E-2
1.587810835E1,-2.124689519E-1,-1.341893673E-1,-3.684329987E-2
1.588810835E1,-1.518849581E-1,-1.351503134E-1,-1.688671112E-1
1.589810835E1,-1.324015111E-1,-1.331851482E-1,-2.973136902E-1
1.590810835E1,-1.196329445E-1,-8.997941017E-2,-3.606214523E-1
1.591810835E1,-6.833514571E-2,-5.040025711E-2,-3.998460770E-1
1.592810835E1,4.708665609E-2,4.276466370E-2,-3.812122345E-1
1.593810835E1,5.781131983E-2,1.075229645E-1,-3.685235977E-1
1.594810835E1,-1.108261645E-1,9.578609467E-2,-4.023342133E-1
1.595810835E1,-2.097765505E-1,2.989029884E-2,-3.791503906E-1
1.596810835E1,-2.024286985E-1,-3.064870834E-2,-3.942489624E-1
1.597810835E1,-1.610721648E-1,-5.838632584E-3,-3.726625443E-1
1.598810835E1,-1.487269700E-1,7.199573517E-2,-3.954896927E-1
1.599810835E1,-1.857427657E-1,1.014938354E-1,-3.268089294E-1
1.600810835E1,-2.960309386E-1,8.609533310E-3,-2.052936554E-1
1.601810835E1,-3.005581796E-1,-1.011711359E-1,-7.277774811E-2
1.602810835E1,-1.311561465E-1,-1.201281548E-1,1.640701294E-1
1.603810835E1,-2.427756786E-2,-3.503319025E-1,3.347415924E-1
1.604810835E1,2.246603072E-1,-3.473504782E-1,5.165882111E-1
1.605810835E1,3.449893296E-1,-2.878558636E-1,6.315984726E-1
1.606810835E1,4.528278410E-1,-2.660453320E-1,6.219787598E-1
1.607810835E1,4.102567434E-1,-1.737843752E-1,3.898067474E-1
1.608810835E1,2.736176252E-1,-8.419752121E-2,7.114410400E-4
1.609810835E1,2.988924682E-1,-3.771924973E-2,-4.738597870E-1
1.610810835E1,1.902246773E-1,5.406188965E-2,-9.178590775E-1
1.611810835E1,-8.496946096E-2,1.004612446E-1,-8.349323273E-1
1.612810835E1,-5.361438394E-1,2.897241116E-1,-7.873401642E-1
1.613810835E1,-8.198176622E-1,4.366660118E-1,-6.817321777E-1
1.614810835E1,-6.674408317E-1,3.473210335E-1,-5.361738205E-1
1.615810835E1,-3.408746719E-1,1.385660172E-1,-2.485675812E-1
1.616810835E1,-3.525452912E-1,4.448962212E-2,1.335268021E-1
1.617810835E1,-4.189798236E-1,-3.647923470E-2,4.854354858E-1
1.618810835E1,-2.817684412E-1,-2.250797749E-1,7.926826477E-1
1.619810835E1,-1.294096410E-1,-4.145535231E-1,9.210491180E-1
1.620810835E1,-1.190513074E-1,-4.467619658E-1,8.190670013E-1
1.621810835E1,-1.087927222E-1,-3.299381733E-1,5.433349609E-1
1.622810835E1,1.654845476E-2,-2.134591341E-1,2.093820572E-1
1.623810835E1,1.790061891E-1,-9.284436703E-2,-1.826725006E-1
1.624810835E1,3.787493706E-1,4.663944244E-2,-5.375032425E-1
1.625810835E1,4.383800626E-1,1.727058887E-1,-7.788743973E-1
1.626810835E1,2.567062676E-1,2.438509464E-1,-9.365701675E-1
1.627810835E1,-2.966803312E-2,3.015253544E-1,-9.358778000E-1
1.628810835E1,-2.170821130E-1,3.188419342E-1,-7.046432495E-1
1.629810835E1,-2.740629613E-1,2.989454269E-1,-2.835512161E-1
1.630810835E1,-3.564700782E-1,1.433267593E-1,1.585683823E-1
1.631810835E1,-2.698103189E-1,-3.340649605E-2,5.125598907E-1
1.632810835E1,-6.027597189E-2,-1.751955748E-1,7.667026520E-1
1.633810835E1,1.073483825E-1,-3.052861691E-1,8.577003479E-1
1.634810835E1,1.915114820E-1,-3.567330837E-1,7.209177017E-1
1.635810835E1,1.667701900E-1,-2.852284908E-1,3.650693893E-1
1.636810835E1,3.467255831E-2,-1.982197762E-1,-1.544704437E-1
1.637810835E1,-1.449040174E-1,-6.430220604E-2,-6.878356934E-1
1.638810835E1,-1.765112281E-1,1.052544117E-1,-1.163122177E0
1.639810835E1,-1.534509063E-1,2.443268299E-1,-1.455980301E0
1.640810835E1,-1.962235570E-1,2.971107960E-1,-1.418025017E0
1.641810835E1,-2.173006535E-1,3.362498283E-1,-1.112749100E0
1.642810835E1,-1.461057663E-1,3.023333549E-1,-6.576566696E-1
1.643810835E1,-9.652411938E-2,2.351496220E-1,-6.170463562E-2
1.644810835E1,-2.285361588E-1,1.560015678E-1,5.721387863E-1
1.645810835E1,-2.709444463E-1,-2.798116207E-2,1.110211372E0
1.646810835E1,-3.781063259E-1,-1.527464390E-1,1.431797028E0
1.647810835E1,-3.413113356E-1,-2.740048170E-1,1.615005493E0
1.648810835E1,-1.691388488E-1,-4.276617765E-1,1.460285187E0
1.649810835E1,5.748981237E-2,-5.648505688E-1,1.020198822E0
1.650810835E1,1.680373996E-1,-5.232384205E-1,4.797191620E-1
1.651810835E1,2.334416509E-1,-3.333501816E-1,-1.540966034E-1
1.652810835E1,3.275326490E-1,-1.340138912E-1,-7.391233444E-1
1.653810835E1,2.862874568E-1,2.752304077E-2,-1.212767601E0
1.654810835E1,7.125681639E-2,1.634078026E-1,-1.573706627E0
1.655810835E1,-2.143277824E-1,2.547988892E-1,-1.711603165E0
1.656810835E1,-4.252769947E-1,3.028240204E-1,-1.564111710E0
1.657810835E1,-4.011451304E-1,2.916893959E-1,-1.193960190E0
1.658810835E1,-2.648442090E-1,2.325668335E-1,-6.702442169E-1
1.659810835E1,-1.502062678E-1,1.280033588E-1,-1.346244812E-1
1.660810835E1,-2.958360314E-2,7.137298584E-3,3.330888748E-1
1.661810835E1,-9.104046226E-2,-4.977869987E-2,7.281970978E-1
1.662810835E1,-2.692473829E-1,-3.627085686E-2,9.499187469E-1
1.663810835E1,-2.882220149E-1,-5.081057549E-3,9.938907623E-1
1.664810835E1,-2.544147670E-1,-1.367521286E-2,8.655986786E-1
1.665810835E1,-2.767982185E-1,-4.034686089E-2,6.805181503E-1
1.666810835E1,-2.626496553E-1,-1.097106934E-1,5.224742889E-1
1.667810835E1,-6.780946255E-2,-1.464602947E-1,3.438034058E-1
1.668810835E1,1.578518152E-1,-1.374540329E-1,2.098827362E-1
1.669810835E1,2.104560733E-1,-1.161857843E-1,1.038637161E-1
1.670810835E1,1.114997566E-1,-6.724309921E-2,-3.697109222E-2
1.671810835E1,7.967054844E-4,4.405784607E-2,-2.192363739E-1
1.672810835E1,-1.172870696E-1,1.161882877E-1,-4.037494659E-1
1.673810835E1,-2.084805965E-1,1.694724560E-1,-5.704660416E-1
1.674810835E1,-2.887747586E-1,2.406041622E-1,-6.822967529E-1
1.675810835E1,-3.717193305E-1,2.961933613E-1,-6.635246277E-1
1.676810835E1,-4.608943164E-1,2.746970654E-1,-5.231161118E-1
1.677810835E1,-5.297734737E-1,2.314658165E-1,-3.084897995E-1
1.678810835E1,-4.879595935E-1,1.868388653E-1,8.735656738E-3
1.679810835E1,-3.379913867E-1,1.087719202E-1,4.464244843E-1
1.680810835E1,-2.025439739E-1,4.350388050E-2,8.056850433E-1
1.681810835E1,-1.464349180E-1,-5.911672115E-2,1.033903122E0
1.682810835E1,-2.926313281E-1,-2.186100483E-1,1.082975388E0
1.683810835E1,-3.639223576E-1,-3.444916010E-1,1.069084167E0
1.684810835E1,-2.147838324E-1,-4.097206593E-1,8.788452148E-1
1.685810835E1,4.684090614E-2,-3.731647730E-1,6.158418655E-1
1.686810835E1,3.634143770E-1,-3.373333216E-1,3.641052246E-1
1.687810835E1,6.614782810E-1,-2.715950012E-1,9.676933289E-2
1.688810835E1,8.733495474E-1,-1.875832081E-1,-2.499275208E-1
1.689810835E1,7.584850788E-1,-5.575478077E-2,-4.880123138E-1
1.690810835E1,3.133743405E-1,1.087708473E-1,-9.349136353E-1
1.691810835E1,-1.176750660E-2,2.577850819E-1,-1.173937798E0
1.692810835E1,-3.194437921E-1,3.433275223E-1,-1.124022484E0
1.693810835E1,-4.748426974E-1,3.277471066E-1,-7.342281342E-1
1.694810835E1,-3.823124766E-1,1.814534664E-1,-1.627340317E-1
1.695810835E1,-2.557439506E-1,1.304149628E-4,4.066410065E-1
1.696810835E1,-1.457020938E-1,-1.087102890E-1,8.966741562E-1
1.697810835E1,-1.280128509E-1,-1.538876295E-1,1.169370651E0
1.698810835E1,-1.186651140E-1,-1.935859919E-1,1.202383995E0
1.699810835E1,-8.084139228E-2,-2.066426277E-1,8.962173462E-1
1.700810835E1,-1.415221989E-1,-1.984057426E-1,4.031696320E-1
1.701810835E1,-2.709931433E-1,-1.733288765E-1,-7.928752899E-2
1.702810835E1,-4.370780587E-1,-2.088903189E-1,-5.107793808E-1
1.703810835E1,-4.018653929E-1,-2.220370770E-1,-8.195791245E-1
1.704810835E1,-2.399926782E-1,-1.323924065E-1,-9.007768631E-1
1.705810835E1,-4.664430022E-2,7.609844208E-3,-7.651004791E-1
1.706810835E1,1.169400513E-1,1.673798561E-1,-5.421342850E-1
1.707810835E1,1.779491305E-1,2.694230080E-1,-2.472734451E-1
1.708810835E1,1.327062547E-1,3.001363277E-1,-2.070903778E-2
1.709810835E1,6.652981043E-3,2.840406895E-1,1.574726105E-1
1.710810835E1,-1.554477513E-1,2.302675247E-1,2.734355927E-1
1.711810835E1,-2.388222069E-1,1.294879913E-1,3.649873734E-1
1.712810835E1,-2.550929785E-1,2.819967270E-2,6.066246033E-1
1.713810835E1,-2.301464975E-1,-1.903533936E-3,9.656648636E-1
1.714810835E1,-4.677610099E-2,-1.023092270E-1,1.272656441E0
1.715810835E1,2.788597941E-1,-1.764580011E-1,1.441405296E0
1.716810835E1,4.662015140E-1,-1.925034523E-1,1.427965164E0
1.717810835E1,4.166059196E-1,-2.128988504E-1,1.155473709E0
1.718810835E1,2.248559445E-1,-2.452775240E-1,6.633281708E-1
1.719810835E1,1.708249152E-1,-2.334146500E-1,9.848499298E-2
1.720810835E1,2.089588642E-1,-1.596665382E-1,-4.443569183E-1
1.721810835E1,2.960650623E-1,-5.621409416E-2,-8.612127304E-1
1.722810835E1,3.048391938E-1,2.577471733E-2,-1.083740234E0
1.723810835E1,2.132419646E-1,1.762065887E-1,-1.124584198E0
1.724810835E1,-1.500415802E-2,3.323962688E-1,-8.569097519E-1
1.725810835E1,-2.251803577E-1,3.832750320E-1,-3.913516998E-1
1.726810835E1,-2.755661011E-1,3.346507549E-1,3.987979889E-2
1.727810835E1,-3.180676103E-1,1.852005720E-1,4.433975220E-1
1.728810835E1,-2.746807933E-1,5.078828335E-2,6.864633560E-1
1.729810835E1,-1.648290604E-1,-1.070635319E-1,8.052091599E-1
1.730810835E1,-2.564287186E-2,-3.121744394E-1,7.605314255E-1
1.731810835E1,2.414621711E-1,-4.106391668E-1,6.090936661E-1
1.732810835E1,3.922792375E-1,-3.722213507E-1,4.410791397E-1
1.733810835E1,5.791634917E-1,-3.663724661E-1,2.589006424E-1
1.734810835E1,6.681619883E-1,-3.522608280E-1,-3.280448914E-2
1.735810835E1,5.183961391E-1,-3.129026890E-1,-3.860282898E-1
1.736810835E1,4.817105532E-1,-2.595739365E-1,-6.382017136E-1
1.737810835E1,3.975937068E-1,-2.192414999E-1,-8.819503784E-1
1.738810835E1,3.422544301E-1,-8.920264244E-2,-1.016224861E0
1.739810835E1,3.590779305E-1,9.510922432E-2,-8.579254150E-1
1.740810835E1,3.002650142E-1,1.798324585E-1,-5.835580826E-1
1.741810835E1,2.693841755E-1,1.615207195E-1,-2.537937164E-1
1.742810835E1,3.102315962E-1,1.344959736E-1,-3.691101074E-2
1.743810835E1,2.364684641E-1,1.150777340E-1,1.489028931E-1
1.744810835E1,5.081760883E-2,1.020302773E-1,2.877302170E-1
1.745810835E1,-1.707906723E-1,7.122612000E-2,3.522920609E-1
1.746810835E1,-3.303802609E-1,2.287411690E-2,3.186483383E-1
1.747810835E1,-3.702461123E-1,-3.829884529E-2,3.046722412E-1
1.748810835E1,-3.946539164E-1,-1.336479187E-1,3.215732574E-1
1.749810835E1,-3.914560080E-1,-2.160642147E-1,2.473869324E-1
1.750810835E1,-3.317343593E-1,-2.571744919E-1,6.420993805E-2
1.751810835E1,-2.271566987E-1,-2.402033806E-1,-1.053581238E-1
1.752810835E1,-6.463599205E-2,-1.976969242E-1,-2.363395691E-1
1.753810835E1,1.082599163E-1,-1.428705454E-1,-3.822698593E-1
1.754810835E1,2.448437214E-1,-9.553456306E-2,-5.422649384E-1
1.755810835E1,2.451019585E-1,-3.103518486E-2,-7.025842667E-1
1.756810835E1,1.894149780E-1,5.782365799E-2,-8.358469009E-1
1.757810835E1,-1.059293747E-2,8.995842934E-2,-9.328851700E-1
1.758810835E1,-2.410629988E-1,1.236150265E-1,-8.528366089E-1
1.759810835E1,-2.733780146E-1,1.739768982E-1,-6.834564209E-1
1.760810835E1,-1.708409488E-1,1.637229919E-1,-4.608106613E-1
1.761810835E1,-9.724003077E-2,6.397390366E-2,-8.449268341E-2
1.762810835E1,-3.078240156E-2,5.548167229E-2,4.287443161E-1
1.763810835E1,-9.475442767E-2,4.749655724E-2,9.513034821E-1
1.764810835E1,-1.582278907E-1,-1.981532574E-2,1.354022980E0
1.765810835E1,-2.425608039E-2,-8.460092545E-2,1.634062767E0
1.766810835E1,2.438532263E-1,-1.542654037E-1,1.743160248E0
1.767810835E1,3.465418518E-1,-1.764956713E-1,1.647038460E0
1.768810835E1,3.203797042E-1,-1.740533113E-1,1.380164146E0
1.769810835E1,2.123546898E-1,-1.257961988E-1,1.013348579E0
1.770810835E1,2.382529974E-1,-1.354646683E-2,6.834106445E-1
1.771810835E1,3.583878875E-1,7.330012321E-2,3.318262100E-1
1.772810835E1,4.764561653E-1,1.577310562E-1,3.010082245E-2
1.773810835E1,2.676520050E-1,1.982488632E-1,-1.042442322E-1
1.774810835E1,1.206260026E-1,1.039798260E-1,-6.662178040E-2
1.775810835E1,1.598606110E-1,-2.696347237E-2,-2.484226227E-2
1.776810835E1,2.161585093E-1,-6.763601303E-2,-1.137905121E-1
1.777810835E1,3.424095213E-1,-3.795933723E-2,-3.665542603E-1
1.778810835E1,5.778659582E-1,-4.007720947E-2,-6.813631058E-1
1.779810835E1,6.719881892E-1,-5.747032166E-2,-8.444938660E-1
1.780810835E1,5.751187205E-1,-2.531313896E-2,-9.869060516E-1
1.781810835E1,3.628100753E-1,5.788230896E-2,-1.053063393E0
1.782810835E1,1.343923509E-1,1.567428112E-1,-9.380798340E-1
1.783810835E1,-6.544327736E-2,1.560926437E-1,-5.850811005E-1
1.784810835E1,-9.101769328E-2,7.542848587E-2,-1.719255447E-1
1.785810835E1,4.104796052E-2,-5.482649803E-2,1.796770096E-1
1.786810835E1,2.420460135E-1,-1.508243084E-1,3.976297379E-1
1.787810835E1,3.294245601E-1,-1.853562593E-1,4.405899048E-1
1.788810835E1,4.153623283E-1,-1.841661930E-1,3.254375458E-1
1.789810835E1,4.754121900E-1,-1.589149237E-1,1.512451172E-1
1.790810835E1,4.145475626E-1,-1.067405939E-1,-1.499776840E-1
1.791810835E1,2.525859773E-1,-5.009388924E-2,-5.133028030E-1
1.792810835E1,8.522778749E-2,5.711793900E-3,-8.438310623E-1
1.793810835E1,-1.850903034E-3,1.451492310E-2,-1.066641808E0
1.794810835E1,-9.972071648E-2,1.060485840E-2,-1.097963333E0
1.795810835E1,-1.287299991E-1,3.846287727E-2,-9.164733887E-1
1.796810835E1,-1.163122058E-1,8.612442017E-2,-6.050710678E-1
1.797810835E1,-1.100457907E-1,6.310582161E-2,-2.536735535E-1
1.798810835E1,-1.109606922E-1,2.037549019E-2,1.224527359E-1
1.799810835E1,-6.990057230E-2,-8.602380753E-3,4.474477768E-1
1.800810835E1,8.162021637E-2,-3.065776825E-2,6.061992645E-1
1.801810835E1,6.340497732E-2,-1.308157444E-1,5.066766739E-1
1.802810835E1,5.953842402E-2,-2.212803364E-1,3.177814484E-1
1.803810835E1,9.007424116E-2,-2.896099091E-1,6.120681763E-2
1.804810835E1,6.365036964E-2,-3.247435093E-1,-2.409372330E-1
1.805810835E1,5.108165741E-2,-3.318448067E-1,-4.512748718E-1
1.806810835E1,5.737465620E-2,-2.359974384E-1,-6.386232376E-1
1.807810835E1,6.877416372E-2,-1.106722355E-1,-7.904739380E-1
1.808810835E1,6.896954775E-2,3.827571869E-2,-8.294725418E-1
1.809810835E1,4.450738430E-2,1.885051727E-1,-7.704181671E-1
1.810810835E1,-2.450656891E-2,2.591538429E-1,-7.251768112E-1
1.811810835E1,-8.912944794E-2,2.859516144E-1,-5.916709900E-1
1.812810835E1,-2.060767412E-1,2.901444435E-1,-3.668746948E-1
1.813810835E1,-3.567528129E-1,2.644836903E-1,-1.440114975E-1
1.814810835E1,-4.018953443E-1,2.105116844E-1,1.907920837E-2
1.815810835E1,-4.296622276E-1,8.968305588E-2,2.611017227E-1
1.816810835E1,-5.992334485E-1,1.050140858E-1,5.238780975E-1
1.817810835E1,-5.913536549E-1,4.968976974E-2,9.096021652E-1
1.818810835E1,-5.504100919E-1,-1.865890026E-1,1.471970558E0
1.819810835E1,-5.420408249E-1,-3.679178953E-1,2.025611877E0
1.820810835E1,-4.052112401E-1,-4.014431238E-1,2.357091904E0
1.821810835E1,1.992717385E-3,-3.438724279E-1,2.398977280E0
1.822810835E1,5.147950053E-1,-3.149477243E-1,2.065996170E0
1.823810835E1,8.816270232E-1,-3.181514740E-1,1.466032982E0
1.824810835E1,9.398006201E-1,-2.578933239E-1,7.338027954E-1
1.825810835E1,7.036424875E-1,-9.714245796E-2,-4.740238190E-2
1.826810835E1,4.702539444E-1,8.689618111E-2,-7.305326462E-1
1.827810835E1,2.477851212E-1,2.552134991E-1,-1.220426559E0
1.828810835E1,1.293350905E-1,3.886027336E-1,-1.510856628E0
1.829810835E1,-1.584216952E-2,4.449243546E-1,-1.328071594E0
1.830810835E1,-2.375276983E-1,3.776350021E-1,-9.167366028E-1
1.831810835E1,-2.885914445E-1,2.937657833E-1,-2.879114151E-1
1.832810835E1,-3.509331942E-1,2.266983986E-1,5.912685394E-1
1.833810835E1,-4.709274173E-1,9.303307533E-2,1.489980698E0
1.834810835E1,-2.978017032E-1,-1.299546957E-1,2.124508858E0
1.835810835E1,-1.274746656E-1,-3.918461800E-1,2.390626907E0
1.836810835E1,-1.227787435E-1,-4.664653540E-1,2.167220116E0
1.837810835E1,-5.063055456E-2,-4.785307646E-1,1.553425789E0
1.838810835E1,1.589782238E-1,-5.069631338E-1,7.788991928E-1
1.839810835E1,2.424236983E-1,-4.558738470E-1,1.090450287E-1
1.840810835E1,8.124996722E-2,-3.015153408E-1,-5.497865677E-1
1.841810835E1,-1.490081549E-1,-9.475088120E-2,-1.096157074E0
1.842810835E1,-2.030994594E-1,9.205245972E-2,-1.387624741E0
1.843810835E1,-2.412346005E-1,2.087275982E-1,-1.393212318E0
1.844810835E1,-2.046236396E-1,2.640373707E-1,-1.139535904E0
1.845810835E1,-1.672406197E-1,2.653026581E-1,-6.893625259E-1
1.846810835E1,-1.208839417E-1,2.195045948E-1,-1.786880493E-1
1.847810835E1,-6.093087792E-2,9.974837303E-2,2.961406708E-1
1.848810835E1,-7.982870936E-2,-2.327156067E-2,5.948610306E-1
1.849810835E1,-1.506960988E-1,-1.184256077E-1,6.534948349E-1
1.850810835E1,-1.619366705E-1,-2.304837704E-1,5.029163361E-1
1.851810835E1,-2.952486277E-3,-3.267757893E-1,1.908483505E-1
1.852810835E1,1.133769155E-1,-3.406682014E-1,-1.573371887E-1
1.853810835E1,1.778739989E-1,-3.477075100E-1,-5.023365021E-1
1.854810835E1,3.157475591E-1,-3.256151676E-1,-7.958488464E-1
1.855810835E1,5.211763382E-1,-1.623086929E-1,-1.025060654E0
1.856810835E1,6.291338205E-1,-1.665282249E-2,-1.195567131E0
1.857810835E1,4.771716297E-1,9.961795807E-2,-1.241183281E0
1.858810835E1,2.094514072E-1,2.637088299E-1,-1.201907158E0
1.859810835E1,-1.339418888E-1,4.286239147E-1,-1.005331039E0
1.860810835E1,-3.493361175E-1,5.033395290E-1,-6.931390762E-1
1.861810835E1,-3.672357202E-1,3.910603523E-1,-2.778177261E-1
1.862810835E1,-3.437680006E-1,1.300001144E-1,1.939630508E-1
1.863810835E1,-3.372789025E-1,-1.034371853E-1,6.640701294E-1
1.864810835E1,-4.355908930E-1,-1.763072014E-1,9.774951935E-1
1.865810835E1,-4.921256602E-1,-2.726578712E-1,1.192671776E0
1.866810835E1,-4.316007197E-1,-4.069838524E-1,1.178607941E0
1.867810835E1,-2.120448649E-1,-4.047204256E-1,9.149980545E-1
1.868810835E1,-5.674162507E-2,-3.133718967E-1,4.735145569E-1
1.869810835E1,-2.609726787E-2,-2.256724834E-1,-5.278587341E-3
1.870810835E1,1.525375247E-2,-1.609306335E-1,-4.206819534E-1
1.871810835E1,1.159856915E-1,-7.264328003E-2,-8.252058029E-1
1.872810835E1,1.505881250E-1,6.650352478E-2,-1.084664345E0
1.873810835E1,1.006533504E-1,2.444307804E-1,-1.138364792E0
1.874810835E1,-1.248517632E-2,3.766648769E-1,-9.188051224E-1
1.875810835E1,-9.097069502E-2,4.253792763E-1,-5.392665863E-1
1.876810835E1,-2.542614937E-2,3.843686581E-1,-3.708171844E-2
1.877810835E1,8.186161518E-2,2.898819447E-1,4.513454437E-1
1.878810835E1,1.305236816E-1,1.680848598E-1,8.338479996E-1
1.879810835E1,6.082382798E-2,-3.680419922E-2,1.013774872E0
1.880810835E1,-1.161312759E-1,-2.042903900E-1,9.938535690E-1
1.881810835E1,-2.081995010E-1,-2.274836302E-1,8.183012009E-1
1.882810835E1,-6.532797217E-2,-2.292830944E-1,5.174865723E-1
1.883810835E1,1.403539181E-1,-2.641122341E-1,2.216949463E-1
1.884810835E1,2.284032404E-1,-2.323749065E-1,-7.980537415E-2
1.885810835E1,2.125804424E-1,-1.258502007E-1,-2.971487045E-1
1.886810835E1,3.164464235E-2,-2.539396286E-2,-4.339132309E-1
1.887810835E1,-1.621497571E-1,1.599860191E-2,-6.301927567E-1
1.888810835E1,-2.072624266E-1,2.754020691E-2,-8.297700882E-1
1.889810835E1,-2.161606252E-1,4.701256752E-2,-7.596340179E-1
1.890810835E1,-3.267620802E-1,8.500647545E-2,-3.829431534E-1
1.891810835E1,-3.765160143E-1,1.034133434E-1,1.291790009E-1
1.892810835E1,-2.870666981E-1,4.358124733E-2,5.727624893E-1
1.893810835E1,-1.997524798E-1,-5.850028992E-2,8.920507431E-1
1.894810835E1,-1.099052727E-1,-1.402161121E-1,9.681930542E-1
1.895810835E1,5.537259579E-2,-1.900458336E-1,8.177862167E-1
1.896810835E1,1.208416224E-1,-1.578578949E-1,5.160074234E-1
1.897810835E1,-4.537060857E-2,-3.806138039E-2,2.238235474E-1
1.898810835E1,-1.916258633E-1,2.589011192E-2,-2.333259583E-2
1.899810835E1,-2.434260845E-1,3.370714188E-2,-2.018976212E-1
1.900810835E1,-2.866890728E-1,5.878472328E-2,-2.702960968E-1
1.901810835E1,-3.791669905E-1,9.718227386E-2,-2.980318069E-1
1.902810835E1,-3.358528018E-1,1.071493626E-1,-2.779130936E-1
1.903810835E1,-1.680953205E-1,8.254194260E-2,-2.701606750E-1
1.904810835E1,3.890308738E-2,8.682107925E-2,-2.972221375E-1
1.905810835E1,2.274859846E-1,1.058499813E-1,-3.364992142E-1
1.906810835E1,2.718284130E-1,1.404154301E-1,-3.502140045E-1
1.907810835E1,1.291447282E-1,1.962168217E-1,-3.466434479E-1
1.908810835E1,-1.764765382E-1,2.099235058E-1,-3.641166687E-1
1.909810835E1,-3.726867139E-1,1.240284443E-1,-3.369674683E-1
1.910810835E1,-1.912091076E-1,8.116364479E-2,-3.106298447E-1
1.911810835E1,1.064649224E-1,4.709625244E-2,-3.063049316E-1
1.912810835E1,2.484564036E-1,-4.963493347E-2,-1.918697357E-1
1.913810835E1,2.546712458E-1,-8.583045006E-2,-3.752899170E-2
1.914810835E1,2.121092081E-1,1.173782349E-2,7.232093811E-2
1.915810835E1,1.822295785E-2,1.052646637E-1,1.384658813E-1
1.916810835E1,-2.054018080E-1,1.032598019E-1,1.578102112E-1
1.917810835E1,-2.967696190E-1,1.403355598E-2,1.951942444E-1
1.918810835E1,-2.087274194E-1,-8.944058418E-2,3.134288788E-1
1.919810835E1,8.691892028E-2,-1.255543232E-1,3.849248886E-1
1.920810835E1,2.560616136E-1,-1.188104153E-1,2.777919769E-1
1.921810835E1,2.826377153E-1,-1.654155254E-1,5.331134796E-2
1.922810835E1,2.455011755E-1,-1.429743767E-1,-1.279735565E-1
1.923810835E1,1.562886834E-1,-3.560757637E-2,-4.149618149E-1
1.924810835E1,-9.459257126E-3,2.909827232E-2,-6.958017349E-1
1.925810835E1,-1.788363755E-1,-1.031041145E-2,-9.366178513E-1
1.926810835E1,-2.557110488E-1,-5.648636818E-2,-1.025403023E0
1.927810835E1,-4.596269131E-2,-4.449319839E-2,-9.137125015E-1
1.928810835E1,2.766191363E-1,1.802802086E-2,-6.680021286E-1
1.929810835E1,5.191589594E-1,3.091788292E-2,-3.663892746E-1
1.930810835E1,4.894607961E-1,6.158614159E-2,-7.003879547E-2
1.931810835E1,2.507252395E-1,1.350643635E-1,1.065902710E-1
1.932810835E1,2.309182286E-2,1.971492767E-1,2.123222351E-1
1.933810835E1,-2.280219197E-1,1.664555073E-1,3.111896515E-1
1.934810835E1,-4.259836674E-1,8.323812485E-2,3.774852753E-1
1.935810835E1,-5.888533592E-1,-9.363961220E-2,4.093408585E-1
1.936810835E1,-5.079540014E-1,-3.461813927E-1,3.782901764E-1
1.937810835E1,-1.686394215E-2,-4.798710346E-1,2.686624527E-1
1.938810835E1,5.491883755E-1,-4.756948948E-1,2.244367599E-1
1.939810835E1,8.894499540E-1,-3.305075169E-1,1.095561981E-1
1.940810835E1,9.340196252E-1,-2.017714977E-1,-2.426939011E-1
1.941810835E1,8.998968005E-1,-1.339142323E-1,-7.520189285E-1
1.942810835E1,9.209602475E-1,3.687810898E-2,-1.508495331E0
1.943810835E1,1.176194549E0,3.723630905E-1,-2.277552605E0
1.944810835E1,9.008521438E-1,6.708371639E-1,-2.810159206E0
1.945810835E1,1.708944440E-1,9.147109985E-1,-2.731927872E0
1.946810835E1,-8.231343627E-1,1.145802021E0,-2.491245270E0
1.947810835E1,-1.648995638E0,1.203098059E0,-2.071004868E0
1.948810835E1,-1.988752961E0,1.069160223E0,-1.279438972E0
1.949810835E1,-1.993673325E0,9.007627964E-1,-1.645946503E-1
1.950810835E1,-1.480856299E0,5.344648361E-1,1.253914833E0
1.951810835E1,-1.011148810E0,-4.944205284E-3,2.728781700E0
1.952810835E1,-4.455685019E-1,-4.459514618E-1,3.420667648E0
1.953810835E1,2.893153727E-1,-6.730741858E-1,3.661997795E0
1.954810835E1,7.061020136E-1,-8.808420897E-1,3.558163643E0
1.955810835E1,9.170449972E-1,-1.122606039E0,3.131660461E0
1.956810835E1,9.364570975E-1,-1.294643402E0,2.411712646E0
1.957810835E1,8.531314731E-1,-1.127701044E0,1.661983490E0
1.958810835E1,4.675229788E-1,-8.293445110E-1,7.200956345E-1
1.959810835E1,2.539492846E-1,-2.943999767E-1,-1.143741608E-1
1.960810835E1,5.721513927E-2,3.491506577E-1,-6.496419907E-1
1.961810835E1,-1.058861613E-2,9.301135540E-1,-1.227096558E0
1.962810835E1,-2.516297400E-1,1.195425034E0,-1.208531380E0
1.963810835E1,-4.943486452E-1,1.021705866E0,-6.972608566E-1
1.964810835E1,-6.951894164E-1,6.037712097E-1,-7.286071777E-3
1.965810835E1,-7.862644792E-1,3.332314491E-1,6.505184174E-1
1.966810835E1,-5.380589366E-1,-2.312004566E-2,9.764032364E-1
1.967810835E1,-1.352178156E-1,-4.015144110E-1,1.259607315E0
1.968810835E1,3.511024117E-1,-5.315450430E-1,1.342368126E0
1.969810835E1,8.962554336E-1,-5.162312984E-1,1.371552467E0
1.970810835E1,9.749444723E-1,-5.706697702E-1,1.290955544E0
1.971810835E1,3.130938113E-1,-6.124969721E-1,9.855270386E-1
1.972810835E1,-3.991485834E-1,-3.954130411E-1,6.167287827E-1
1.973810835E1,-5.510246754E-1,1.804566383E-2,-2.169132233E-2
1.974810835E1,-3.378345966E-1,3.822729588E-1,-4.581155777E-1
1.975810835E1,-9.253814816E-3,4.889779091E-1,-6.798400879E-1
1.976810835E1,8.571064472E-2,4.510796070E-1,-8.033390045E-1
1.977810835E1,4.730692506E-2,3.470883369E-1,-8.502855301E-1
1.978810835E1,-9.188449383E-2,2.067935467E-1,-8.914918900E-1
1.979810835E1,-3.500935435E-2,1.765251160E-2,-9.709873199E-1
1.980810835E1,1.752375662E-1,-1.466629505E-1,-1.051616669E0
1.981810835E1,1.484833360E-1,-1.717524529E-1,-1.046680450E0
1.982810835E1,-1.769548953E-1,-1.129665375E-1,-8.534927368E-1
1.983810835E1,-4.463527203E-1,3.480648994E-2,-5.437517166E-1
1.984810835E1,-2.833565474E-1,1.525402069E-1,-3.034086227E-1
1.985810835E1,-7.320542634E-2,1.777853966E-1,2.631664276E-2
1.986810835E1,-4.961816967E-2,1.249210835E-1,4.492368698E-1
1.987810835E1,-1.339495182E-3,6.034207344E-2,7.661619186E-1
1.988810835E1,1.690201461E-4,8.179020882E-2,1.063604355E0
1.989810835E1,-1.281209439E-1,1.636433601E-1,1.341617584E0
1.990810835E1,-2.745471001E-1,1.629800797E-1,1.571536064E0
1.991810835E1,-2.916981876E-1,5.831468105E-2,1.722352982E0
1.992810835E1,-2.448488027E-1,-1.105533838E-1,1.600761414E0
1.993810835E1,-1.430608630E-1,-2.120821476E-1,1.312246323E0
1.994810835E1,-1.016955972E-1,-2.755784988E-1,8.508806229E-1
1.995810835E1,-1.425920427E-2,-2.714631557E-1,2.719230652E-1
1.996810835E1,1.292491853E-1,-2.445552349E-1,-2.792367935E-1
