Time (s),Gyroscope_X,Gyroscope_Y,Gyroscope_Z
10.250580540000001,-0.01128821931072399,0.010607120164828104,0.01846970403493719
10.750580540000001,0.01584311792287211,-3.658780952646809e-05,0.024819636597094723
11.250580540000001,-0.005225526226305313,0.027975168022217212,0.03573010337527923
11.750580540000001,-0.004405153612380888,-0.007622727446757546,0.054147232259109036
12.250580540000001,-0.017466373339242166,-0.005610942819318696,0.05833015865107778
12.750580540000001,-0.007358513085387257,-0.005083505315708667,0.045160370953488134
13.250580540000001,0.0015456264747218155,0.005706362876768797,0.0653517853329201
13.750580540000001,0.006922439411826754,-0.009078499248650725,-0.0025904613173271885
14.250580540000001,0.0003139176824357154,0.002217731620935328,0.04157610415241674
14.750580540000001,-0.01922822186642874,-0.0039956294989883945,0.018215151885522318
15.250580540000001,-0.02328701159670418,-0.009385457064739713,0.052675192282542166
15.750580540000001,-0.013517487159165344,-0.04604016837288442,0.02305362853469925
16.25058054,-0.05970160995937645,-0.07398127781559462,0.028960444058081746
16.750380540000002,0.05830088668022412,0.010823764278424764,0.014361385304588394
17.250380540000002,0.035044480979037985,0.012738867458281435,-0.00108420822803562
17.750380540000002,-0.014891044514545372,-0.014396402306966476,-0.00781987433468149
18.25058054,-0.0024648720215219105,-0.005461645507899633,-0.006337408872692686
18.75058054,-0.016442533014221165,-0.020828812063597463,-0.009392360797537963
19.25058054,0.005757287988881524,0.0029725869016436913,0.014338541280673299
19.750380540000002,-0.0013175238467005536,0.003276300097176467,0.013178224340228473
20.25058054,0.015986841095047416,0.007925431770537976,-0.02195806519400451
20.75058054,-0.0037921590946798558,0.016099969265844075,0.01442826182473501
21.25058054,0.048744151402355884,-0.0089202512061366,-0.04811184220867633
21.75058054,-0.026712377827889048,-0.0008168845722243992,0.003436223944248834
22.25058054,-0.045203227853811596,0.04053937624152849,0.024349888013234625
22.75058054,-0.017481046416864758,0.009419915565727674,0.01688186812800066
23.250380540000002,0.048915025802360165,-0.0003561061195534476,-0.03842113557134957
23.75058054,0.03773522104231897,-0.01563484505494319,-0.011210312595432486
24.25058054,-0.002548593911158428,0.036697339996200534,-0.01052524408792954
24.75058054,-0.005186860901988298,0.006379288945940107,-0.0013988744236215927
25.25058054,0.02078481469860222,0.0005436576977287735,-0.004270425143009102
25.75058054,-0.004573062018592205,0.017690676797263563,0.010501398092313381
26.25058054,0.0002343964148470115,0.006029596854725351,0.004415641366298962
26.75058054,0.02285512952791037,0.0862450366135269,0.07583996398945898
27.25058054,-0.0022143822161763155,-0.007728136392668062,0.015345771465345971
27.75058054,0.0081271276734766,-0.010455947265160581,-0.012701977427554093
28.25058054,0.009575814671113545,-0.017010115463279595,-0.029100556482292622
28.75058054,0.008083225573235698,0.04682168593795031,0.008323842134964628
29.25058054,-0.0077135760567695975,-0.047694300490196045,-0.022398391245823296
29.75058054,0.002695726800740014,-0.0059181367970988575,0.027281647626636315
30.25058054,-0.000630316985876703,-0.00047640726196611827,0.010160187576678083
30.75058054,-0.00592073016833283,-0.009180152399878894,-0.0013527650305673643
31.25058054,-0.009249183268772805,0.02747510238767487,0.04303743776572835
31.75058054,-0.00661321273644193,-0.013431950154035201,-0.012402652004123015
32.25058054,0.0026565366719982753,0.01018547768143535,0.028928374236089648
32.75058054,-0.010833857218295924,-0.003971266692177511,0.004194878641260546
33.25058054,0.015317563058420755,0.012436718799511423,0.050847448746742324
33.75058054,0.004680059175216422,0.009110887479018703,0.03294312327723917
34.25058054,0.06027401087854398,0.11032924840767792,0.08576652887217164
34.75058054,-0.07809887114350236,-0.05919907678317148,-0.02510555879896213
35.25038054,-0.045425869616008877,-0.0194002221351259,-0.013738623839364403
35.75058054,0.02544184662150438,-0.1102286840390715,0.1082899838696508
36.25058054,0.008065672432959197,0.02999432397727473,0.009585199975439503
36.75058054,-0.0009600791651961621,-0.08340442635927747,-0.08053409812619589
37.25058054,-0.07530638125134907,-0.03297509670264168,-0.03685883178325269
37.75058054,0.03910745682757648,0.054967501999471986,0.0456287863119391
38.25058054,-0.045506107212060914,-0.04675763359455692,0.0014253536965922586
38.75058054,0.04750202515370701,0.020498506786152334,0.04386421727745901
39.25038054,-0.002081864465044082,-0.013249857393441493,0.0064049885360329874
39.75038054,0.01688368679672741,0.06702087890737934,-0.07190788069589801
40.25058054,-0.01480846522837454,0.0905892612771331,-0.03486539027087009
40.75058054,-0.0066738077770871285,0.018779554414896184,0.022838226422296718
41.25058054,-0.025405829989103387,0.013406138574954918,-0.009025083370193237
41.75058054,0.007558926809685926,-0.04633155958508164,-0.026895325439944266
42.25058054,0.0030012351173539014,0.005674650155550757,-0.004733300033531441
42.75058054,0.0023933059511180997,-0.005016022708844932,0.006476574096672309
43.250380539999995,0.01638312203705145,-0.014611072112462655,-0.0038864120372226617
43.75058054,0.0005920692874514711,0.0036112791397216876,0.002689379457397626
44.25058054,0.004083888262938727,0.016492631614544714,-0.00036328708280144756
44.75058054,-0.008806334947517046,-0.027799650934471423,-0.016899546239540267
45.25058054,0.037085325018789306,0.013112130179334986,-0.021702929319870903
45.75058054,-0.021561478724412105,-0.020438839464974715,-0.01912340255449625
46.25058054,0.03891259184651794,0.021038000597649587,0.01619229668093056
46.75058054,-0.010420495132620222,-0.02783704669757917,0.023829990087154442
47.250380539999995,-0.02768075652606034,0.0028705832070201266,0.008274715482608443
47.75058054,-0.003891953577843604,-0.010462224926448332,0.0048004737194748985
48.25058054,-0.0010072021518340354,-0.008635022075731196,-0.05211722944666707
48.750380539999995,-0.005760513707379016,0.06560864380051909,-0.033620068567209165
49.25058054,-0.013281423052503792,-0.02408244574095102,0.010406732014239023
49.75058054,-0.0011834688176625557,-0.031736076972968166,0.007399075168619135
50.25058054,-0.009518796656193967,-0.011376281031355186,0.024349243053601925
50.75058054,-0.011798132857787256,0.04866794124730252,0.08017451334756823
51.25058054,-0.03017489397805379,-0.037005915320110966,0.08786067224999022
51.75058054,-0.014811298774756487,0.1324544874538966,-0.0818812348267512
52.25058054,0.02243618896960818,-0.024430748343340386,0.028989752562570047
52.750380539999995,0.015928161199312743,-0.07377091783897675,-0.07067940510023725
53.25058054,0.014841103731940404,0.15143969733469245,-0.146392189921126
53.75058054,-0.07755009266728999,0.016748090414238623,0.04157932363413913
54.25058054,0.04007918575590372,-0.17379990750853772,-0.16557680151624582
54.75058054,0.11273164313621396,-0.11710778731169595,-0.26004101039270916
55.25058054,-0.023059598533280566,-0.13048655963307518,0.19140471277212767
55.75058054,-0.06504242353493012,-0.021754120254056875,0.05428531187372965
56.250380539999995,-0.03718688872975016,0.001815455957466185,0.003862587817690952
56.75058054,-0.008076062777126122,-0.023215971448205915,0.038144493380497545
57.25058054,-0.06401458337628772,0.22469228650904977,0.11990550488847221
57.75058054,0.018210743469994,-0.13598398739062342,-0.051852636888023135
58.25058054,-0.010224021167284866,0.10513056249741765,0.04090997757613794
58.75058054,0.12408412752467696,0.06960731920198648,0.13809602479563046
59.25058054,0.1586797332512195,-0.14903758098109227,-0.26471763030244344
59.75058054,-0.00598924060200025,0.04580044733379249,0.009787609721025867
60.25058054,0.017659781829224067,0.08960045674216761,-0.04226479115121626
60.75058054,0.07033959672616916,-0.10997212993165109,-0.028001685371757675
61.25058054,-0.005950728704149323,-0.09953768969159597,0.05763505834403316
61.75058054,-0.1044623438262355,0.0073148572445567205,-0.04473002863476047
62.25058054,0.08148438262292602,-0.019407885815356175,-0.03724426772647422
62.75058054,-0.060624044664557994,0.009727952513420207,0.01785278496539014
63.25058054,-0.030075074820642395,-0.035842053881306755,0.006576185952706696
63.75058054,0.020822600954992013,0.02722540170402882,0.012056699412410507
64.25058054,0.015855696443330694,0.002062630907055915,-0.0009678183625587047
64.75058054,-0.029818423423283426,0.0004535116491508262,-0.00585565998794418
65.25058054,0.20912066864942364,0.5563628126608751,-0.11503296307901108
65.75058054,-0.22704118492072223,0.23358411311334862,0.07209816600824424
66.25038054,-0.2475194661659447,-0.6490573090982891,0.33031932345434106
66.75058054,0.11870351948649777,-0.15275370188390267,-0.035936616879381725
67.25058054,0.07593511581297376,0.021574639680179794,0.03205908737584934
67.75058054,0.04138916139474499,-0.0790017391110632,0.01063902949657363
68.25058054,-0.13589702490657923,0.812272894186316,0.14427279243129376
68.75058054,0.04101297636123188,-0.47530962620511863,-0.1087710032974778
69.25058054,0.16927490705455184,0.08997561063507231,-0.11291211864847923
69.75058054,0.07531250926134068,-0.33344516873779656,0.10734552556572677
70.25058054,-0.13629455156691417,-0.14301901837952422,0.03687669624335227
70.75058054,-0.0302245136834126,-0.14632479830160108,-0.04633191860942255
71.25058054,-0.01897437105686024,0.04194650382984239,0.020002921003159622
71.75018054,-0.03962249806938691,-0.008998146108774877,0.01799243119888331
72.25058054,-0.6066327461751887,0.46303745570310717,0.06704538978099732
72.75058054,0.07921141675098871,-0.27444060117802044,-0.05839887180949043
73.25058054,0.21697936706333049,-0.052896155362470144,-0.0977526139794942
73.75058054,0.21942490415250174,0.011019204225858255,-0.03686200515332526
74.25058054,-0.032426525760195925,0.06331524612084052,-0.007762414221057397
74.75058054,0.006743284314047811,-0.031456181475941904,-0.019372123176971994
75.25058054,0.046724501580100525,-0.012136488404971741,0.009688262618937498
75.75058054,0.01975940826384386,-0.05632035097277338,0.02379394418792716
76.25058054,-0.0032055754731490395,0.0013284806090872153,-0.011914548654930466
76.75058054,-0.0006828067121032909,-0.004154556781017845,-0.0016088349898590781
77.25058054,-0.011744939157647872,-0.004971455954781811,0.00876882990036912
77.75058054,-0.021352740906515188,0.008581840587335542,0.0005853369541316118
78.25058054,-0.008301672210335084,-0.004636222236649174,0.005068242193286632
78.75058054,-0.024822511171899934,-0.006525489993028501,0.08921082760000082
79.25038054,-0.01738704782078959,0.0022357544034542036,0.1017954021823385
79.75058054,-0.043755730239372764,-0.01619040746412119,0.02063029711389121
80.25058054,-0.005160105423881203,0.014772222962706805,-0.07169867633070416
80.75058054,0.022211752679447697,-0.012226574409835867,-0.0014421363916600322
81.25058054,-0.009643940590127855,-0.0025881725560462383,-0.009609599047133828
81.75058054,-0.003454691605335589,-0.006405852451717361,0.005354045821795067
82.25058053999999,0.018612631429778297,-0.011385437039760072,0.007710349581413871
82.75058053999999,0.04489783803906205,-0.01345126550855147,-0.060228595331452715
83.25038054000001,-0.01745621276925304,0.01801700312822944,0.0033135969244028553
83.75058053999999,-0.0012552378467727038,0.013866800977259498,-0.006113642903770142
84.25058053999999,-0.014337043199810415,-0.007054944503871865,-0.009119554462174117
84.75038054000001,-0.001853587424492896,-0.0019603533255931047,-0.004134074151437874
85.25058053999999,-0.009126734897772465,-0.0043971075208077155,-0.00794430740541522
85.75058053999999,0.0014614805455216838,0.006294091675126774,0.0016604586675122719
86.25058053999999,-0.004211460735709822,0.0049350279148654376,-0.005690871114967692
86.75058053999999,-0.003368380092151639,0.002248154007117903,-0.0014028984193713038
87.25058053999999,-0.018152643804579274,-0.007648619425632358,0.026680023156899907
87.75058053999999,-0.016376553238933514,0.008685064828565525,-0.0011933115552619365
88.25038054000001,0.016073017501016328,0.008611571174687334,0.012450368418660748
88.75058053999999,0.021254250753630643,-0.003944893066338547,-0.018744998671334872
89.25058053999999,0.0022336982378608526,-0.007917532030885528,-0.00044040617090545663
89.75058053999999,-0.0024160890137449997,0.0010462600820583775,0.002102569856064409
90.25058053999999,0.0032412374653311184,-0.003320485314207724,-0.0027101758985776632
90.75058053999999,-0.002296017107495765,-0.0020939344709021445,0.006746918849352591
91.25038054000001,0.00018985671902728776,-0.0019729241504693154,0.00466052081892709
91.75058053999999,-0.009447337481860081,-0.00162874996092345,0.0006775432938822065
92.25038054000001,0.007220793563342083,0.0119581742884165,0.014997925338068476
92.75058053999999,0.03469577143504092,0.01273764209541712,0.02277386352176356
93.25058053999999,-0.023938301916692398,0.00043175062624373846,0.09226879799145087
93.75058053999999,-0.046360033895597744,0.004540493011962352,0.15171578752729523
94.25058053999999,-0.027903219320487407,0.0018423601610300128,0.10757391683597678
94.75058053999999,-0.017503143480087194,0.0066032307616683775,-0.09348593026442582
95.25058053999999,0.02003383330207357,0.0014114588453471313,-0.1187605311649725
95.75058053999999,0.009546163543545242,0.0007453513388681332,0.020284245226751124
96.25058053999999,0.002905461976587612,0.005439173741851103,-0.06806158235035166
96.75058053999999,0.010715338827380693,-0.0013837378340962423,-0.046534311747547255
97.25058053999999,0.003839571947841371,0.0021626579395816036,0.0035584364327284146
97.75058053999999,-0.0034577052915588683,0.0009375934522929135,-0.003232098614420862
98.25058053999999,-0.00714024135090676,-0.010632508293137066,0.0052987131871833236
98.75058053999999,0.0020148547909624244,0.011876622273078145,-0.012798293168531228
99.25058053999999,0.003454403932078534,-0.0003132191618121284,0.02214369532907686
99.75038054000001,0.04376513663396921,0.01972686393461258,-0.09232190647858364
100.2505805,0.17022790585920053,0.0537674926614093,-0.10201824909144908
100.75038049999999,0.05866691996910859,0.019280469087503083,-0.0019622156406753836
101.2505805,0.05377545030143132,-0.00949695594260989,-0.13440798695419073
101.7505805,-0.0927767712916563,0.01917035896921381,0.06844937270428428
102.25038049999999,0.043333411447771614,-0.026899411626199233,0.009533946791958917
102.7505805,-0.031616533359582435,-0.012829407057890738,0.017247784917210175
103.2505805,-0.021065923937650135,-0.008339643741697086,0.008833884640291792
103.7505805,0.022152583569106276,0.0029131332634812377,-0.0017084544105441684
104.25038049999999,0.006924004592507077,0.0027400794384548344,-0.028051703333714317
104.7505805,-0.015559942407526606,-0.007584438365134426,0.01214088409584898
105.2505805,-0.010659147608023011,-0.001446498552734593,0.0006813614239095697
105.7505805,-0.0001527560113806701,-0.00739281321278527,0.006211273774134476
106.2505805,0.004540058885918752,-0.0013483378984367762,0.017548764033341532
106.7505805,-0.03921332751236113,0.010578471264361882,0.04341458143836044
107.2505805,-0.03686024192823838,-0.04086368338007695,0.012728202760554396
107.7505805,0.02985995682558619,-0.01000715958044329,-0.035789574254573464
108.2505805,0.02488534752607601,-0.006015472208261311,-0.04590354512760416
108.7505805,0.01678165047442061,-0.02611089771250278,-0.08960348758562064
109.2505805,0.026982870683973963,0.018197515893951802,-0.025137767160006364
109.7505805,-0.009862399973085807,-0.010706684756036087,0.014334745560670867
110.2505805,-0.011777816029287949,-0.03834256327659844,0.01945332760624422
110.7505805,0.012460326731032494,0.00516765365292522,0.030987198873812447
111.2505805,-0.04365469635851372,-0.055912017325023065,0.022633321360931463
111.7505805,0.01162837127105695,0.012364734225373588,-0.026717626510684333
112.2505805,0.0006044783622124475,-0.03495660982685224,-0.04233944222360916
112.7505805,-0.02477400655956322,-0.04671033844398674,-0.057915924767745236
113.2505805,-0.022248579979488967,-0.028144343903626762,-0.027149669141653662
113.7505805,-0.012970171656545286,-0.056767282297273534,-0.06322850405106621
114.2505805,-0.02933009157376788,0.00010293687940084451,-0.06797001019165781
114.7505805,0.010345957696481958,-0.05696254165176856,-0.11595065543831512
115.2505805,-0.019992275871857226,-0.10223501888376678,-0.17428537172616512
115.7505805,-0.024676361662347,0.051675501861988084,0.03872753511861274
116.2505805,0.015637060070341845,0.013243406364636818,-0.07699422476970874
116.7505805,0.03533433457538946,-0.004742883368760884,-0.05446401145423702
117.2505805,-0.004763593464771787,-0.02851531680586356,-0.08319514838419312
117.7505805,0.05147217390087963,-0.01302193394879445,-0.1286195734442865
118.2505805,-0.046749876110323225,0.05092948057723059,0.04691548684268187
118.75038049999999,-0.051063093256472264,-0.08064506073635298,0.03220636767771564
119.2505805,-0.021199057265477696,0.014643545505154945,-0.0245952726292052
119.75038049999999,0.012123787960337487,0.004652076007901632,-0.13582964333312145
120.2505805,-0.010892047710766756,0.018529310594734425,-0.05012814892748221
120.7505805,-0.006034319492033679,-0.05526681762838645,-0.13879802048429052
121.2505805,-0.020195929658398934,0.005057548867044511,-0.03166518765831969
121.75038049999999,-0.015758991580021295,-0.04739315757109447,-0.12469732506833907
122.2505805,-0.03403530193863913,-0.006324592494952862,-0.021416152059100788
122.7505805,-0.013647542561495474,-0.01540832404024877,-0.09909620080174414
123.2505805,-0.002811623617433369,0.006309220074143358,-0.06345515943291596
123.75038049999999,-0.005399164522054403,-0.007126591333330656,-0.06918623418511806
124.2505805,-0.019580321550715655,-0.02359053800253198,-0.09070759618527663
124.7505805,-0.02424658285112221,-0.006862212975967991,-0.05109767200576083
125.2505805,-0.02447132686580097,-0.027696749268008945,-0.1000321854732508
125.7505805,-0.003641443987231341,-0.002837729963635412,-0.053977812172967835
126.2505805,-0.005589637215526899,-0.035210431261919,-0.11043517304873712
126.7505805,-0.02629615849689226,-0.010138029091255907,-0.06004653109910029
127.2505805,-0.029878872320233434,-0.0048640681040678525,-0.09614416003543136
127.7505805,-0.008263673576421429,0.00353157653360321,-0.04878388165022504
128.25058049999998,-0.007443138122742135,0.001921217278355106,-0.07660987225643319
128.75058049999998,-0.02202649777430445,-0.01635100827542637,-0.0746866295215518
129.25058049999998,-0.001487898409816235,0.014396936242831613,-0.05662831831701119
129.75058049999998,-0.020366776815695334,-0.020048344624552437,-0.09862517514294215
130.25058049999998,-0.011001347427315667,0.03230318920801183,-0.03846612253559289
130.75058049999998,-0.035620992221828573,-0.04025721806525122,-0.11001807360220894
131.25058049999998,-0.06430374967950332,0.05734746936913061,-0.048113166894818996
131.75058049999998,-0.02529459736658719,-0.06870681129136537,-0.10341781493449571
132.25058049999998,-0.017703852810024154,-0.0009661107837617813,-0.0631963033631797
132.75058049999998,-0.02322802899458035,-0.007183242103312322,-0.06235653726915781
133.25058049999998,-0.01018234982601793,-0.003920537447347501,-0.04793352683894932
133.75058049999998,-0.025773529814146316,-0.017561132259480926,-0.08741853683310126
134.25058049999998,0.002824941823415187,0.0041709462818909126,-0.06878976645180951
134.75058049999998,-0.018067113591516668,0.005099742275485474,-0.05846816106958329
135.25058049999998,-0.02380510993660474,-0.037751518594930415,-0.1056467083732057
135.75058049999998,-0.01797083169467722,0.02836816500109965,-0.02479936995134874
136.25058049999998,0.0013456640320443762,-0.034630838442269087,-0.11986881155278545
136.7503805,-0.0058043771265374145,0.024280604316654825,-0.0401024877765169
137.25058049999998,-0.002490048697943861,-0.0167548689130267,-0.17909921107714136
137.75058049999998,-0.01339361857937248,0.03592727335742861,-0.08760197807822606
138.25058049999998,0.001810985332680679,0.026460766525283883,-0.024992065548068706
138.75058049999998,-0.01469488163305615,-0.021590387049410995,-0.040584862715923965
139.25058049999998,-0.053067858126204154,0.00804858737102025,-0.02044529258376252
139.75058049999998,-0.011623932343592219,-0.033828395553758515,-0.047653188176371125
140.25058049999998,0.03757973459797236,0.06862653042673711,-0.09204916684099525
140.75058049999998,0.018495285882946143,-0.051147209595925974,-0.09995031117414557
141.25058049999998,-0.05556818185053085,0.04330778766940225,0.018706547620762723
141.75058049999998,-0.005178518608511462,0.031693143880237924,0.14196551082882952
142.25058049999998,0.0228718025833711,0.01299470583066483,-0.06789439018957517
142.75058049999998,0.04756516075803889,0.02609157325268134,-0.10627095597207953
143.25058049999998,0.03976453847596913,-0.03218870857784215,-0.06248443833618
143.75058049999998,-0.011227223789617094,-0.008143092140081949,0.004771990034811296
144.2503805,-0.015705542527758753,-0.004840848253480706,-0.004442089068516822
144.75058049999998,-0.008036575369083776,0.011467323416891353,0.045775870005628105
145.25058049999998,-0.012827340357073329,0.016031459018524995,0.01419474140291572
145.75058049999998,-0.01077471721378288,-0.01509515059328134,0.0034589208062783304
146.25058049999998,0.018667435213430453,0.027517094992256127,0.00488620589422792
146.75058049999998,-0.01734097228956373,-0.006330534539208396,0.03825911587614514
147.25058049999998,0.002389785689793972,0.038093543643472276,0.017109639077893934
147.75058049999998,-0.002403290098440801,-0.014089415322027536,0.02012887061227677
148.25058049999998,0.02083357149567988,0.010524614383852222,-0.00870103802236498
148.75058049999998,-0.012531708327773991,-0.055617746115303436,-0.0676887017497613
149.25058049999998,0.03401040500320324,0.017915288735375318,0.028826889113412156
149.75058049999998,0.004081867340341739,-0.0055424480903118935,0.04733063376613785
150.25058049999998,-0.04632606721613209,-0.024840373695131934,-0.003136651828860597
150.75058049999998,0.01915402517958869,0.0025440858687333845,0.03225746457729496
151.25058049999998,-0.0023616538818916327,-0.02460132817597129,0.0002372936059895782
151.7501805,0.0004288267001103199,0.001231673557695528,0.022306439649944883
152.25058049999998,0.010638830482489137,0.004755548650179705,0.0001014603994420113
152.75058049999998,0.015445688411652565,0.015737626618163143,0.026327950520617923
153.25058049999998,0.010597471531098756,0.028731414634266993,0.01944113796211446
153.75058049999998,0.005707246229786368,0.019571646519158666,-0.035329419250228616
154.25058049999998,-0.00980066691568183,-0.014897536304632954,0.019583779998355103
154.75058049999998,-0.011015749851154687,-0.02068902630658402,0.03836212353456372
155.25058049999998,0.00029876609473574703,0.029366908740783012,0.046498791369928766
155.75058049999998,-0.018736754485609033,-0.03282956243692765,0.016652508041940798
156.25058049999998,0.01626514385090889,0.009364857226161944,0.024264347408645418
156.75058049999998,0.007823375664312964,-0.00599754796552784,0.024835961409481702
157.2503805,0.02661352341000756,0.06605014603830754,0.06184266920172699
157.75058049999998,-0.0038129121576209596,-0.07123048603693,-0.009797927102533062
158.25058049999998,-0.013715043995005855,0.03245018000757328,0.013172779414029535
158.75058049999998,0.025308205650458417,-0.053878336202504776,-0.17352817213163796
159.2503805,-0.03860991902000869,0.04118896262879811,0.1852372821568949
159.7503805,0.01236447986694068,0.0010613017960917855,-0.03684415428985823
160.25058049999998,0.012264197807257994,-0.016139629605158426,-0.03703614404191233
160.75058049999998,-0.013197035856524058,0.08040617558354198,0.1314756829871282
161.25058049999998,0.011403685127153734,-0.010793686621451571,-0.03855116530336989
161.75058049999998,0.05457119439312685,0.05960160625522629,0.09051172224069273
162.2503805,-0.03823852107984266,0.006862891436123041,0.20913671679756363
162.75058049999998,-0.06531367292362716,-0.021668745878705695,0.165516529938567
163.25058049999998,-0.07437587205066688,-0.00872193351888602,0.04638314609813645
163.75058049999998,0.024206855834212018,-0.009398290136271269,0.03240282947610387
164.25058049999998,0.008473695875625185,0.006875194667819455,0.008641068384636038
164.75058049999998,0.032785777604715786,-0.0013199668945300487,-0.09299579663638864
165.25058049999998,0.04743678744520059,0.00723381886053843,-0.037630366534419084
165.75058049999998,-0.018361202249505767,-0.025220206575983742,0.04541449342780286
166.25058049999998,0.12612808699896408,0.13139983687081938,-0.06621001729993493
166.75058049999998,0.11703105293629593,0.020231185345679314,-0.17071036902707834
167.25058049999998,-0.014884735500107686,-0.13028141018326866,0.04947180990017053
167.7503805,0.00231005504212534,-0.0020054010159925124,0.0035988421808025254
168.2503805,-0.015599951558221468,-0.010439743889711557,0.01591377779951711
168.75058049999998,0.0037898903743461454,0.003927634926680991,0.017987774469991242
169.25058049999998,-0.027166784507002145,-0.03964032170126842,0.028392019433688458
169.75058049999998,-0.07344542996935993,0.008506945991114036,0.03165340053186845
170.25058049999998,0.059538572725642246,0.01702730008804476,-0.07288475827538417
170.75058049999998,-0.013648251463585503,0.0336430981613808,0.0752182341564051
171.25058049999998,-0.042025057859430594,-0.04802359243882649,-0.1058499678190489
171.7503805,0.028289253789313813,0.05846786669049291,0.11465021653453208
172.25058049999998,0.046165832831392146,-0.052709049358247044,-0.14241486149172766
172.7503805,-0.07020421628096797,0.010028087085558725,0.04546216826126972
173.25058049999998,-0.01570547755474719,-0.020691417093425476,-0.007428294226165064
173.7503805,0.02755968972879191,0.04563020584063231,0.020352186435171945
174.25058049999998,-0.019313634525635066,-0.035700869226042584,-0.06716082671479795
174.75058049999998,0.0005704244276676781,0.02468533529431272,0.07636472515622732
175.25058049999998,0.012734270279601499,-0.0034855125560016385,-0.04466244092002618
175.75058049999998,-0.004084507439881655,-0.008526319541666123,0.009247795367972158
176.25058049999998,-0.0021002439056320606,-0.008074161368795843,0.008298926000300244
176.75058049999998,0.0028979162754838193,-0.006491640630307469,0.015487379162819035
177.25058049999998,-0.00792559673080754,-0.012970984420855845,-8.480370350667413e-05
177.75058049999998,0.009550939925552629,0.006902976200781358,0.011423990251521672
178.25058049999998,0.005293968082944843,0.009822185136459834,0.006808985249772038
178.75058049999998,-0.004887897717655521,-0.0018448146445641544,-0.0004259990350874616
179.25058049999998,0.00032169209427410875,0.0037577906315336674,0.013703559370601737
179.75058049999998,0.0060696077809791514,-0.01860283847422851,-0.03325991117101493
180.25058049999998,-0.008847033573434944,-0.0002900754152273864,0.02195312854269683
180.75058049999998,0.0003095450009323319,0.014630934515904,0.012746141067306684
181.2503805,-0.0006328768686628523,-0.023640324111127695,-0.020924370547521973
181.75058049999998,-0.014515200570195685,0.013252610103370028,0.01401268865317592
182.25058049999998,0.009245186731252979,-0.00013893290795522297,-0.0021875987783670824
182.75058049999998,0.0029373170515174375,0.004236638490786051,-0.0011232408956364922
183.25058049999998,0.008676456954359976,-0.011930512940586167,-0.016491202834810856
183.75058049999998,-0.006367167612867458,-0.00040570039667984934,0.00016217127038416101
184.25058049999998,-0.000972348864080898,0.00034520642400644256,-0.006369690738569969
184.75058049999998,-0.006289284999222821,-0.00553538507715303,-0.011894734562696603
185.25058049999998,0.007463473125760436,0.017508160137774124,0.02016892211984966
185.75058049999998,0.011222724319795263,-0.0014499484864331752,-0.021940690378173696
186.25058049999998,-0.001394049234200907,-0.002141246233652706,0.005511540376210556
186.75058049999998,-0.024707941028520572,0.004742971091436429,0.012987062384170982
187.25058049999998,-0.028621731473509878,-0.030934419652160674,-0.038962913616542284
187.75538442156864,0.013827637659226366,0.07073837990233764,0.08944781303342558
188.2555805,-0.008720192345865903,-0.014619962731152705,-0.029902442082728433
188.75058049999998,0.012498358149446897,-0.014872517920987585,-0.03498303583050023
189.25058049999998,0.00010065420464507086,0.0965230318525395,0.11737964526280589
189.75058049999998,0.02790439830954507,-0.15247967938904966,-0.1860797345720953
190.25058049999998,-0.01167686146987016,0.07748206369522447,0.12051572574787352
190.75058049999998,-0.012901831769712522,-0.00890245152534907,-0.032204555713867045
191.25058049999998,0.000113354370046286,-0.010079041479029377,0.004087160314217885
191.75058049999998,-0.00041861509049412457,-0.0034403403054484864,0.006490909761705445
192.25058049999998,-0.003032200426922128,-0.020099009617317535,-0.029025460362233347
192.75058049999998,0.008807492725648243,0.01787289168311475,0.027981608365914387
193.25058049999998,-0.006807267012461691,-0.027087390565572533,-0.033906854949573705
193.75058049999998,0.0011991905608149907,0.009666679697002306,0.028833170505622684
194.25058049999998,0.004713655609101668,0.001334311612606927,-0.014351832001358629
194.75058049999998,0.004060578764825259,0.0013858068719431126,-0.000646554703016592
195.25058049999998,-0.001282879238083006,0.0008495260674706578,0.0019391278795754569
195.75058049999998,0.005107712453281724,-0.007172681513221903,-0.010353565570571337
196.25058049999998,0.006832100765925023,0.0064376854117784935,0.010373325725554619
196.75058049999998,0.002372574933013551,-0.0019314956208028894,-0.008852665640745452
197.25058049999998,-0.00798825865742586,-0.0037827269147407954,-0.0030971692276824457
197.75058049999998,-0.0022292416134625046,0.0019481810292840285,0.005933748759103183
198.25058049999998,-0.002378767736955296,0.0019874481609616617,0.00147407777843975
198.75058049999998,-0.008288834973001594,0.001151220026293038,0.013648234298947902
199.25058049999998,0.010021434348022877,0.006165380254706171,-0.009904927791936689
199.7503805,0.0006603514756624786,0.0020003004425682676,0.0033492192854449585
200.25058049999998,0.0004634584866004348,-0.0024259663689434217,-0.005737088980345993
200.75058049999998,-0.0007688162349018591,-0.001179102702362986,0.002143918555126712
201.25058049999998,0.004922906191943545,0.005402238683183812,-0.0017721031434178678
201.75058049999998,0.002394334387438781,0.004816366689263265,0.007595725065476284
202.25058049999998,-0.012606883507870257,-0.004339972507295886,0.0027878231879282043
202.75058049999998,0.004838553754451382,0.007478385271761055,0.006202663590015251
203.25058049999998,-0.005299227131078503,0.0005389782117367524,0.0029529593589721474
203.75058049999998,-0.020007494736908264,-0.00029525029132917465,0.02247137579281638
204.25058049999998,0.011640594524183675,-0.005058226433785317,-0.022621228969273193
204.75058049999998,0.0073715631026513885,0.004576886726459411,0.006451492252059468
205.25058049999998,0.0017887368700545256,0.0039343636073427505,0.0021177544049549406
205.75058049999998,-0.006537110477310691,0.0014935075572405096,0.0052453359379809085
206.25058049999998,-0.02264906125679199,-0.00037930761388074914,-0.005452739793750871
206.75058049999998,0.004732767783000573,0.02205362869481903,-0.008169559087104004
207.25058049999998,0.011085714081263565,-0.006471166873244467,-0.0029096951875861375
207.75058049999998,0.016169105228957942,0.007505496906250827,0.009440847793901481
208.25058049999998,0.00044961669806250576,0.0028440098405562698,0.0003420716138883831
208.75058049999998,-0.0008443906220269885,-0.002933468440200487,0.008565426852886186
209.25058049999998,-0.001794980067627892,0.0008785573820017348,0.000738943127232779
209.75058049999998,0.04548898443771567,0.0030171008272045653,-0.022087731902733946
210.25058049999998,0.006457934967280139,0.026765706119984044,0.00802961917897912
210.75058049999998,0.10296731643100115,-0.00777902313020384,-0.024489455407964104
211.25518834313726,-0.0075599740974337,0.2439838711295169,0.03683948080718892
211.75537641836735,-0.12294231622110788,0.4611738311890693,-0.003359807986212928
212.25058049999998,-0.23970578521418787,-0.22550492558991497,0.008867600950627927
212.75058049999998,0.020667624479092803,-0.38702790307000273,-0.014134549227621434
213.25058049999998,0.026283446566300276,0.07219874932675699,-0.07880583929641849
213.75058049999998,0.200981586952167,-0.06709375635260194,0.0951637269414739
214.25058049999998,-0.006118379185178072,-0.005368249555475915,0.006378013962589749
214.7503805,-0.031552519072617746,-0.004464796317661744,0.008450653315277244
215.25058049999998,0.03391133959920283,0.011871776089926827,-0.007984407995612404
215.75058049999998,-0.044964720544872376,-0.005110241921769006,-0.024572359029603006
216.25058049999998,-0.020143586200171936,-0.008931145434144229,-0.01838327127470481
216.75058049999998,0.017299707881558646,-0.05187537397730496,-0.10292388509188526
217.25058049999998,0.013818980317272425,-0.0044199845388284125,0.0069271081531618196
217.75058049999998,-0.0491059253971437,0.019548416707222266,0.03921051647171059
218.25058049999998,0.005093630586271378,-0.0048179655725415806,0.004447846434473145
218.75058049999998,0.002366796078802252,-0.012222513188744209,-0.01240687719281289
219.25058049999998,-0.001291059658521793,0.00017530462127600627,0.004212320965460881
219.75058049999998,-0.006237912782176285,-0.004275581790319682,0.021240028318364995
220.25058049999998,0.0041748344582879906,-0.0023877137423074265,-0.0067594440390233105
220.7503805,-0.008160809818183231,-0.0045934240459948724,0.06827364134194876
221.25058049999998,0.002513417006396175,-0.008581334814672593,-0.006079328442142638
221.75058049999998,0.06262793102517596,-0.031451975322136866,0.10056962608044653
222.2503805,-0.11819747639969438,-0.05202752122935637,0.1487666735358996
222.75058049999998,0.006390127590531913,0.07334117533267799,0.30368099404734306
223.2503805,-0.07045755748948535,-0.0824483906696854,0.7103090895570388
223.75058049999998,0.062280338027151334,0.2650959987870571,0.29880603432262887
224.25058049999998,-0.031933623715529894,0.2912224205864859,0.8224237515096645
224.75058049999998,0.15612180763354802,-0.15935825882875698,0.8742995442588861
225.2501805,-0.24711402366182977,0.15532227621354258,1.4453240504257212
225.75058049999998,-0.1807227459304561,-0.07226077947610325,0.6813773356201877
226.25058049999998,0.10826794153550191,0.07347494667243884,0.09618693948468049
226.75058049999998,0.07070521535445304,0.13359706903923005,0.21284161968843227
227.25058049999998,-0.08775688725719669,-0.2531087318904734,-0.8505495245982472
227.75058049999998,0.10870798634192307,0.02179707656761565,0.378547235628826
228.25058049999998,0.06604507828781118,0.03499959827361412,0.10174921024644634
228.75058049999998,-0.07272962718308626,0.04550754464604782,0.3359435463082545
229.25058049999998,-0.1918058324899565,-0.056258911803130494,0.5853446197749251
229.75058049999998,0.3820930070445725,0.37007504639909145,0.20596303239688712
230.25058049999998,0.21211913291790657,-0.4609424496377116,0.05994537750288547
230.75058049999998,-0.1983026648112936,-0.16569343592179644,-0.2482871182713089
231.25058049999998,-0.008841096691724766,0.16814088748041933,0.30989331757762634
231.75058049999998,-0.19265301740555704,-0.14544410471907943,0.04003763347452072
232.25058049999998,-0.5711615193868106,0.6456411682948776,0.3081880695350886
232.75058049999998,0.26864984315485757,-0.17744715377805936,0.12489313947040427
233.25058049999998,-0.28342406290985356,-0.10101288476530225,-0.3459222930226868
233.75058049999998,-0.07833033830899269,-0.11292035421310867,0.16313589709995505
234.25058049999998,0.21807991382212502,0.14193847992090775,-0.020930826312582633
234.75058049999998,0.06004864897636563,-0.014651082125558976,0.0951846871671663
235.25058049999998,0.03571701805634091,0.031561797158586535,-0.31152106075874186
235.75058049999998,-0.0005172330015017979,-0.08007954415556971,0.15829383391697832
236.25058049999998,-0.08611842640839727,-0.07380436004085236,-0.38344789097739435
236.75058049999998,0.1917133227347254,-0.024341529065800477,0.4647473550898313
237.25058049999998,-0.22894879504329746,0.061367130949948306,-0.36830038836013357
237.75058049999998,0.29517573810127556,0.10464480221950699,0.5254372421926384
238.25058049999998,-0.4429183608554251,0.03658702510870586,-0.5872853286768224
238.75058049999998,0.2685133875043231,-0.03284433939544438,0.20871625210054723
239.25058049999998,0.040458604781880306,-0.16436122188003988,-0.5500944136642776
239.75058049999998,0.09437063652381188,0.08018842956262046,0.919219790667148
240.25058049999998,-0.5528595636897345,-0.13059826706962974,-0.4171573757696487
240.75058049999998,0.24002860591404765,-0.04266453405597256,0.47432045228100345
241.25058049999998,-0.17369931267404645,0.12414032799304091,-0.19540404078545598
241.75058049999998,0.22591121559849928,-0.14720935785568767,0.12704463185054693
242.25058049999998,-0.1187032324681931,-0.0609307555614407,-0.4224017877727373
242.75058049999998,-0.07773825597295456,0.06314434201837897,0.4752358951672725
243.25058049999998,-0.008609051478894037,-0.08700754995043354,-0.2838734974476431
243.75058049999998,0.1754723418782512,0.09768071614911131,0.37938375822486053
244.25058049999998,-0.11587328182818422,0.02331441147691663,-0.45315329665917814
244.75058049999998,-0.12357277525165632,-0.18500427172116113,0.17588561913409187
245.25058049999998,0.11746983257167766,-0.05411286996737886,-0.06234069428326571
245.75058049999998,0.1809028135817822,-0.011095955630519025,0.25081982691115506
246.25058049999998,-0.08317926317542033,-0.13786295736611343,-0.05745627337115118
246.75058049999998,0.08900587075537679,0.4869853512949276,-0.02399086829897276
247.2503805,0.3975047179402688,-0.19329533938820287,0.041946545256558554
247.7503805,-0.07513451239406195,-0.08977463865446055,-0.3161906556141341
248.25058049999998,-0.27717104374422163,0.16295487036200618,0.2776295451806169
248.75058049999998,-0.2052887802098468,0.2979057869554144,0.05195137929768717
249.25058049999998,0.1173678888024437,-0.24738335621182844,0.41589401213650296
249.75058049999998,0.0919640571953241,-0.639913021863147,-0.4253870176083695
250.25058049999998,-0.13770658782186548,0.8954227896726422,0.4797011567238506
250.75058049999998,0.22050396230744002,-0.1973870676041172,-0.6640411990767329
251.2503805,-0.14670994874046245,-0.05694145671042115,0.5409505013373753
251.75058049999998,-0.016371726165638614,0.03546923850320602,-0.24055991560117987
252.25058049999998,-0.05515909605680359,0.18195570535571867,0.2197765373111026
252.75058049999998,-0.20708109576620942,-0.35973670677404285,-0.42304477879091296
253.2503805,0.23711037740283744,0.13590616483254636,0.3850947727821994
253.7503805,-0.24293063674039772,0.01512021916227141,-0.2889818373064084
254.25058049999998,0.15171511175457775,0.0194763826307255,0.3365041243261871
254.75058049999998,0.22354926392164715,0.8721565611741702,-0.1641771242336626
255.25058049999998,0.11150014006210246,-1.1363696990121241,0.5487422298593952
255.75058049999998,0.17038658636423196,-0.07838794837326832,0.22972484774050966
256.2505805,-0.368573178604603,0.14617430127823938,0.66508454143545
256.7505805,-0.20865085006707665,-0.008709828053481559,0.09936007539943814
257.2503805,-0.2500355055966542,0.04903658642742046,0.16632645095095985
257.7503805,0.1445916559045006,-0.22324893800969922,-0.0766292191366818
258.2505805,0.25886908949447207,0.10744895570869842,0.24710912373471022
258.7505805,0.22618285119338957,-0.1303605465760009,0.09997637466875067
259.2505805,-0.17074174149683302,0.2657762934342028,-0.19665030184625384
259.7505805,-0.1596655626464326,-0.09146644786077669,0.2865277458882222
260.2505805,-0.046932663860515304,0.08073496348685566,0.14658568924126597
260.7505805,0.11928398453331762,-0.15131056089655834,0.33659224184690323
261.2505805,-0.03346535324757152,0.1059471603412189,-0.2988821862013665
261.7505805,-0.02862397599617072,-0.10385092814689471,0.28340403511163254
262.2505805,0.019542523565585564,0.07038440636476867,-0.328035734539178
262.7505805,0.17603972190924302,-0.11766883262878106,0.17047530227973381
263.2505805,-0.11708665104732485,-0.02650772727831149,-0.2701009383426622
263.7505805,0.16862546652881377,0.06797890309006151,0.3808848944696074
264.2505805,-0.1523575781599329,0.19068566081690064,-0.814823407456399
264.7503805,0.1644285956461446,0.050562922335514626,-0.2701379511731868
265.2505805,0.19804890460816796,-0.009303124241738481,-1.2391681890985804
265.7505805,-0.02568768941801783,-0.1401411119638983,0.03638110942105258
266.2505805,0.07960527513509584,-0.0757820031415228,-0.27782179223735964
266.7505805,-0.10413044960313565,0.016668758833594505,-0.006580507155559931
267.2505805,-0.030579543014951267,-0.09929930481865445,0.06473787126171818
267.7503805,0.05489603329030324,-0.13413527596504962,0.08280805771043089
268.2505805,0.00626627082567773,-0.23255724691072402,0.07422503121169673
268.7505805,0.04682530866827442,0.26948367082250674,0.0015451509846468392
269.2505805,-0.17099252890953398,-0.15744060723692674,-0.0553620757683156
269.7505805,-0.08806645230098187,0.15254623264374192,-0.20407932205712606
270.2505805,0.06983512585463912,0.5617113595628213,0.18211971188635823
270.7505805,0.1816542063242497,-0.18120212305837652,-0.21549002327530267
271.2505805,-0.021343717666250914,-0.13123918862697728,0.2401193236504714
271.7505805,-0.19403854269730583,0.055365257358041674,-0.2971960804484519
272.2505805,0.30535019723797413,-0.04374867789871369,0.310665978605332
272.7505805,-0.3641314307411452,0.04568881306505503,-0.48684325879700907
273.2505805,0.23871094443748941,-0.34690360512498847,0.3113139790723428
273.7505805,-0.1283045174165194,-0.03583582237137493,-0.509464043152378
274.2505805,0.19157621543564873,0.07032589748317251,0.5701202001593653
274.7505805,-0.3132495564982966,-0.08701744780014557,-0.4175737423925282
275.2505805,0.11164929885356552,0.07672800568091019,0.4911656389206207
275.7503805,-0.07305234566014775,0.07242030658135376,-0.5621690060128652
276.2503805,-0.002309512371265522,0.07475797802774652,0.4107749622807939
276.7505805,0.16200636806222213,0.010910294775914646,-0.08947091307254826
277.2505805,-0.09749309245645721,-0.1607001473437464,0.21360631464801544
277.7505805,-0.03629137001176565,0.10369777552743376,-0.12193080298574537
278.2505805,-0.04025755326761057,0.002531234158502078,0.03483441592180821
278.7505805,-0.0681968160823358,-0.06615584349280174,-0.08780193788386594
279.2505805,-0.007711386408113812,-0.09698958462860892,0.31198575546958246
279.7505805,-0.008301634176299455,0.07394038113372893,-0.2427078702266106
280.2505805,0.07074409981877958,-0.0571579792264512,0.06027393818781729
280.7505805,-0.010491326613160455,-0.0516976836494785,-0.02919866891250674
281.2505805,0.04925815440191657,0.06594552736626548,-0.06401234812517624
281.7505805,-0.15653117305458725,0.13395641042885587,-0.09339275870837423
282.2505805,-0.01708253570788681,0.0005293371902963528,-0.14679142790977678
282.7505805,0.11957492105716777,0.11363572955177424,0.3429121909391615
283.2505805,-0.10928350747753318,0.30937699233821514,-0.39265436150856375
283.7505805,-0.12676917225343104,-0.1816415627245101,0.5073899815658672
284.2503805,-0.02866837086792031,-0.1737979110512304,-0.8549135691563525
284.7505805,0.39378168979490025,-0.03821957527585786,0.6164034697586002
285.2501805,-0.141297927240301,-0.003944048009563658,-0.4255373835770223
285.7505805,0.16295815277570305,0.2622041528140805,0.4422482648760094
286.2505805,-0.10968404190617638,-0.05834578959557275,-0.3941220368667782
286.7505805,-0.01069683811373404,0.17452802329930153,0.35286332092375006
287.2505805,-0.008232158708297483,-0.014535605877754989,-0.24522775241873293
287.7505805,-0.000102372685979909,-0.04633928972759456,0.30382264474460696
288.2505805,-0.01657638820288663,-0.05216973310545672,-0.18822198765130538
288.7505805,0.11104834648467836,-0.14935177291128654,0.373361943272563
289.2505805,0.45039024869658506,0.054743003364107985,0.4324727223987053
289.7505805,-0.2967248563801901,0.9236500300145871,0.039157999005203205
290.2505805,0.08997206237338029,0.0827471639918878,-0.21924295603154095
290.7505805,-0.017169676818906614,-0.16134966352294278,-0.28868343163420807
291.2505805,-0.2513696825459865,-0.0073847222342133725,0.10325336392341283
291.7505805,0.3940577365846276,-0.013621797756427396,-0.27167609337268045
292.2505805,-0.36195845726497394,-0.1810891756641314,0.18562257956492748
292.7505805,0.36367963444486034,-0.40218092697435054,-0.5324696383935716
293.2505805,-0.2334873398316838,-0.04467386762585848,0.13085634772044125
293.7505805,-0.336085080834076,-0.2966232915078933,0.13168835971906107
294.2505805,-0.04826867478809296,-0.14482738496781486,0.06263577019582782
294.7505805,0.14059484222635962,0.007674307978935926,0.028681491191912836
295.2503805,0.05891901454171055,0.09448517253423995,0.03162648109469615
295.7505805,0.06265416354231274,-0.030765341017263345,0.14945497694116078
296.2505805,0.020722659261095927,-0.04416418249916791,-0.3387706179000294
296.7505805,-0.15659348121445585,-0.038946074513603206,0.2028739101431284
297.2505805,-0.13992387600211212,0.05788314137048692,-0.2566874322591734
297.7505805,-0.11203066420650462,0.3852731528355612,0.47168418604464435
298.2505805,0.087125330124597,-0.18835752710172493,-0.18252731814380865
298.7505805,0.057175408425049576,-0.2723754738517014,-0.1206261356630545
299.2505805,-0.14378072436787645,0.3346375987090076,0.09113347268014169
299.7505805,0.4571618039207789,0.19557280655570447,-0.24861274838257177
300.2505805,-0.21361962575315538,-0.09452316872932098,0.13275916849626604
300.7505805,-0.09046790123136633,0.009393560876014362,0.013277417249770239
301.2505805,0.17590805957442118,-0.009537169375365164,-0.2527984227225797
301.7503805,-0.13274446011498,-0.30890152183848335,0.5256223318367204
302.2505805,-0.0376201848945692,0.14717422586432097,-0.18194562534815525
302.7505805,-0.16312343620365946,-0.12337292843271822,0.2787704911028688
303.2505805,0.03991764386569034,0.1064364062976518,-0.27301360748061065
303.7505805,0.12581498431363444,-0.22179695289039525,0.14831287824050068
304.2505805,-0.11261936280203289,0.026929278048514606,-0.3105030504086601
304.7505805,0.017817926092114744,-0.0984430788758501,0.26849724978598044
305.2505805,0.18189078879397594,0.04840775404403923,-0.26807348466088177
305.7505805,0.009335634249906036,-0.023214978749433596,0.43143969702049567
306.2505805,0.15982983426606195,0.031942483049109294,-0.16852989780908456
306.7505805,-0.20761377559748684,0.0625240846218135,-0.11923911318325603
307.2505805,-0.05892275235674543,0.11327256626459051,-0.41019372477598864
307.7503805,-0.02241553212599648,-0.12737133224922892,-0.2253177757080726
308.2505805,0.1674803007730564,-0.00039344072727190595,0.6581527807697687
308.7505805,0.2838183891367121,-0.11263596859662771,-0.09858415381387502
309.2505805,0.14149006586802304,-0.236559784576062,0.09981536094535583
309.7505805,0.35758622903634846,-0.04823996824717175,1.2441851924585092
310.2503805,-0.017609438424791676,0.43494976614888836,0.7294188891800197
310.7505805,0.2436355977651896,0.26385524548984585,0.07034932689550058
311.2505805,-0.12861481709093817,-0.02105155127918472,0.5761902458493193
311.7505805,0.0037120977069297735,0.05378963398513823,-0.5248986728149136
312.2505805,-0.025494278496160528,-0.4863746977039734,0.7184829034672897
312.7505805,0.11648130739985235,-0.0645484305822787,0.3906087723538944
313.2505805,0.11677634280798672,-0.05902394023837419,0.12539459559382968
313.7505805,-0.029778442828106294,-0.10496565611997422,-0.20777212216215252
314.2505805,0.12213118885292268,0.4122350024327034,0.5998152811975593
314.7505805,-0.09800437675956704,0.3216504459404319,-0.5621688758508718
315.2503805,0.05308828029519847,0.29926505309425616,0.13542423181174068
315.7505805,-0.19847795137328458,-0.45769691911640514,0.3039762148156779
316.2505805,0.31397376717400804,0.19317772440102765,0.48609567817328253
316.7505805,0.012900234101698525,-0.20017925316146715,0.3478730705906639
317.2505805,0.014157382620328342,0.2556641137796934,0.2394892206652108
317.7505805,-0.013462668038454244,-0.2670339481955317,-0.10060762778021445
318.2505805,0.030688296231880994,0.2161467835996157,-0.089654471824613
318.7503805,-0.07691917228382456,-0.2747752685584072,-0.18082328265819395
319.2505805,-0.04239826487629758,0.31723645292649105,-0.3160859910912033
319.7505805,0.0504516711076735,-0.13813558236754678,-0.11186961613784792
320.2505805,-0.1417900054916329,0.1261183189611182,-0.48736786478497834
320.7505805,0.2542497096911483,-0.10469288483343528,0.12452025120656267
321.2505805,0.0030202488825321477,0.06732992129620881,-0.3167077377118001
321.7553844215686,0.03893327273713057,-0.06270117695599818,0.09341673994337843
322.2555805,-0.15597167492421635,0.014519840478188386,-0.2495017258352974
322.7505805,0.43766706709254827,-0.12259101919251818,0.22207503546906993
323.2505805,-0.4669736178750364,0.022536121747243208,-0.23567196977730917
323.7503805,0.19379230123763647,0.04730009990086645,0.28320736232404026
324.2505805,-0.17168171535152482,-0.09310980987971484,-0.3154038070909501
324.7505805,0.057030527145853036,-0.04110004881153212,0.3399112054174715
325.2505805,-0.15017916312531046,0.1134899552244174,-0.3444289620756242
325.7505805,0.1343972932892549,-0.10245911696947844,0.3720476499198824
326.2505805,0.1341683862881482,-0.08644776657865527,-0.08097360171572456
326.7505805,-0.054505975748462936,-0.07411560649142422,-0.00951694114735812
327.2505805,-0.12958458122888716,-0.09645179757865922,0.04850188774669148
327.7505805,0.2706275665486891,-0.3825586654144765,0.2645111443821689
328.2505805,-0.04660036450831507,0.30643658923071565,0.6720958296716262
328.7505805,-0.013890001827850482,0.3426331638302244,0.309661044440059
329.2503805,-0.0749426865140668,-0.006933978041556119,-0.20580102398722416
329.7505805,-0.10848985899547506,0.1733424671956328,-0.8576233201977975
330.2505805,0.3776927708564959,-0.1432286266646087,0.167914669708498
330.7505805,-0.18273445526123772,-0.04341140817778727,-0.43348451817923817
331.2505805,0.1323740482833119,-0.015908344527596652,0.24132150829498106
331.7505805,-0.21482994748325865,-0.01004127623574683,-0.45778079977670577
332.2505805,0.09547610320048973,0.27756591371948447,0.4252360321841504
332.7505805,-0.24398416423125313,-0.32969462987490117,-0.47978382779537077
333.2505805,0.293942169258866,0.013219664587222887,0.6271489509464618
333.7503805,-0.15818894355653393,-0.06092997838658967,-0.0237517141848871
334.2505805,0.03584793151834985,-0.039773082133269036,0.16394373334933401
334.7505805,-0.06882393943626512,0.10955150554572907,-0.2211868296271701
335.2505805,0.1086297489051125,0.06182736540453801,-0.08952726806185546
335.7505805,-0.11759104708717173,-0.11740816681371126,-0.02922689124989304
336.2505805,0.08634058906902183,0.06265777741098344,-0.20636632248561923
336.7505805,-0.01618775647556688,-0.0791174237123239,0.05696356581210272
337.2505805,-0.018418578234376964,0.1601133152349733,0.1049302815592572
337.7505805,-0.2327093266954242,-0.21540488406296518,0.19588415971034187
338.2505805,-0.07979960639136971,0.22574164165818367,-0.47724572462254305
338.7503805,0.19338676257940857,-0.018678975217112873,0.5696481706726376
339.2505805,-0.1362279356410495,0.014285761414908888,-0.2875381491869497
339.7505805,0.29036914021159865,-0.0804031486319512,0.29668799591190165
340.2505805,-0.2604476086180964,0.047393362206295,-0.2962588637740798
340.7503805,0.25318816565788527,0.0648773395752848,0.22254416067676405
341.2505805,0.20465287771822613,-0.07254947813429796,-0.2884951475522151
341.7505805,0.004398546394316527,0.1896505738152308,0.2898841722495289
342.2505805,0.05992969687618013,-0.02984770141857386,-0.10115555795534656
342.7505805,-0.2479660011476547,-0.19519362079068428,0.1678438805514884
343.2505805,-0.10782130608501905,0.0797086767973389,-0.0780899861979223
343.7505805,0.02366888504468112,-0.025428788221659254,0.19820214088030244
344.2505805,-0.12381695360000608,0.14885108199846295,-0.09802114866278082
344.7505805,0.06636001079308002,0.07291849712549194,0.09149959500155626
345.2505805,-0.007450376144130359,-0.3768529330986647,-0.12783054728351606
345.7505805,0.0711393086508077,0.16880993770064784,-0.07522303431017249
346.2505805,0.06519294701813655,-0.03654279687880222,0.2616396157230377
346.7505805,-0.14005123467140893,0.04530251586831815,-0.404329392235043
347.2505805,0.0412791832922112,-0.11535207415677257,0.39868990951176814
347.7505805,0.0859975127196354,0.1171231099016788,-0.40892997376940565
348.2505805,-0.21863745262952733,-0.09413338626668816,0.44070395797488976
348.7503805,-0.05306452150245072,-0.06895058359757819,-0.5588510207879377
349.2505805,0.19218893925766078,0.04720122238135303,0.815849388819606
349.7505805,-0.24563617739098403,0.11939840569653637,-0.5311111642193712
350.2505805,-0.04178663127373714,0.03432192501315831,0.32354756287515474
350.7505805,-0.06792623040926685,-0.02509168713379918,-0.41868910622021516
351.2505805,0.07084365196052615,-0.021525395462142428,0.17304566572746352
351.7505805,0.002791376982688265,-0.18592587582356765,-0.045261536761192885
352.2505805,-0.004696229911642192,0.057162548630091486,0.10672824602683789
352.7505805,-0.15614179239753276,0.04668009470913423,-0.18100341298898623
353.2505805,0.1712227612124657,0.017901084917687188,0.15486058592355215
353.7505805,-0.18538861426184777,0.0061459981221066,-0.04685923630932526
354.2503805,0.09178260139253766,0.023762517677594356,0.09289858834323043
354.7505805,-0.08537274967317822,0.016485367764186562,-0.0032821603462114633
355.2505805,0.08294377262879983,0.047940713533910884,0.10191545325932942
355.7505805,-0.22893654428689864,-0.1830686928339353,0.04746044371114516
356.2505805,-0.05895767902954519,0.1669928470609861,-0.25461121299453454
356.7505805,0.06855449377368833,-0.11160559588151259,0.3301316385420939
357.2505805,-0.039795487950113506,0.3094946232273188,-0.2750190720573111
357.7505805,0.05879088228627153,-0.3572212472730369,0.15911179724239805
358.2503805,-0.12267799022540929,0.13488606207032716,-0.38901519021732817
358.7505805,0.1252067275460687,-0.19579538301888735,0.5804466215695239
359.2505805,-0.21629699755155632,0.16795998729262865,-0.4723109471181007
359.7505805,0.1862945256766937,-0.06248329350535208,0.30977978287130425
360.2505805,-0.22816826994900746,0.11840894367101479,-0.22077710321400768
360.7503805,0.14587021481986387,-0.21931384848786148,0.38034477272423706
361.2505805,0.08188223018990833,0.08155364361252017,-0.40968457870951547
361.7505805,-0.1758022188702678,0.054502601226635077,0.3539218498319543
362.2505805,0.04178025176729097,0.03881708492905153,-0.1608278812875335
362.7505805,0.06055573160927521,-0.09818678854188924,0.10290427607891506
363.2505805,-0.17347804102702258,-0.31434637008222005,-0.09725016756193863
363.7505805,0.15725470567736316,0.21469197243368143,0.20375018226251929
364.2505805,0.008268788779657556,-0.1945863532864183,0.04849930244014281
364.7505805,0.08803113511956769,0.2443294997801367,0.23755782276420395
365.2505805,-0.161842072559924,-0.15339454100377267,-0.1448097927911438
365.7505805,0.13078364926056024,0.3008037322476945,-0.08040012738985784
366.2505805,0.20371468878011809,-0.15525281236021155,-0.23613697957124963
366.7505805,-0.04405547072289819,0.1608941909621535,-0.4294836359160793
367.2505805,-0.051646847515792176,-0.16842473723857623,0.21632262504607166
367.7505805,-0.07319227002469576,0.20734180744557595,-0.3105620529324341
368.2505805,-0.1840004341561147,0.05281965428102056,0.29460464761939487
368.7503805,0.11242676363542735,-0.5108347845970824,-0.6930851088040605
369.2505805,-0.18331200813729495,-0.025518332142941223,0.2638073670630691
369.7505805,-0.08458736612278774,0.0462564327524522,-0.13429376723659142
370.2505805,0.018555302557433113,0.39884451964011697,-0.06548996289810773
370.7505805,0.03882018393722672,0.6286037227254063,0.10695930163963492
371.2505805,0.03130310479763764,-0.2970387331463252,0.22738903643008498
371.7505805,-0.11230104387504487,-0.3667770976733686,-0.38665964022872545
372.2505805,-0.002004471113091594,0.24234479910981502,0.1103959050499881
372.7505805,-0.02445531663457661,-0.08577951169529709,0.43270867998655355
373.2503805,0.08838733890599969,0.04029140082771561,-0.3379937092539459
373.7505805,-0.13781714966630607,-0.037640401162705686,0.1560475585160045
374.2503805,-0.11671019964838983,0.14496282707861283,-0.1398018594986358
374.7503805,0.21616728491468035,-0.22462641751981116,0.5168969136476113
375.2503805,-0.08018590751677941,0.12819638230063563,-0.54438436294047
375.7505805,-0.02995303871679499,0.22274383748093157,0.1376442273093075
376.2505805,-0.10557447071069284,-0.4906812935626128,-0.3415643354266365
376.7505805,0.26058193681585995,-0.04923508922768208,0.3129448097444502
377.2505805,-0.23260872417822637,0.021392441819926517,-0.42252302241760303
377.7505805,0.17105127441226817,-0.03939280119784193,0.4286103818409137
378.2501805,-0.08447176477291453,-0.017921261763145336,-0.2106438198109907
378.7505805,0.0626284174375094,0.019958813931488177,0.02152651512355368
379.2505805,-0.12825068040666518,-0.08909164296798203,-0.017434458092011544
379.7503805,0.04589084319456783,-0.022573248707059405,0.24734741167370486
380.2505805,-0.13193000631988527,-0.029029365412629987,-0.2238279179608881
380.7505805,0.15993676626317896,0.1371261958396832,0.19021191732037834
381.2505805,-0.1836930478325467,-0.18350241039112347,-0.1680759038066202
381.7505805,0.1474568378974325,0.1783870274504515,-0.023290925689814262
382.2503805,-0.052798468636731925,0.10845176657179634,-0.02036957039661901
382.7505805,-0.030701836706229075,0.07894347746468589,-0.038344690113849465
383.2505805,0.04046335688137516,-0.09224414600192872,0.13735653455937605
383.7505805,-0.04292842050093311,0.2086963100352407,-0.48489322997108586
384.2505805,0.05893682512548173,-0.14546285270208525,0.17444749132349213
384.7505805,0.04029591066076788,-0.10227330848364069,-0.037351114297022966
385.2505805,0.22098804998392915,-0.11910544183787913,0.14589602308174607
385.7505805,-0.3304485984215505,0.042959305762585484,-0.4931440380704859
386.2505805,0.15286235746133348,0.05656076787964192,0.31913795965476127
386.7505805,-0.012695703934907354,-0.022881427817419885,-0.1714584183592414
387.2505805,0.07596218198516885,0.06672975680759331,0.10072709658918536
387.7505805,-0.0658338448681527,-0.009628576177327925,0.07014048851551422
388.2505805,0.019714096690819517,0.03758928438153,0.12688269075574532
388.7505805,-0.050730610726597174,-0.11376080623107113,-0.15972545209689298
389.2505805,-0.11722575719452856,0.1493765778013698,0.13713434364254184
389.7505805,0.028523940243648654,-0.1411284696754552,0.0929799840535568
390.2505805,-0.012201461964592175,0.16727159818099216,-0.28941272941011925
390.7505805,-0.07823460461383248,-0.18457661587771856,0.04638834574078477
391.2505805,-0.0507582443210207,0.25038907354599355,-0.15910294526310612
391.7505805,-0.06571674596930899,-0.013722643828160287,0.25523119490620294
392.2503805,0.1170626724906802,-0.15405009228856983,-0.44361093973707744
392.7505805,0.29211049373409465,-0.050889961778720495,0.4369100761025569
393.2553844215686,-0.07296047105950174,-0.07159794926696803,0.0060185012211640505
393.75558049999995,0.12096708578433064,-0.013531146909843327,0.2778294037908032
394.2503805,0.06466847380225314,0.0921664695315563,-0.1910445009968994
394.7505805,0.019728982447598208,0.10170276915420662,0.3321108461691452
395.2505805,-0.002069748715065935,0.03244723660488611,-0.33503125615741275
395.7505805,-0.18956055464889882,-0.04608210217386032,0.0272991630180741
396.2505805,-0.11399780071137317,-0.14056680009682018,-0.07615929060883855
396.7505805,-0.03375947303734119,0.11908241670524329,0.037359643324638266
397.2505805,0.00676936233425365,-0.021970188052882405,0.06063998172674869
397.7505805,0.19615605991991336,0.019468676276141853,0.016823398127899555
398.2505805,-0.15290279619758457,0.04055238490010047,-0.3478598996189006
398.7505805,-0.06852433524694036,-0.011509776417805713,-0.3470802653550367
399.2505805,0.1928761460203393,-0.3074702496689047,0.5839947109435444
399.7505805,-0.10425258639960974,0.22005460452495748,-0.48834644738307637
400.2505805,0.15824120033733508,-0.11916587838201581,0.4826315885632018
400.7505805,-0.19350270807825554,0.20496065398053848,-0.30209414703188825
401.2505805,0.07947992081520272,-0.03384580182444095,0.3896664854437619
401.7503805,-0.07905756516498443,0.10212361833023001,-0.3189471450498838
402.2505805,0.16446033790566342,-0.15526953537534585,0.017444238922693315
402.7505805,-0.1927506225998444,0.1605746436985498,-0.1528772367148639
403.2503805,0.14878666613336947,-0.024593407909812227,0.2646564015068104
403.7503805,-0.08158577629564855,0.02430687428696043,-0.15563226584632486
404.2505805,-0.14414134565267955,0.17897165712869267,-0.17260610850261615
404.7505805,0.1091907997878504,-0.164676939905413,0.3549826529967193
405.2505805,0.12899181928754286,-0.16688558081476262,-0.18928526354786926
405.7505805,-0.35841860338744674,-0.1335514070356852,0.27999554129795784
406.2505805,0.036417556762095425,0.16011871435934438,-0.12437113155354662
406.7505805,0.3771795521272019,-0.24835039859063696,0.33885137862083603
407.2505805,-0.30251371870812593,0.36324175378802637,-0.596443988199538
407.7505805,0.13675256478727624,-0.06838074019581969,0.23309770948880815
408.2505805,-0.13164209884362532,0.022499347303755766,-0.5477889300162545
408.7505805,0.309011367640204,0.012592092704107516,0.7372789478044822
409.2505805,-0.2935824196099696,-0.12619096336594068,-0.40740383254159107
409.7503805,0.03524453916553983,-0.03415944588105521,0.23591621905509508
410.2505805,-0.021377485985325507,-0.024900101223957086,-0.2160841335374493
410.7505805,-0.19220259747473536,0.14240401406393827,-0.12174890432055296
411.2505805,0.08893375024387337,-0.2982399948727435,0.15429928332955886
411.7505805,-0.07111382691065886,0.20101405943831419,-0.01281502676795727
412.2505805,-0.02649183381706583,-0.09054214748911865,0.16705493236845226
412.7505805,0.09918890867087603,0.0916996726875587,0.048440711703485156
413.2505805,-0.15791467328330136,-0.17576351631065779,0.23269040605896563
413.7505805,-0.0684306653051296,0.32952761076101456,-0.48133237541383467
414.2503805,0.09731457193166781,-0.21988494515331422,0.42013972735856603
414.7505805,-0.12644851002011578,-0.17484686631188295,-0.5094260049806939
415.2505805,0.18007176157092725,0.011850242427202888,0.47093339093273523
415.7505805,-0.22801706834679003,0.1982030643498948,-0.34820468986661746
416.2505805,0.2813995889055285,0.034277514893317186,0.5004332385317951
416.7505805,-0.13733576948924553,0.07267784090755515,-0.09505480952774263
417.2505805,0.07306158176311549,-0.006825931302432763,0.2821763356374927
417.7505805,-0.08607786858839937,0.019689629857830862,-0.1545885622130544
418.2505805,0.0572884168623523,-0.1107773706973246,-0.148778899134641
418.7505805,0.06254722116280373,-0.18345594676140237,-0.0006187823806580429
419.2505805,-0.0882254573280168,0.21831798570416303,-0.15279461539921932
419.7505805,-0.15190123367167022,-0.07085565962698294,-0.1145826310408592
420.2505805,0.029340863738061548,0.18341052049824885,-0.5316432066376152
420.7505805,0.0823414241355702,-0.1371279155103479,0.6544234358986512
421.2505805,-0.1294222167281549,0.022485831545208442,-0.09423666025924855
421.7505805,0.11958827710479157,-0.12006243745233636,0.33668491559206287
422.2505805,-0.34405524910853846,-0.08664465278791272,-0.35539122288305564
422.7505805,0.2156109636962409,0.0442115865777085,0.6509668895676178
423.2505805,-0.2741417429048875,-0.1277242763324241,-0.2801699815310113
423.7505805,0.34274541026037597,0.1400083646157091,0.3909954489715035
424.2505805,-0.20209266163441889,-0.020251055790940428,-0.279648371167549
424.7505805,0.20784970977032174,0.3098443922947483,0.22031959003643004
425.2505805,0.2650301701232568,-0.11448965780800961,-0.05338853761119113
425.7505805,0.06770484663606187,0.04101648849975811,0.01808178305775841
426.2501805,-0.04571841142528343,-0.26458171153460147,0.14644940410844742
426.7503805,-0.11635897755015565,0.2344283311241324,-0.14509442026601213
427.2505805,-0.2577931011515295,-0.12263962407653843,0.05952380340364325
427.7505805,-0.08198164765065591,0.15293301122966832,-0.30727332989037204
428.2505805,0.06072708912156051,-0.17403660399004642,0.4866887973962162
428.7505805,-0.09596542118206708,0.028434143223613997,-0.4635382325192161
429.2505805,0.13290618976421897,0.09919637942131193,0.3146492600540716
429.7505805,-0.11340130969945335,-0.07514405891608704,-0.3930388570419703
430.2505805,0.15521769532734034,0.07916852526814137,0.4216538657487066
430.7505805,-0.015988866341502858,0.018458830901400224,-0.15560637666080437
431.2505805,-0.04257117658512815,0.01391321048360891,0.29655459798365963
431.7503805,-0.01877600268446327,0.01987421094519829,-0.1820692876120775
432.2505805,-0.030521991492825497,0.07896325662340918,0.19657135960325836
432.7505805,0.0052692778619778165,-0.10688126755371113,-0.18354518936707304
433.2505805,0.20087825206208523,-0.14209130443753726,0.04499863387615401
433.7505805,-0.047744800540349554,-0.008051194139897523,-0.07336087611965511
434.2505805,0.018809969940156327,-0.02760415923708037,-0.20346954700190434
434.7505805,0.009579706533164263,-0.0742045643443325,0.10957804252144068
435.2505805,0.13753962116465673,0.23923468301403708,-0.07356009516551844
435.7505805,-0.4960057868044256,0.06359058831817041,0.20790639156657117
436.2505805,0.11625140592176422,-0.09359290819543425,-0.4764531564496784
436.7503805,0.06858203133165591,-0.053510891940786086,0.21293128990203067
437.2505805,0.4639469808221463,-0.0855272320076186,-0.19318480419605347
437.7503805,-0.05950379304781232,0.00794184073191623,0.2686481664571395
438.2505805,-0.15610294796315782,0.0630576540817799,-0.22314930645461334
438.7505805,-0.029528859650397497,0.024975379637770904,0.21621941995531063
439.2505805,0.04868987849328929,-0.04789947810292741,0.058603673233810605
439.7505805,-0.22822535239571212,0.10797588190006577,0.05210766142313154
440.2505805,0.08447410093018133,-0.2738579497986861,-0.14426455684443798
440.7505805,-0.01773769956465305,0.2673492126182765,0.04848405869329456
441.2503805,-0.08701837652360496,-0.03429516399140855,0.1923336201469091
441.7505805,0.07009858671048233,0.10055761449491224,-0.08190963879529217
442.2505805,-0.04386785332226477,-0.1538170485218101,-0.06207810232454847
442.7505805,0.2348962266098742,0.06236062541497238,-0.3726632285099669
443.2505805,-0.1717817356217964,-0.03489978877982373,0.29049917388242835
443.7505805,0.12141664822019328,0.009927445319754279,-0.3799321680863003
444.2505805,0.11390921007485788,-0.03081596690610089,0.23825870434940677
444.7505805,-0.24093128339282108,0.01955100973093611,-0.1446097098737219
445.2505805,-0.15992888684946746,0.20851807115170062,0.3538498604383022
445.7505805,-0.0818358830048786,-0.11714582567420685,-0.005346489434268964
446.2505805,0.1528576538747165,0.08665853975740996,0.07879091109304871
446.7505805,-0.051924724034456776,-0.18658162319716734,-0.07174810873435554
447.2505805,0.0019279811611337917,0.07373451314462513,-0.19914072894548887
447.7505805,-0.009770079480202854,-0.013489265796530434,0.34317967319599596
448.2505805,-0.11652589888471648,0.14896637082349595,-0.28014368932604955
448.7505805,-0.12446556299680316,-0.22631703456436525,0.10768674713178913
449.2505805,0.024545241100222052,0.1915804361069575,-0.2900919658341744
449.7505805,0.12562356466685767,-0.13224870396302363,0.3281616442935983
450.2505805,-0.0625021518425772,0.05353642565266731,-0.2372403714705487
450.7501805,0.1054603045457775,-0.04402201676140925,0.26971885852708594
451.2505805,-0.07815210161460877,-0.04951786868500683,-0.05587205356085272
451.7505805,-0.11471052910209412,0.06303304759874032,0.13233583762891074
452.2503805,0.047386714712040236,-0.1044691545120764,-0.17397723386714062
452.7505805,-0.017648145152630943,0.005998307236201075,0.019719734770813832
453.2505805,-0.04914815025118932,0.126529463981843,0.0525828450934406
453.7505805,0.13687231293291977,0.06487838599677738,-0.08307649940127967
454.2505805,-0.12712469501395218,0.0321260254129258,0.27151291628011215
454.7505805,0.006644398177770478,0.13069629866936072,-0.11164910692510598
455.2505805,0.16236346871803897,-0.49905420759359204,-0.017858590420564126
455.7503805,-0.12392523337547924,0.25422508823689094,-0.3193886616319961
456.2505805,0.15039748035378353,0.04525219132857369,0.4577524466529281
456.7505805,-0.2357158238469771,0.0007154223072116766,-0.2846899498625575
457.2505805,0.1577739645056278,0.07097942082567972,0.32899357326136625
457.7505805,-0.06636147438659216,-0.06201734212057729,-0.3367991551029484
458.2505805,-0.08539003026914309,-0.07351616339558077,0.033222106016820165
458.7505805,-0.0048717359936128295,-0.024410149998718107,0.18429543419873362
459.2505805,-0.039992241945962424,-0.03077225152321742,-0.05969921906749533
459.7505805,0.04559766945574819,0.004065547518840516,0.15282700784307274
460.2505805,-0.07374543103536764,0.11646765201472453,-0.16935640089745838
460.7501805,-0.06736065823375427,-0.03413635800825054,0.1603508674296608
461.2505805,0.063547042863036,0.04338444915411317,-0.08170052758783458
461.7505805,-0.13122389741072937,-0.09323171301980246,0.09265528851013782
462.2505805,-0.09582749336990604,0.15834824572162462,-0.36119049251854185
462.7505805,-0.012389439225217862,0.0028934227973269034,0.31035542110144293
463.2505805,-0.00826236186950562,-0.1269959201977731,-0.3057548370311349
463.7503805,0.24552316767625096,0.03389859552258402,0.09678682003133626
464.2505805,-0.207635422149649,-0.21345232149009624,-0.21699207210509017
464.7505805,0.36594522000292945,-0.1340722415192628,0.5021810759672317
465.2505805,-0.32447558419183464,0.1618134750148686,-0.2828664303997888
465.7505805,0.02411895750384582,-0.14215744212596948,0.2527673116185916
466.2505805,-0.10490222333889389,0.10334074307546909,-0.12460656417254266
466.7505805,-0.018116848250617577,0.1147655646526965,0.11094412273281991
467.2503805,-0.07637307650229679,0.16717760561476447,0.050646919062049885
467.7505805,0.013133268253034857,0.15990807699303747,-0.12282898547813816
468.2505805,-0.12322570759380941,-0.0720784073710069,0.01273369348157316
468.7505805,0.014800386426435108,0.34157592039603885,-0.15793351473556508
469.2505805,-0.05330498598537264,-0.31846953329286726,0.046550372293380195
469.7505805,0.05461117530243565,0.1767469159049339,-0.2522556412709051
470.2505805,0.2312828611044283,-0.2932011182075266,0.4220935203733275
470.7505805,-0.10001164922694596,0.18871709923687136,-0.4115048664992761
471.2505805,0.014982286274938856,-0.0702395888865628,0.3738758400829179
471.7505805,-0.13886529043244647,-0.024510726004739927,-0.32412531662874755
472.2505805,0.14755690245850686,-0.041237241906696136,0.17953115353336166
472.7505805,-0.04837899726159801,0.028725156464765204,-0.019543966252624157
473.2503805,0.07279051555184296,0.039209785814760416,0.28452215341528675
473.7505805,-0.08637333299889756,0.01404512630434835,-0.35023862224987184
474.2505805,0.05612499140930054,0.140885049207598,0.0112048488462035
474.7505805,-0.05873315142770404,-0.22524103253604358,0.19672483831064258
475.2505805,-0.10253813404861647,0.23735118416289316,-0.21671582218405636
475.7505805,0.0634800339136083,-0.1068506585529313,0.1165496572052558
476.2505805,-0.024134415096973717,0.10264930530566048,-0.56521244086678
476.7503805,0.011993322373766014,-0.08017930180497021,-0.06763527790202171
477.2505805,-0.08959582800737884,-0.11375036067256411,-0.2618656828040116
477.7503805,0.0694035614752566,0.07938744653183244,0.33604887086735863
478.2505805,-0.15736057244714519,0.20053119698380079,-0.3872596962316343
478.7503805,0.1801961699488791,0.13830026966264755,-0.17511390217181894
479.2503805,0.07497763939285006,-0.0034988721745040563,-1.3028731302462884
479.7505805,-0.03976302332528817,-0.12140964395463313,-0.4383101111464047
480.2505805,0.1746412357463324,-0.4242364441292025,-0.114030572202704
480.7503805,-0.09089934395199642,0.2242834904978589,-0.08950188682599336
481.2505805,-0.11708361668704345,-0.2940494929312736,0.07277744172548144
481.7505805,0.0019170111962441094,0.06341588517725998,-0.28099149922312766
482.2505805,-0.08131352565884872,-0.060018011301149025,0.13118964231690275
482.7505805,0.07359332239696881,0.16390873060180047,-0.19116880071433254
483.2505805,0.03572116732626824,-0.06150520819078232,0.2523900668211556
483.7505805,-0.14930122097104198,-0.0036781145169318286,-0.23797859274779762
484.2505805,-0.08523427856364732,0.0021983848539966653,0.13790032094001514
484.7505805,0.017295538703042287,0.01755875513097926,0.0010419313863280744
485.2503805,-0.04985263434373371,0.06325478031368639,0.27760663435506994
485.7505805,0.1534177342539408,0.024473542367526545,-0.13491922253019456
486.2503805,-0.09796051758915328,-0.07719262290560462,-0.11330192508615301
486.7505805,0.07612991535830996,-0.20341674575814686,-0.1680959190760546
487.2505805,-0.08156616425373452,0.1997092744442486,-0.10604911417241626
487.7505805,-0.011278974189373483,-0.16632615333579612,0.3770237447556988
488.2505805,-0.11638907777358097,0.10637658124977077,-0.2782829009003457
488.7505805,0.18313720613249004,-0.20064174205802235,0.260023790772638
489.2505805,-0.1810164804587944,0.10289856443082851,-0.47707468068666037
489.7505805,0.13728396760260322,0.08082775375842034,0.16079309438543632
490.2505805,-0.11536993203227261,-0.18837069030465706,-0.3825275701959807
490.7505805,0.13359558570723132,0.08945591129969975,0.22322828472825587
491.2505805,-0.06268407753365388,-0.0027557480867448445,0.18153374788195145
491.7505805,0.01196176142291428,-0.1420195174729867,0.025266695934960177
492.2505805,-0.1798173427897827,-0.06242443377444579,0.023748373027604634
492.7505805,0.08647103083409259,0.25338145182640565,0.06274362856949191
493.2505805,0.01050305363606899,-0.16929902563404306,0.2646534721736413
493.7503805,-0.06281600858879711,0.2048007229133689,-0.38189831273490077
494.2505805,0.10800921408058756,-0.07415064847087824,0.3248018957734656
494.7503805,0.049952976660611895,0.1601210131311442,-0.1236714921272312
495.2503805,-0.059355904862632425,0.09906401297959996,-0.19938722363216815
495.7505805,-0.10724481703583782,-0.21078085203887156,-0.165744044686259
496.2505805,0.0936505996531049,0.024871069239378176,0.6041709010314817
496.7505805,0.038751133823864345,0.12146814104810194,-0.1902599401532698
497.2505805,0.30144100240808347,-0.46869838958273635,0.6178762379979744
497.7505805,-0.32005085838887637,-0.05659164912020259,-0.5477961000851209
498.2505805,-0.0695909144877801,0.26798798969324106,0.10190431415078961
498.7505805,0.22940227327035478,-0.27822939293789073,-0.00697377229118999
499.2505805,-0.24813819933898537,0.3612158763152253,-0.12374280017967815
499.7505805,-0.22657815617436325,-0.23485201328559982,0.137896981638295
500.2505805,0.006702264270879297,0.2507359330476692,0.0017167413270837574
500.7505805,0.12541566264941015,-0.2623767794803355,0.25963673677308446
501.2505805,-0.09684188347869899,0.22245933763117648,-0.06797106450262501
501.7505805,-0.06560873928067579,-0.1437602052510894,-0.050954888106950307
502.2505805,-0.025886031437280806,-0.1627912203728243,-0.26654609551088476
502.7505805,0.08667075253284663,0.1926946363395853,0.2034269331349307
503.2505805,-0.060652065459105106,-0.07091755375587726,-0.18331983164584095
503.7505805,-0.01455248195243128,0.013935011304450396,-0.010353448819714084
504.2505805,0.08983221961005454,-0.11995744332758163,0.06689366633666873
504.7503805,0.011130091131765727,0.1097309223294378,-0.10647146944303171
505.2505805,-0.1835056117229567,-0.11325892685261416,0.20435284204718973
505.7505805,-0.06335695898920436,0.276610948104209,-0.2360296286552321
506.2503805,-0.08982551974905711,-0.18830778494626055,0.18256492947838804
506.7505805,-0.09413019371408246,0.021116835921482818,-0.28657884451596777
507.2505805,0.15175685522667176,-0.029237711123311243,0.1510573966502883
507.7505805,0.002820726412351425,-0.1584390799198942,-0.23121611773250997
508.2505805,0.15100815294998124,0.283471221958908,0.3687447874410436
508.7505805,-0.15314611928516197,-0.22377739032800126,-0.10804476562054142
509.2505805,0.031419587537059035,0.11628654215243238,0.27698549748018697
509.7505805,0.050638139034783765,-0.09205681578934126,-0.17114083835157212
510.2505805,-0.0062888156627625745,0.1822063118689482,0.13874060267775595
510.7505805,0.09796749361925768,-0.08534119000372323,-0.12565163418605174
511.2505805,0.19459129132458156,0.15825536306165044,-0.36453814560547493
511.7503805,0.06812342354524091,-0.026924323247090428,0.1870441353614983
512.2505805,0.015567890809496936,0.19123467188265114,-0.17677543664564585
512.7503805,0.09304085336362544,-0.0037917444398333756,0.2915464578423681
513.2503805,-0.020624930057990244,0.06436455849202212,-0.49152676885302443
513.7505805,-0.2011717414244108,1.037008150233655,0.25685262293703937
514.2505805,-0.0679931144558711,-0.4168886256529656,0.07577532060751398
514.7505805,0.06470928618222098,-0.5151972550682562,-0.013926538793833846
515.2505805,-0.030452454953259222,-0.18162824046558726,0.035857275115375196
515.7505805,0.06373042392391001,0.2226184254430048,-0.013988451220784221
516.2505805,-0.07946729516082472,-0.15276780440237592,0.25533502862453805
516.7505805,-0.007219602366560358,-0.02007669385019936,-0.2779654448007628
517.2505805,0.19857402295672089,-0.11767020752056251,0.20054016083567736
517.7505805,0.03427155005944559,0.15940277166870134,-0.2582353890463493
518.2505805,-0.03579234354710572,0.24082080819588075,-0.019054713480397844
518.7505805,-0.0667488552563501,0.42239109682666137,-0.005670375658743603
519.2505805,-0.43401285603798406,-0.6865684081392459,-0.00411756276732
519.7505805,0.3154383242703432,0.03604776298222581,-0.00013268230396884295
520.2505805,-0.017584416643533867,0.17111209986620154,-0.23712462997708322
520.7505805,0.0946940438239336,-0.2588163742484977,0.32082333792789874
521.2505805,-0.07003487048117102,0.35148323487489724,0.1768441769811742
521.7505805,-0.017467782726454897,-0.23040694301151377,0.20172618218875563
522.2505805,-0.11449691558466173,0.28490622698651075,-0.22310219135382797
522.7505805,-0.02307247782080536,-0.07882219276360998,0.23695593505425264
523.2505805,0.006289883154834487,0.1351676970945688,-0.4401709975965886
523.7499805,0.05109552240451846,0.062869459571389,0.1879398795591246
524.2505805,-0.06762451803157216,-0.12042207473326252,-0.2961639140159096
524.7505805,-0.04136025341617376,-0.00891564612296742,0.11120252334673315
525.2503805,-0.054462550511996694,-0.23317251215995952,-0.0476065148615894
525.7505805,-0.07712998999251193,0.12859768582059453,0.41837668909323483
526.2505805,0.04359805864019793,-0.26994818315531627,0.03161713076282167
526.7505805,-0.012772249567208172,0.28013705887913287,-0.2600793579567394
527.2505805,-0.07515064394930639,-0.23433693083088808,0.4064029071335004
527.7505805,-0.02882218763755808,0.1338525678537776,-0.424460588909279
528.2503805,-0.11441953536960088,-0.05164678380255569,0.10904419449795119
528.7505805,0.06893067950793584,0.15803957078648764,-0.41153470820335825
529.2505805,0.07733538648630069,0.009521310059347228,0.18064701200599828
529.7505805,-0.053532604149820064,-0.10348536707832169,-0.35264258012575733
530.2505805,-0.04181013912266399,0.017939263420282497,0.3567682871160828
530.7503805,0.3321827174231956,0.004677596164089418,-0.20203438346659208
531.2505805,0.04464965098781373,0.16002379132983255,-0.04220498740227909
531.7505805,0.03278764524056544,-0.05483454178954968,-0.0669332062826937
532.2505805,0.11799494833518283,0.0791313303579959,-0.0023923604249623453
532.7505805,-0.07758226389679654,-0.14715842345709101,0.07232468496000374
533.2505805,-0.034884055097232795,0.29370426196137306,0.0608654165621772
533.7503805,-0.22171954797166418,-0.30914839266113825,0.2707866072219514
534.2503805,-0.14684033611659583,0.06838496392399246,-0.3314263687114209
534.7505805,0.021522960515550825,-0.1486551328079559,0.4103621637274157
535.2505805,0.03287241512880846,-0.13305318141954128,-0.25508090501596425
535.7505805,0.05947326996612585,0.1814899373396029,0.40264710099852996
536.2505805,-0.0491696522953988,-0.05014019901920475,-0.3328814525423162
536.7505805,0.0074516192432572724,0.2024927365392544,0.44086232674556397
537.2505805,0.0026843698003627815,-0.13146096078434988,-0.16649716557607455
537.7505805,-0.02217100166916461,0.0470424513206634,0.057701819073952595
538.2505805,-0.08311478973078731,-0.2547627438699124,0.020336784398895663
538.7505805,-0.04688754115329007,0.17645083741193474,-0.35652908479835893
539.2505805,0.002697334521578909,-0.17141615199059582,0.3179067953698917
539.7503805,-0.12824375645261057,0.0850163119928752,-0.49951262842357713
540.2505805,0.06122660938734963,-0.13162021228391765,0.5045866655461907
540.7505805,0.019813858549456623,-0.057065597660986817,-0.024004192113177662
541.2505805,0.0019046601601823742,0.1448196126134179,0.2935415453825798
541.7505805,-0.0058859860190291265,0.019329292150291447,-0.2665220160431967
542.2505805,0.1461864687700969,-0.08658998820913916,0.005907504172255711
542.7505805,-0.016363315265620154,0.12901130473879444,0.19199121414945872
543.2505805,-0.06161374107747655,0.21129119433997912,-0.2625467533878655
543.7505805,0.09330510469257833,-0.20911684067193778,-0.12818612343072192
544.2505805,0.07227961675175851,0.20313367886973346,-0.19621440499855067
544.7505805,-0.16957349424926718,-0.16324273930298575,0.3069128825732832
545.2505805,0.04402169961025372,0.19392434822822516,-0.016789638263013745
545.7505805,-0.16188835968881135,-0.2585318223868518,0.25602025573757203
546.2505805,-0.13162848272808694,0.01005251447715533,-0.6346336018400427
546.7505805,0.25665949656219145,-0.03579475861075536,0.27688613898375325
547.2503805,-0.26445227291417356,-0.044946388643828744,-0.26886397509750504
547.7505805,0.1380530074339771,0.2410270554772205,0.4190471988855499
548.2505805,0.04237793649528467,0.011040304962180208,-0.3912122456312476
548.7505805,0.17629946397462498,0.08732030737575243,0.08921118488100874
549.2505805,-0.2135516192479477,-0.1053545572410865,-0.09518786994198798
549.7505805,0.034382784313888894,0.0841929280208165,0.15009870202840475
550.2505805,-0.07891024571749332,-0.16699310715405766,0.06340778682566488
550.7503805,-0.027825802684353463,0.09568723564737676,0.024763165108427042
551.2505805,0.07404236304645889,-0.004958715694111904,0.08922891521069591
551.7505805,0.017353099476420872,0.13682215395568892,-0.23741760347477725
552.2505805,-0.1194395727168893,-0.13106033515696613,0.1953665509301789
552.7505805,-0.08803954024951403,0.1977426710364503,-0.3127886520880753
553.2505805,-0.008546616038200651,-0.3535238732348677,0.41932084969072553
553.7503805,-0.06973319747840914,0.11406484330897954,-0.37879188857356355
554.2505805,-0.06552018311674847,0.24558801124716806,0.502086266699642
554.7505805,0.1135015287461271,-0.02612384252346273,-0.5066517188688355
555.2505805,0.07940187564082471,0.12848026656331507,0.2807214066111502
555.7505805,-0.10865769651906848,-0.011935738963702853,-0.23246646316102315
556.2505805,-0.26787680337580516,0.08135359398757964,0.10529187997923532
556.7505805,0.260105712256948,-0.19096467586233548,-0.00022931048910261874
557.2505805,-0.07086401118677346,-0.16079674340729372,-0.12110657794768333
557.7503805,0.13615217275628,-0.22199253748438214,0.2489152244327879
558.2505805,-0.04447737399906229,0.19258059559591278,-0.15544956155464776
558.7505805,-0.035081542652878224,-0.17684867783750108,0.1509609030557875
559.2505805,-0.14139971655569256,0.3364979233006342,-0.4113735097193622
559.7505805,0.00971151476239422,-0.34610053693800014,0.299065298409841
560.2505805,-0.042701363166867894,0.15366529786945646,-0.46522850211408595
560.7505805,-0.0034496362087415135,0.018607392004724124,0.23998636590406328
561.2505805,-0.17716596748856897,-0.09634616504898937,-0.2979684051584201
561.7505805,-0.026777519872409065,0.13247589359221182,0.5005588760167367
562.2505805,-0.12284443300560795,-0.06101104719942703,-0.3089209052018067
562.7505805,0.06301465435992673,0.03221480539784271,0.07108559261706088
563.2505805,-0.08025312568681711,0.07442897406313113,-0.08342602679686575
563.7505805,0.11719083114678003,0.03328295327297604,0.23399396184810697
564.2505805,0.06791061261272939,-0.1754263871769905,0.06606428209869629
564.7505805,-0.015542473890848512,0.223016921963888,-0.129146430422317
565.2505805,0.016057566189634505,-0.08799992502862118,0.27932989171615397
565.7505805,-0.03157698801609571,0.17643118906805985,-0.2936077157543457
566.2505805,0.0555333216936978,-0.21352248883271926,0.3079984495344838
566.7505805,-0.29590427286759124,0.08024579899455088,-0.5275340118710115
567.2505805,0.195825740198233,0.20772641768988406,0.369687750187117
567.7505805,-0.014993355563892696,-0.1748896863433332,0.17664379851672918
568.2505805,0.0446455779405125,-0.1495312182106342,0.02615239012483758
568.7505805,-0.1110243660838969,-0.008729632014443905,-0.418161756456341
569.2505805,0.09452161114626602,-0.10451693706182427,0.36887608180370096
569.7505805,-0.044666845680421584,0.28774778323492994,-0.16576049052448666
570.2503805,-0.09181459227318112,0.10128861115599129,0.15457195092626513
570.7503805,0.03355369400512079,-0.20316049318319693,-0.2972206209440726
571.2505805,0.07944855405106727,0.06035314808301401,-0.022133682527419662
571.7505805,-0.018840382476040772,0.09842146628903307,-0.09228393554140635
572.2505805,0.10766063272248308,0.19573250440094775,0.17236054547057578
572.7505805,-0.29291156650726435,-0.3281454732382909,0.10220173554599439
573.2505805,0.07188542829279597,0.24731086377496797,-0.11354301121674562
573.7505805,-0.03279147828506507,-0.23198969646675188,0.30869600451744683
574.2503805,-0.0184781751636769,0.038232612690079305,-0.5013308432478827
574.7505805,0.06842444966372067,-0.26167660080308125,0.3245275031163687
575.2505805,0.04802429717097726,0.0733478848795226,-0.17862908857700682
575.7505805,0.06195344821957523,0.0319675082529895,0.3287468255724658
576.2503805,-0.14221624569481706,-0.10209827861287735,-0.3397776191694046
576.7503805,0.07315089592214988,0.11835332221583762,0.05465112504875403
577.2505805,-0.04698932875285786,-0.029637549700173932,-0.14585750658181207
577.7503805,-0.09460723215374403,0.051167766715607764,0.06866722792610125
578.2503805,-0.03622417917724209,-0.15504559326203263,0.046805355000062505
578.7505805,0.033355842886179064,-0.020486480367302117,-0.12635311748229391
579.2505805,-0.05825747936003676,-0.20889581995336903,0.22487247158789042
579.7505805,-0.029602351911175377,0.19709130218951165,-0.17033650032967407
580.2505805,0.015306632269494221,0.027479760397190123,0.29233768073224886
580.7503805,-0.07451676143314957,0.05948710203531122,-0.32217306820728886
581.2505805,0.05183629208979999,0.05318441146055526,0.21884075676569473
581.7505805,0.19021362713756157,-0.17931443108753867,-0.24716320565482586
582.2505805,-0.0035996173470184646,0.3811991599509064,0.05162854819300462
582.7505805,-0.0145775858123197,-0.3576951839741205,-0.27947720478933424
583.2505805,0.013392463848511919,0.12520123434240993,0.22438246644274631
583.7505805,0.25268608808541204,-0.1407238902163968,0.20978541046488564
584.2503805,-0.08423119394940397,0.1866166692763028,-0.12955082323021105
584.7505805,-0.01826805387663254,-0.22488614008671665,0.3182895998478684
585.2503805,0.05483358510966681,0.3023585641736172,0.17652629430529246
585.7505805,0.08135882853543686,-0.1744144342688507,0.0870349150323801
586.2505805,-0.25652249074057354,0.11353309019002612,-0.48377880288406333
586.7505805,0.07591141113550132,-0.23349735200208208,0.4678334761526536
587.2505805,0.0775279494245919,0.06338904596648778,-0.40993013142782886
587.7505805,-0.02011236111493313,-0.07338192658887385,0.2342096685497542
588.2505805,-0.09575017797333261,-0.05620246462676759,-0.4772606262505768
588.7505805,0.13651943518428797,0.05303796453880353,0.3398756175263694
589.2505805,-0.18191029608757045,0.08781302901600688,-0.21484279393827943
589.7505805,0.1190072078630235,-0.012322761600180929,0.3906367241300084
590.2505805,-0.06383199783305103,-0.050946464160980094,-0.12430189529433008
590.7505805,-0.015678104096704434,0.06684620910175165,0.17350043291095824
591.2505805,0.05485822247961236,0.045048673284576506,0.03555959314220479
591.7505805,-0.04522272138318896,0.0848482295720121,-0.28689848384539973
592.2505805,-0.0378599080456053,-0.06974015196728708,0.20690359664423552
592.7505805,0.027439743365310156,0.0919501811837628,0.025624771088267995
593.2505805,0.008472950964949303,-0.09277525516437354,0.3723869666798155
593.7505805,-0.22713853387628288,0.15879450892962385,-0.5427660657040583
594.2505805,0.17861176145964838,-0.15308759377888076,0.3766342348380575
594.7503805,-0.07591231539469306,0.19526215728498408,-0.4933273438531128
595.2505805,0.08290745248525652,-0.17738553845557326,0.338496783619339
595.7505805,0.04061320326384428,0.025286752237748476,-0.3024739952029607
596.2505805,-0.10608434940890264,0.1857218726444112,0.20007923240895528
596.7505805,-0.09194815687498208,-0.010725815324700365,-0.2882368543937248
597.2505805,0.06695718061383,-0.050235926266660826,0.37048047400514134
597.7505805,-0.025243619790165758,-0.07834720712688668,-0.05490962412498987
598.2505805,-0.04468301007657405,0.09825613166367585,-0.14412451282545471
598.7503805,-0.07545650528327735,-0.0745567032991087,0.007956882939722876
599.2503805,0.17441184623915898,-0.022523713220930643,0.019967642111148397
599.7505805,0.1538011953082573,-0.18633618140880231,0.214934242249037
600.2505805,-0.020423130156746235,0.21163861623390795,-0.32020873446932663
600.7505805,-0.04455656092041402,-0.002257412870163884,0.10857203506447495
601.2505805,0.023762545239601876,0.08009439992161456,-0.2588051872223058
601.7505805,-0.10366844298173003,-0.21118268691366246,0.30037210823857063
602.2505805,-0.19068979750862622,0.08377554475132803,-0.2653528120069494
602.7503805,0.15160329969145292,-0.08764590054493979,0.30347457813182
603.2505805,-0.30013380811367635,-0.014874214837252557,-0.4346878304291614
603.7505805,0.1682842939141976,0.008097040932327229,0.4115439126026629
604.2503805,-0.0565343308392001,-0.013815610793684102,-0.15016864102221472
604.7503805,0.013278436310570631,-0.01959917860798226,-0.03489172665687166
605.2505805,0.012410671013043788,-0.05135576308370516,-0.02607199776580564
605.7505805,-0.050566285642728796,0.0591784227641933,0.0926826531613712
606.2505805,-0.03917954271283396,-0.1077246623172109,0.06363100687887863
606.7505805,-0.07202174720684902,0.20743630224315196,0.028146290962006333
607.2505805,0.011334819802483808,-0.18034324580247987,0.14765484146802854
607.7505805,-0.06461777937614416,0.10537654925295242,-0.36615857430464926
608.2505805,-0.03297079944341499,-0.14295988131890847,0.2875586077739372
608.7505805,-0.08657141282139211,0.230117185865779,-0.3928193068087578
609.2505805,0.14567688191424075,-0.07611580220709974,0.39919809742381207
609.7505805,0.3009520081378265,-0.01669676036072505,-0.4686145669586834
610.2505805,-0.045659551242293095,0.13326388450211543,0.17709265650735836
610.7505805,0.022040100655923957,0.008592768098391648,-0.24181138548651912
611.2505805,0.09843231876410095,0.06529451816533195,0.18905625889894234
611.7505805,-0.2935287565755788,-0.06554179516989554,-0.14607135640984398
612.2505805,-0.09306277520425411,0.08346472444991802,0.43958345174891733
612.7505805,-0.06629522265364572,-0.0381471620095232,-0.21342130531599726
613.2505805,-0.0487907903529677,0.12216570686905782,0.11129258779224506
613.7505805,0.0584795120512358,-0.2700430662734789,-0.21064014540808063
614.2505805,-0.05664585101973499,0.050396396908998664,0.19969514073850975
614.7505805,-0.09470138317028592,-0.11576146678216111,0.0006501177060157248
615.2505805,0.2061305441953284,0.0015699786894911227,0.11103645080852848
615.7505805,-0.034020682320078516,-0.06816602673778759,0.09343929471077556
616.2505805,-0.03754219901067846,0.1489465023801669,-0.3113473324133487
616.7503805,-0.039852829971949444,-0.07576618172330647,0.3368271695927458
617.2505805,0.008124063753372029,0.12945896853539968,-0.1827179401026676
617.7505805,-0.1121305172068423,-0.12215316192502973,0.18889813637842118
618.2503805,0.13258946699101337,0.13349276878068939,-0.11460253568041724
618.7503805,-0.24655431809301714,0.06327115386380457,0.16752721222518463
619.2503805,-0.011448137061817173,0.12432596880866269,-0.28820941256027055
619.7505805,-0.02611010937892197,-0.19315621150062917,0.30918778884573195
620.2503805,-0.05248387936363569,0.18195067459103534,-0.439446635086609
620.7505805,-0.029435982121186092,-0.41166288752766533,0.27261278314190257
621.2505805,0.0899522289625799,0.009596825098138756,-0.36081272237212275
621.7505805,0.14266454868657535,-0.024957345459522075,0.2573800079777404
622.2505805,-0.07552779662733851,0.17420460482166494,-0.2763006354474024
622.7501804999999,-0.054819956631658735,-0.02740187112732676,0.3377137273856765
623.2503805,0.06415415549086403,-0.009474552062139811,0.015886501325555337
623.7505805,0.0225461624952465,0.07764538076549593,0.11342980953746837
624.2505805,-0.0012216971857145708,-0.08132205635027474,-0.1639785018062348
624.7503805,0.335982166675671,0.1844731436149167,-0.12365129818596034
625.2505805,0.12466963699632005,-0.061205579230863165,0.07914496783943516
625.7505805,-0.012612761270593182,0.12291830133435021,-0.14294945580904359
626.2503805,-0.25516784121466646,-0.09962727707946552,0.15140226644444302
626.7505805,0.37579678373041525,0.2327165177723367,-0.20429046998437705
627.2501804999999,-0.5445454000876221,0.5092356427613957,0.0838106761635556
627.7505805,0.3272197210094754,0.33507982480735415,-0.1466235257451073
628.2505805,-0.205287262582769,-0.5145559572677589,-0.0722984145878174
628.7503805,-0.36130096268370393,-0.5749550048054995,-0.21209610701582535
629.2505805,0.32116856235982455,0.07291532616461774,0.5090290221344301
629.7501804999999,-0.005449572511783424,-0.26842224185848873,-0.08548485198463393
630.2505805,-0.033456306488117774,0.003416546732727843,0.20998029195804585
630.7505805,0.10557365271571115,-0.04810362565308192,-0.16548918382901268
631.2505805,0.02826079398692494,0.03107712417566696,0.24821971340729324
631.7505805,-0.17516710527866752,-0.12059119414622131,-0.11981307072631645
632.2505805,0.09316819901074469,-0.028167004489090555,-0.04537269976191946
632.7505805,-0.041784462647438216,0.3056182421358199,0.10286198304066257
633.2503805,0.005763317889977022,-0.019177399213068755,-0.19155138850697984
633.7505805,0.050125112272422535,-0.2742896770587149,0.010068666634392548
634.2505805,-0.06936070012092245,0.15677215018055787,-0.1388242447573519
634.7505805,-0.12269149344036215,-0.004303099373905303,0.25866492217434056
635.2505805,-0.00044010826441276185,0.2149207132635987,-0.1887341296595832
635.7503805,0.054685624964112244,-0.1543781011171631,0.35873171913342294
636.2505805,-0.12091694431848493,0.14905150743103213,-0.3969555826517743
636.7505805,0.2556676648941672,-0.05078504792125266,0.31337278926041306
637.2505805,-0.23121159621883117,0.125815834280003,-0.2811729905547741
637.7503805,0.023299758380780165,-0.18385436256042798,0.24827812816202713
638.2505805,-0.04135945534873878,0.045092006283751165,-0.29732665483186455
638.7505805,0.18507737943820388,0.005146484197180054,0.3966027284286699
639.2505805,-0.02360812535539149,-0.03494566504675168,-0.26839138594743134
639.7505805,-0.039854173587958945,0.041957555570416145,0.05219350240922796
640.2505805,0.10190246549903242,0.11694393699458037,-0.08786590845861976
640.7505805,-0.12219097758135566,0.0010356584739059582,-0.1092050627935399
641.2505805,-0.03639306886668449,-0.264329738094159,0.14476111923538085
641.7505805,-0.06506795235780634,-0.008854967443024575,-0.23197868600719052
642.2505805,0.014989046526651562,-0.19483057858485378,0.4058466116162698
642.7505805,-0.019405547339820296,0.13058226976841497,-0.2498757568592601
643.2505805,-0.05230129712377428,0.030085113410520413,0.32073976818129446
643.7505805,-0.07241808158046509,0.07054020555977016,-0.39539762321159344
644.2505805,0.20572703898330985,0.01103917908338873,0.40391852545840606
644.7505805,-0.2627162728801991,0.007369854960008458,-0.5145764463438726
645.2505805,0.2362875835330132,-0.05326678800606717,0.24657766730033212
645.7505805,-0.1697555025776428,-0.03683340395544321,-0.1055750879323911
646.2505805,0.1621002055666837,0.08056006395203241,0.4204791589222435
646.7505805,-0.003262796095266347,0.031108011003053774,-0.30180883376664575
647.2503805,-0.09915808750868227,0.02200177284694834,-0.12447884837299394
647.7505805,-0.0045147812807971865,-0.13706888282697657,0.23985678176672678
648.2503805,0.14932733205505944,0.20539758120890517,-0.20612408991354808
648.7505805,0.10686600212594427,-0.22323250516673263,0.023263113610321424
649.2505805,0.13765075948526306,0.20668936207810995,-0.17648329062104737
649.7505805,0.03382094263117856,-0.11539092099847675,0.25688114879017376
650.2505805,-0.06469601051716892,-0.07250162227809336,-0.33587063143125706
650.7505805,0.09066327412837452,-0.018517984372210812,0.3506417672725245
651.2505805,-0.319263655447444,-0.139748726585301,-0.0388129670245454
651.7505805,-0.02247743807961441,0.17487157295651154,0.14529082075374727
652.2505805,-0.05614741808638084,-0.24661069521232767,-0.03720269010060741
652.7505805,0.03986469590857317,0.05100184809747293,0.15237485450307062
653.2505805,-0.07483744074283281,-0.07998294482445244,0.17459943308480944
653.7503805,0.018576551246502114,0.31542818002915124,-0.2204189200358634
654.2505805,-0.031696619735055984,-0.23742190379991807,0.15694427791301405
654.7505805,-0.16576762015018803,0.18484076158752324,-0.4601146460638024
655.2505805,0.09862462504262064,0.051204934353174955,0.38130595532280337
655.7503805,-0.13367568277086547,0.004578985112217367,-0.25513304368826356
656.2505805000001,0.0989411110156852,0.13261318204855496,0.1481184746096522
656.7505805000001,-0.16694352897280212,-0.25516331760266636,-0.24334121296386743
657.2505805000001,0.1336325052680998,0.0478532545046326,0.6343017761180949
657.7505805000001,0.06064006335202705,-0.05707906280293888,-0.3795694771032852
658.2505805000001,0.010763751914902451,-0.15204248383149271,0.33789794300685616
658.7505805000001,-0.08745223331707956,0.04463463338898269,-0.14774442991050504
659.2553844215687,-0.07347643943612307,0.12126421173897362,0.060052700069384866
659.7555805,-0.004765208840530219,-0.0668645444600699,-0.043137437698773685
660.2505805000001,-0.07157350673056612,0.10545950150783544,-0.21369936297517025
660.7505805000001,-0.07933403695155976,-0.0550595511925128,0.053001675763875246
661.2505805000001,0.0010918784832265177,0.27200069092919743,-0.16515161408084378
661.7505805000001,0.030999953068995126,-0.11448768604970008,0.29724966930219654
662.2505805000001,-0.1133983988078879,-0.11409997815262664,-0.855511905507519
662.7505805000001,0.1345287075217596,0.20517437991399523,-0.00035720458777813114
663.2505805000001,0.059697569148323894,-0.03166734116112304,-0.33025747388724497
663.7505805000001,0.10781726072844888,0.060792777457765804,0.5370643728755192
664.2505805000001,-0.177887782900746,-0.11235267636887475,-0.21386593173753823
664.7505805000001,0.07283432763755722,0.24684483243220737,0.07547299772735033
665.2505805000001,-0.03866326438692273,-0.3701175089114297,0.19297882147945317
665.7503805,-0.09097619985951713,0.25143332932185886,-0.13816505353186007
666.2505805000001,-0.03270890663383312,-0.18595804688061907,0.3198714442451016
666.7505805000001,-0.0606203328738848,0.18992112334956773,-0.1902492649367056
667.2505805000001,0.1739491638647197,-0.10633256116480475,0.22257042227488555
667.7503805,-0.05455088314751455,-0.011380015369133488,-0.4383560673158253
668.2505805000001,0.010407636203596754,-0.0019305051727083252,0.6193254217896005
668.7505805000001,-0.132500774987596,-0.02023805455987354,-0.3106552130971419
669.2505805000001,0.18742135588095865,0.09725385807728651,0.30696279899615186
669.7505805000001,-0.09835496483526787,-0.05728567867464609,-0.31357215151278856
670.2505805000001,-0.009146032817480321,-0.07081930861568667,0.30177814831175565
670.7505805000001,0.18922010431549602,0.1732865258488391,0.057856752749874035
671.2505805000001,-0.0530450446719334,0.05085190738414207,0.1311164247769456
671.7505805000001,-0.09080343814470306,-0.13112308246433102,0.025901801648577045
672.2505805000001,0.12469349129208399,-0.12109313160838406,0.17222954155769832
672.7505805000001,-0.08007805436700555,0.17605969143362965,-0.11713062294301156
673.2505805000001,-0.11272461858325147,0.19659839254763817,0.0007902237874773399
673.7505805000001,-0.08090517614166699,-0.300858575375315,0.43436205539788775
674.2505805000001,-0.09982214338414275,0.2338328133325047,-0.325893115555137
674.7505805000001,0.04627662058526287,-0.08576682568027316,0.5551946812003097
675.2503805,0.08954831150178762,0.06931050010769552,-0.0225087655826103
675.7503805,0.012546731974066581,-0.14646419007044334,-0.236490586466997
676.2503805,-0.17018469698621475,-0.10349023031027325,-0.5590935787168064
676.7505805000001,0.17080174675895254,0.10511111061125328,0.2718153238997035
677.2505805000001,-0.08101304409181878,0.05559884131975288,-0.004731820129436654
677.7505805000001,0.04848468949599735,0.0808923522536129,0.11019472808598073
678.2503805,0.16640896153120288,-0.35942248878453703,-0.16077994076514035
678.7505805000001,-0.22330891610281328,0.17129378568541845,-0.0627109895750616
679.2505805000001,-0.02439534547213132,-0.18985462384861646,0.13359897933850998
679.7505805000001,0.05504780698337859,0.15455778998723288,-0.19126198324153165
680.2505805000001,-0.13916953504028876,-0.1430140073398683,0.21906141398755763
680.7505805000001,0.063035521865538,0.1710202592766768,-0.06814757118881766
681.2505805000001,-0.004412325006071709,-0.16822609962444213,0.34185921752401166
681.7505805000001,-0.36710902390582734,0.2579003453562899,-0.7770023724715059
682.2503805,0.18721403089720087,0.08707477107339903,0.2898846597845827
682.7505805000001,0.21600061897901449,-0.11033752072297387,-0.1398997082772693
683.2503805,-0.10665215726907355,-0.03592918106272786,0.4824947854965223
683.7505805000001,-0.055594128265197634,-0.17676537397829772,-0.5292312227203851
684.2503805,0.06749778084147003,0.1754402488462871,0.5617747150210045
684.7505805000001,0.03171351910439086,-0.13527895640228935,-0.04007841988963277
685.2505805000001,0.08069639269530886,0.27285347743254407,0.30870517885974347
685.7505805000001,-0.04223108929373403,-0.3610438033675836,-0.4491330922384793
686.2505805000001,0.0429481782794094,0.21368209833213636,0.009795660156319887
686.7505805000001,-0.008060166890572953,-0.10543710301378088,0.3292489397799313
687.2505805000001,-0.18322635584290078,0.1464600442454363,-0.15244852162354589
687.7505805000001,0.07631397999440814,-0.11792057224628356,0.052532541462595804
688.2505805000001,-0.07341126279334953,0.11155789771850876,-0.14136210514365544
688.7505805000001,-0.03865401850227261,-0.21866434498028486,0.11558260723332378
689.2505805000001,-0.1045449533034234,0.05164800985285855,-0.20437396591969773
689.7505805000001,0.06581790970775044,-0.049086902052112275,0.40447385135065406
690.2505805000001,-0.05795347353278564,0.018761724333175748,-0.2992166848691406
690.7505805000001,-0.13394430264400917,-0.06155281436519277,0.2855044302114748
691.2505805000001,0.022390310227026457,-0.032816605066035925,-0.23947058147339348
691.7505805000001,0.012588072990626906,-0.041515766259370916,0.8025797279836321
692.2505805000001,-0.0103166290585014,-0.071773518879111,-0.37408365338359223
692.7505805000001,0.1990899305386716,0.019412277854536066,0.38297819143760015
693.2505805000001,-0.18939313267923932,0.04269111575257738,-0.1269255936679823
693.7503805,0.37852596875516553,0.11944356544785913,0.4426367544244744
694.2505805000001,-0.21403181591254522,-0.20666009985374478,0.3938770228786687
694.7505805000001,0.20626681345950743,0.1716122792351101,0.8409106165412781
695.2505805000001,-0.01924660513321695,-0.15487319797122262,0.32039958657232903
695.7505805000001,0.014334680870857389,0.2423959025390429,-0.16796413893315487
696.2505805000001,-0.09931886627292316,-0.02871077900316954,-0.22105748468365108
696.7505805000001,0.06660596928712806,0.08050816311043539,-0.620892968319367
697.2505805000001,-0.1617337960011977,-0.25610845246837555,-0.14622079516817613
697.7505805000001,0.08688138147790289,0.3120306703119431,0.005038711860075349
698.2505805000001,0.030538049421943905,-0.3195886969699696,0.6482845467204137
698.7505805000001,-0.09717749889283195,0.13002888565026582,-0.1524186157203171
699.2505805000001,0.06712220477807841,-0.18776301299632034,0.26860650745294945
699.7505805000001,-0.037916621192209544,0.17779981397234107,-0.03917694251426723
700.2505805000001,0.09800112744035681,-0.08027937597880812,0.3532232143861196
700.7503805,-0.18067557937967738,0.290936817171808,-0.23694258252183395
701.2505805000001,0.031534447593975924,0.001110488886422245,0.3871282022514056
701.7505805000001,-0.09777495572213869,-0.3452910182309529,-0.47857159003880484
702.2505805000001,-0.0006172781436539854,0.24941719404284923,0.5321885458874882
702.7505805000001,-0.08311292367199946,-0.07759372910349426,-0.17985161238848504
703.2503805,0.1286214833173038,-0.06303867542023854,0.6629770989639674
703.7505805000001,0.058035706331491424,-0.010119443652988969,-0.38837793424056566
704.2505805000001,-0.09577681620169214,-0.16071970668499436,0.1455904593706376
704.7505805000001,-0.1529415112498661,0.08224389540907863,-0.3005549286225689
705.2505805000001,-0.0039808553233435465,0.16744984394655293,0.011122463701656928
705.7503805,0.10012271430036136,-0.16301179917705041,-0.0254330904081934
706.2505805000001,0.04108233796330822,0.043520294918278336,0.16590169006490196
706.7505805000001,0.0870636003978507,0.08606475023428393,0.1626473909307556
707.2505805000001,0.47696435159731254,0.1510522907422499,0.13462830946202645
707.7505805000001,-0.17715378099213733,0.3311650724638499,-0.010029771687373174
708.2505805000001,-0.04091563105086286,0.22243676524198935,-0.26812751119848005
708.7503805,-0.4447401921057861,-0.4276360575964738,0.12251234768003184
709.2505805000001,0.002679614165539066,-0.23753344207634683,-0.25485050225537037
709.7505805000001,0.24797263300461747,0.10512339793713954,0.3501502606269726
710.2503805,-0.090564189369187,0.0731315248570532,-0.39308237504926496
710.7505805000001,0.33844372866357936,0.004489925057665048,0.07069792550785094
711.2505805000001,-0.13263579553400512,0.47615776767217755,-0.06910599724789894
711.7505805000001,-0.45188485043491766,0.4195747160937704,0.22495812185316078
712.2505805000001,-0.3496402288601908,-0.3089506294394617,0.008289875793347985
712.7505805000001,0.1638592587215055,-0.11865824352329209,0.16732348548572756
713.2505805000001,-0.017723324728220687,-0.1178997990233556,-0.2934656780847811
713.7505805000001,0.09647260165532343,0.048786551219957675,-0.10438885113872443
714.2505805000001,-0.10160882300001126,-0.4117372794884437,0.2672104569498627
714.7505805000001,0.025720760970643096,0.20283906094039203,-0.3523145986631341
715.2505805000001,-0.049771919110381646,-0.1581204812851757,0.3666745248986007
715.7505805000001,0.19882510520804142,0.038262007247873014,0.27580856491009464
716.2505805000001,-0.09940910995557353,0.053924655148798274,0.3552179532070642
716.7505805000001,-0.22585740437910165,-0.13416534880219225,-0.6531054686357193
717.2505805000001,0.26239916657574297,-0.172655049149297,0.223980379864756
717.7505805000001,-0.1922235185670279,0.08344997921359003,-0.24831586552150248
718.2505805000001,0.05477446372649032,0.1603550294189709,0.3580169363496639
718.7505805000001,-0.003941820048322833,-0.11397263788731289,-0.3629316684304238
719.2505805000001,0.16715337339741942,-0.09243861801624514,0.22676742520712673
719.7505805000001,-0.24598852194826965,0.08311839622871883,-0.4468950992550513
720.2505805000001,0.11136807235817812,0.09287292187026615,0.029963860316563336
720.7505805000001,-0.05558515708375518,-0.12555448312200862,-0.3312894866521248
721.2505805000001,0.08309557001093562,-0.1386656977723632,0.12677859772809943
721.7505805000001,-0.10251690295883224,-0.1587808954403158,-0.005337301338179121
722.2505805000001,-0.018840494040062036,0.32919575279064994,-0.009585310899666931
722.7505805000001,-0.1531385834862119,-0.17553634877877472,0.2516893610285662
723.2503805,-0.09384898103067935,0.36582259190506056,-0.3057565198808423
723.7505805000001,0.12270365143898833,-0.3052605574033381,0.3515929359160921
724.2503805,-0.214314115393159,0.11469992451867551,-0.7524220470077178
724.7505805000001,0.23705287803679043,-0.09939859421042221,0.1921362437852857
725.2505805000001,-0.3497972260994741,0.1494485009445088,-0.5698692559199992
725.7505805000001,0.5835660968917847,-0.2855909553526935,0.3179845547783545
726.2505805000001,-0.468738414089128,0.1723549961959847,-0.4717530910604469
726.7503805,0.2498906421008414,0.16553217071086812,0.46341976019981546
727.2505805000001,-0.2933317393535988,0.2966560757289593,-0.4676676331519493
727.7503805,0.27485144651556487,0.06068999226070064,0.17953509416736282
728.2505805000001,-0.09530259667505003,-0.05312390781820128,-0.42758449089414285
728.7505805000001,0.049564147300726835,0.2100970604566564,0.40315012876851974
729.2503805,0.01505379970792105,-0.08680126672122311,-0.3154670689255952
729.7505805000001,-0.00842409551332129,0.04366901896909448,0.06424170309997701
730.2505805000001,-0.02223724541329218,-0.06490547175633435,0.011684095449431267
730.7505805000001,0.14662005149753354,0.06852199452513683,0.04223407652361634
731.2505805000001,-0.10523611903114509,-0.19360018772799062,0.10330779298182562
731.7505805000001,-0.13098334554681637,0.16925478682136375,-0.39401534048752246
732.2505805000001,-0.08309532340423484,-0.0982355173622564,0.44371670552987447
732.7505805000001,-0.03125057451138383,0.1484233224967181,-0.1628927428095623
733.2505805000001,0.029091381554703734,-0.17436917509798458,0.09508274421879151
733.7505805000001,0.258635556014987,-0.16668259054923001,-0.38673208897281386
734.2505805000001,-0.01504346157806679,-0.16004896882381126,0.3528272636422948
734.7505805000001,-0.2651098000059546,0.10261917092437249,-0.3207038347362189
735.2505805000001,0.2848124444872968,0.05654225989724302,0.34034086008608794
735.7503805,-0.22297580596868938,0.07427828780495761,-0.28198357440108957
736.2505805000001,0.09628702262382474,0.020499297575305775,0.2318197280959191
736.7505805000001,-0.11205054338909007,0.17397136634436883,-0.04959724376296597
737.2505805000001,0.18055522617939931,0.042232792779534206,0.22194486414580958
737.7505805000001,0.017299730789059765,-0.07139580758200018,0.007532786366247872
738.2505805000001,-0.016969396736214476,0.009307560098424266,-0.0955463691531942
738.7505805000001,-0.03247648130720464,-0.13293081585077965,0.24607223567170672
739.2505805000001,-0.00017026532621884584,0.1539802000903963,-0.11240375352744703
739.7503805,-0.03493891159659146,-0.36860285491969125,0.389277944425936
740.2505805000001,-0.03330664585804729,0.22318511376641684,-0.5088166287672748
740.7503805,0.23212302843825752,-0.05340075234596155,0.5571623208101467
741.2505805000001,-0.31298993282995574,0.008433194331989288,-0.5731806244954738
741.7505805000001,0.22641286276298841,-0.06995265516867787,0.2988849938656437
742.2505805000001,-0.11651141848788518,0.24141929453133762,-0.055723622189607
742.7503805,0.1045731455554641,-0.0631653965997332,0.6080365403553749
743.2505805000001,-0.12335178719117706,-0.1589604943342804,-0.5032557315495355
743.7505805000001,0.13882406022399296,0.08750798759104125,0.6005723533188828
744.2505805000001,-0.1839585063593005,0.004063947258332732,-0.2961713366302463
744.7503805,0.018290810092760974,0.09644350654699259,0.45124259459273924
745.2505805000001,0.09249714456464066,-0.13581747380189083,-0.2581834816621319
745.7505805000001,-0.0009430222558361079,0.0918764080768252,0.03917864072520433
746.2505805000001,-0.08392937031034668,-0.21405119228754896,0.029528861848432397
746.7505805000001,-0.05600087169455556,0.1955222748512307,0.1781899767971656
747.2505805000001,0.035096084441249224,-0.12528078343409654,-0.03629456856163901
747.7505805000001,0.12335601383709051,-0.09077637005981178,-0.17853450842488816
748.2503805,0.0444600171118516,-0.06648474888686132,0.3421436366440962
748.7505805000001,-0.25093955381206934,0.0836761439239555,-0.1631254870109495
749.2505805000001,0.18672707864368931,0.025670519945619735,0.31194361141811683
749.7505805000001,-0.12292972434201062,0.010822364781697798,-0.20818657597719029
750.2505805000001,0.15535595619592724,-0.11166487580557594,0.1923962341610082
750.7505805000001,-0.1614737938615557,0.15516214254757235,-0.3535782210918428
751.2505805000001,0.11548992171979995,-0.11738527561804737,0.29322547308262864
751.7505805000001,-0.1280259283781719,0.07321532165345426,-0.17030165442705625
752.2505805000001,0.10322514712024146,-0.010369648285946099,0.28244125659034985
752.7505805000001,-0.15356425162713735,-0.015519421448373346,0.042381958175958113
753.2505805000001,0.001424045905184825,0.14764510298006706,-0.07608525895398797
753.7505805000001,0.10570749810421994,0.015803074044252748,-0.03550607979588852
754.2505805000001,-0.04465314962708286,0.2519172378774235,-0.005662679630342346
754.7505805000001,-0.05961892302045259,-0.44135660896850387,0.0290735135681659
755.2505805000001,-0.08490655622130965,0.053204942140743186,-0.2363084612515194
755.7505805000001,0.3325663042304013,-0.25356642239510113,-0.02854805487427386
756.2505805000001,0.03728291858615385,0.39828576643347624,-0.17399411905711112
756.7505805000001,-0.20750122811470842,-0.06796140079043173,0.35023757260607885
757.2505805000001,-0.45635686490575716,-0.04934687023560035,-0.5143132137538012
757.7505805000001,0.35380324684365483,-0.020068317508763606,0.6042485955596836
758.2505805000001,0.4514565515062048,0.03959680028448548,-0.226943859248077
758.7505805000001,0.01954975381810385,0.15399792562351713,0.21186392554807137
759.2505805000001,0.1449378021406858,-0.07229316296822876,-0.07516741212261457
759.7505805000001,-0.7579851116603907,0.7171803269051114,0.09541142301448227
760.2505805000001,-0.26953778246204596,-0.6493770099129624,-0.34276157763908044
760.7505805000001,0.4764650464912512,0.1168895017321872,0.14032473778159718
761.2505805000001,0.2610052459049127,-0.27619027030303434,-0.015942767525586887
761.7505805000001,0.26271380040932396,-0.04533216858260283,-0.08534469314792954
762.2505805000001,-0.025835654947768835,-0.16444903368798588,0.23191558320268255
762.7505805000001,-0.40052854404313637,0.01470001494473769,-0.08887818242019241
763.2505805000001,-0.4395412881713636,-0.27871110794885157,0.3618132997612114
763.7503805,-0.20961764403669697,0.19965823783371575,-0.3767446544778829
764.2505805000001,0.3810004790664634,0.08558631006190545,0.0018152126035678306
764.7505805000001,-0.37064084933835156,-0.03945524910092063,-0.1945663696538743
765.2505805000001,0.48592437911730646,0.013866256941151922,0.34403180194181276
765.7503805,-0.22797695668017642,-0.27478248208041106,-0.48739838436085525
766.2505805000001,-0.004692881616180935,0.14810609734168012,0.232323281332328
766.7503805,0.07208567012331316,-0.06713343349642449,0.39650353953863715
767.2505805000001,0.11759952005322387,0.037522073898882395,-0.01610377780358833
767.7503805,-0.06561441526832457,-0.0758095827424661,0.1325582949549008
768.2505805000001,-0.036877387062509766,0.1271984994143478,-0.163221802092135
768.7505805000001,-0.17642751636293205,-0.1424581085703321,0.09194728375618463
769.2503805,-0.14592356863241085,0.21993164910668903,-0.04113372150133553
769.7503805,-0.27143441457386935,-0.03899739467201337,-0.08091007737129152
770.2503805,0.08935152032058809,0.05637541939524871,-0.5855072890742924
770.7505805000001,-0.033003571649339494,-0.158358326165508,0.45179702080818657
771.2505805000001,0.20282955910727096,0.13036368405433593,-0.09299117324721848
771.7505805000001,0.1887071924275182,-0.13337147389832218,0.329651312360989
772.2505805000001,-0.16741235289048417,-0.005183680513210925,-0.46527456709688925
772.7505805000001,0.1298652949492359,0.09313391764868281,0.367439806457366
773.2505805000001,-0.34270250711839234,-0.027967912363041744,-0.33236821423891205
773.7503805,0.3267304647974698,0.11799475741321191,0.17205929664033762
774.2505805000001,0.0856684684569829,0.15206827578810056,0.2534770219270615
774.7505805000001,0.17296788340409097,0.326999550517665,0.2273804282042591
775.2505805000001,-0.010450497525829081,-0.4785514127382892,-0.4069618353383334
775.7503805,-0.33248712874526976,-0.20678809054957362,-1.4696875446316866
776.2505805000001,0.1269372648175892,-0.08874881091294098,0.6764786535880564
776.7503805,-0.7053861486538457,0.2330817828673079,-0.8768670624169326
777.2505805000001,0.03207479448708091,0.0824078703188312,-0.0650952596051969
777.7505805000001,0.002646373432628444,-0.3720368565648893,-0.09775430406268383
778.2503805,0.12909810170932828,-0.026601175531839827,0.29460683821298206
778.7505805000001,-0.2159417194768412,0.12542231310413157,-0.858053255948362
779.2505805000001,0.27479339139366865,0.018685724751704758,0.5293517996630382
779.7505805000001,-0.2540916804335451,0.14882621330908766,-0.625849275121492
780.2505805000001,0.12241941842493807,-0.148429887122953,0.48627173866010104
780.7505805000001,-0.29702773154888135,-0.21695243658719446,-0.9472663713074171
781.2505805000001,0.10153786803176232,0.0853714805702425,0.5040342895823009
781.7505805000001,-0.025693043032267663,0.16501252594873123,0.019309650602675067
782.2505805000001,-0.003123023580932423,0.11499107648455992,0.15293426880158612
782.7505805000001,-0.10817584225327924,-0.14527863347845849,-0.026505856711704637
783.2505805000001,0.11303263868859112,0.23405257841711888,-0.10248075652523309
783.7505805000001,-0.21931985934406342,-0.53110673757807,0.08737610497512102
784.2505805000001,-0.16591478745816876,0.4006170043127035,-0.49964824865358504
784.7505805000001,-0.013854069638275264,-0.40722053829657207,0.6936203692646599
785.2505805000001,-0.10804376093846148,-0.12875569112579233,0.02231041317177624
785.7503805,0.6386443330695981,-0.175543210202841,0.7258365562695954
786.2503805,-0.21430761442427337,0.11124185731816391,0.04822890457217191
786.7505805000001,0.40902678337119014,0.1898369274945001,0.45630744819056746
787.2505805000001,-0.38752574489956126,-0.10621049237304003,-0.2155932533076311
787.7503805,0.04303214652189603,0.3518680812392575,0.2808028436808661
788.2505805000001,0.018800977857922795,-0.05133987359817769,0.15857409999419733
788.7505805000001,-0.01255060901862877,0.026046415989022596,-0.08153784169340039
789.2505805000001,0.0207478786300843,-0.040671469422752654,-0.15571064568431525
789.7505805000001,-0.21265199270228843,0.10975959430591666,-0.3202524624743527
790.2503805,0.06023570124874624,-0.2401620210844892,0.18198073021894592
790.7505805000001,-0.12064822823810326,0.2397602954039821,-0.48446320089898437
791.2505805000001,0.22889649112518118,-0.06166345926631097,0.612236894283429
791.7505805000001,-0.046918825815580566,0.2236216003137547,-0.6878285614984253
792.2503805,0.29519496352907926,0.10025187089674642,0.1306928020030042
792.7505805000001,-0.043348259117145176,-0.1043052104184981,-0.6129400764050056
793.2503805,0.21422912397345215,-0.1043894622469916,-0.224223745259153
793.7505805000001,-0.21512692413971476,-0.02865661804170878,0.04209289514682458
794.2505805000001,0.14686274056190438,0.19409273142773573,-0.22065491078134175
794.7505805000001,-0.21701331067776577,-0.2587991275231251,0.025138743748987596
795.2505805000001,-0.09897658405000215,0.06242740906517904,-0.5632256828169477
795.7503805,0.3228597679967739,-0.1204515665144958,0.2612848369636583
796.2505805000001,-0.19229224912255563,-0.16012282003814718,-0.60873230128488
796.7505805000001,0.2723561008251949,0.2332992789951469,0.4383530690419139
797.2505805000001,-0.19138775975615055,-0.1119842483484092,-0.21788864813671321
797.7505805000001,0.20507468368559856,0.08788441906641502,0.27471435086372564
798.2505805000001,0.03528263037600102,-0.15444714878383647,-0.11927500393385007
798.7505805000001,-0.19468119282085766,0.08435427169509514,-0.08446829693645982
