"Time (s)","Acceleration x (m/s^2)","Acceleration y (m/s^2)","Acceleration z (m/s^2)"
7.724644000E-3,-9.643075466E-1,2.395215511E0,6.506084919E0
1.647099800E-2,-5.670989752E-1,1.600798368E0,6.151947021E0
2.647099800E-2,0.000000000E0,0.000000000E0,0.000000000E0
3.647099800E-2,0.000000000E0,0.000000000E0,0.000000000E0
4.647099800E-2,0.000000000E0,0.000000000E0,0.000000000E0
5.647099800E-2,-7.082754970E-1,9.403793216E-1,7.865208149E0
6.647099800E-2,-4.378865361E-1,1.043270707E0,8.630910873E0
7.647099800E-2,-4.115654826E-1,1.086341500E0,9.518648148E0
8.647099800E-2,-4.115654826E-1,1.086341500E0,9.518648148E0
9.647099800E-2,-4.115654826E-1,1.086341500E0,9.518648148E0
1.064709980E-1,-4.115654826E-1,1.086341500E0,9.518648148E0
1.164709980E-1,-1.150947690E0,2.632104874E0,1.072702408E1
1.264709980E-1,-1.572084427E0,3.110669374E0,1.160519028E1
1.364709980E-1,-1.359123230E0,3.491128206E0,1.118405342E1
1.464709980E-1,-1.088734269E0,3.646661758E0,1.049970531E1
1.564709980E-1,-1.088734269E0,3.646661758E0,1.049970531E1
1.664709980E-1,-1.088734269E0,3.646661758E0,1.049970531E1
1.764709980E-1,-2.177468538E-1,2.794816732E0,9.305686951E0
1.864709980E-1,-2.249253243E-1,2.730210543E0,9.324830055E0
1.964709980E-1,-2.321037948E-1,2.600998163E0,9.205188751E0
2.064709980E-1,-2.177468538E-1,2.292324066E0,9.066405296E0
2.164709980E-1,-1.698904037E-1,1.938186288E0,8.884550095E0
2.264709980E-1,-1.698904037E-1,1.938186288E0,8.884550095E0
2.364709980E-1,-9.332008660E-2,1.119840980E0,8.590232849E0
2.464709980E-1,-5.575276613E-1,1.323230863E0,9.324830055E0
2.564709980E-1,-1.146162033E0,1.718046665E0,9.951749802E0
2.664709980E-1,-1.177268744E0,2.242074728E0,1.012403297E1
2.764709980E-1,-1.196411371E0,2.603390932E0,9.810572624E0
2.864709980E-1,-9.906286001E-1,2.723032236E0,9.475577354E0
2.964709980E-1,-9.978070259E-1,2.787638426E0,9.710074425E0
3.064709980E-1,-9.834501147E-1,2.931207657E0,9.997213364E0
3.164709980E-1,-7.609176040E-1,3.034099102E0,1.021735287E1
3.264709980E-1,-9.930213690E-1,3.079562664E0,1.042552853E1
3.364709980E-1,-8.925228715E-1,3.218346357E0,1.023888779E1
3.464709980E-1,-1.581655741E0,3.845266104E0,9.454042435E0
3.564709980E-1,-1.318445325E0,4.096512318E0,8.712266922E0
3.664709980E-1,-1.619940877E0,3.151347399E0,8.317451477E0
3.764709980E-1,-1.552941918E0,2.852244616E0,8.726624489E0
3.864709980E-1,-1.263410330E0,2.517249346E0,9.437292099E0
3.964709980E-1,-6.963114142E-1,2.222932339E0,1.031306553E1
4.064709980E-1,-5.503492057E-2,2.438286304E0,1.065284634E1
4.164709980E-1,2.488535494E-1,2.706282377E0,1.055952644E1
4.264709980E-1,6.460621208E-2,2.761317253E0,1.014556789E1
4.364709980E-1,-4.043870270E-1,2.581855536E0,8.920442581E0
4.464709980E-1,-5.886343718E-1,2.311466694E0,8.685946465E0
4.564709980E-1,-3.445664644E-1,2.167897224E0,8.642875671E0
4.664709980E-1,-2.225325108E-1,1.952543259E0,8.829515457E0
4.764709980E-1,1.196411345E-2,1.753939033E0,9.037691116E0
4.864709980E-1,5.359922647E-1,1.708475351E0,9.209974289E0
4.964709980E-1,8.925228715E-1,1.746760488E0,9.896714211E0
5.064709980E-1,8.925228715E-1,1.746760488E0,9.896714211E0
5.164709980E-1,8.925228715E-1,1.746760488E0,9.896714211E0
5.264709980E-1,8.925228715E-1,1.746760488E0,9.896714211E0
5.364709980E-1,8.925228715E-1,1.746760488E0,9.896714211E0
5.464709980E-1,-7.082754970E-1,2.517249346E0,9.020941734E0
5.564709980E-1,-9.164510965E-1,2.328216314E0,8.322237015E0
5.664709980E-1,-5.647061467E-1,2.419143677E0,7.972885132E0
5.764709980E-1,-5.647061467E-1,2.419143677E0,7.972885132E0
5.864709980E-1,-5.647061467E-1,2.419143677E0,7.972885132E0
5.964709980E-1,9.906286001E-1,9.762716293E-1,1.093041420E1
6.064709980E-1,1.387837172E0,1.079162955E0,1.184686470E1
6.164709980E-1,1.258624673E0,1.174875975E0,1.191625690E1
6.264709980E-1,9.547362328E-1,1.122233868E0,1.140897846E1
6.364709980E-1,6.269195080E-1,7.226324677E-1,1.087777138E1
6.464709980E-1,1.203589797E0,3.349951655E-2,9.585647583E0
6.564709980E-1,1.457229018E0,-3.900300860E-1,9.205188751E0
6.664709980E-1,1.703689694E0,-7.896314859E-1,8.736195564E0
6.764709980E-1,2.177468538E0,-1.122233868E0,8.487341881E0
6.864709980E-1,2.763710260E0,-1.406979680E0,8.472985268E0
6.964709980E-1,3.132204771E0,-1.677368641E0,8.559126854E0
7.064709980E-1,3.426522017E0,-1.849651933E0,8.755337715E0
7.164709980E-1,3.215953588E0,-1.663011789E0,8.678768158E0
7.264709980E-1,2.622533560E0,-1.512263894E0,8.389236450E0
7.364709980E-1,1.976471543E0,-1.191625714E0,8.047062874E0
7.464709980E-1,1.313659668E0,-7.848458290E-1,7.822137356E0
7.564709980E-1,8.877372146E-1,-6.675975323E-1,7.953742504E0
7.664709980E-1,8.111668825E-1,-7.561319470E-1,8.472985268E0
7.764709980E-1,9.164510965E-1,-8.350951076E-1,9.217152596E0
7.864709980E-1,7.082754970E-1,-7.226324677E-1,1.041595650E1
7.964709980E-1,6.819544435E-1,-6.819544435E-1,1.018863869E1
8.064709980E-1,6.532405615E-1,-5.766702294E-1,9.600004196E0
8.164709980E-1,5.144568682E-1,-4.354937077E-1,9.174081802E0
8.264709980E-1,4.115654826E-1,-2.464607358E-1,8.889336586E0
8.364709980E-1,1.818545163E-1,-4.307080805E-2,8.652446747E0
8.464709980E-1,-2.153540403E-1,2.344966233E-1,8.626125336E0
8.564709980E-1,-3.768695593E0,2.165504456E0,1.150947666E1
8.664709980E-1,-3.768695593E0,2.165504456E0,1.150947666E1
8.764709980E-1,-3.768695593E0,2.165504456E0,1.150947666E1
8.864709980E-1,-3.768695593E0,2.165504456E0,1.150947666E1
8.964709980E-1,6.628118753E-1,2.555534601E0,1.390708542E1
9.064709980E-1,2.830709219E0,2.285145521E0,1.105484104E1
9.164709980E-1,3.991228104E0,1.663011789E0,1.012642574E1
9.264709980E-1,3.991228104E0,1.663011789E0,1.012642574E1
9.364709980E-1,3.991228104E0,1.663011789E0,1.012642574E1
9.464709980E-1,3.991228104E0,1.663011789E0,1.012642574E1
9.564709980E-1,4.505684853E0,1.995614052E0,8.118846893E0
9.664709980E-1,3.608376503E0,2.021935225E0,8.592626572E0
9.764709980E-1,2.687139750E0,1.785045743E0,9.360722542E0
9.864709980E-1,1.957328916E0,1.471585870E0,1.021017456E1
9.964709980E-1,1.957328916E0,1.471585870E0,1.021017456E1
1.006470998E0,1.957328916E0,1.471585870E0,1.021017456E1
1.016470998E0,2.490928411E0,7.298108935E-1,1.015992451E1
1.026470998E0,2.292324066E0,9.116654396E-1,1.014796066E1
1.036470998E0,7.609176040E-1,1.804188251E0,9.255437851E0
1.046470998E0,-4.666004181E-1,2.658426046E0,8.762516975E0
1.056470998E0,-1.036092162E0,2.830709219E0,8.595019341E0
1.066470998E0,-1.083948612E0,2.589034081E0,8.303094864E0
1.076470998E0,-1.009771109E0,2.383251429E0,8.398807526E0
1.086470998E0,-8.327022791E-1,2.335394859E0,8.717052460E0
1.096470998E0,-7.824530005E-1,2.292324066E0,8.898907661E0
1.106470998E0,-2.679961324E-1,1.964507341E0,8.925228119E0
1.116470998E0,-2.368894368E-1,1.679761529E0,9.389435768E0
1.126470998E0,-2.201396823E-1,1.179661512E0,9.327222824E0
1.136470998E0,1.938186288E-1,9.212366939E-1,9.303294182E0
1.146470998E0,-7.178467698E-3,1.004985452E0,9.267401695E0
1.156470998E0,1.435693540E-2,1.024128079E0,9.288937569E0
1.166470998E0,3.349951655E-2,1.040877819E0,9.391828537E0
1.176470998E0,2.153540403E-2,1.088734269E0,9.556933403E0
1.186470998E0,-1.722832322E-1,1.150947690E0,9.731609344E0
1.196470998E0,-6.508477330E-1,1.244267821E0,9.781859398E0
1.206470998E0,-6.508477330E-1,1.244267821E0,9.781859398E0
1.216470998E0,-6.508477330E-1,1.244267821E0,9.781859398E0
1.226470998E0,-6.508477330E-1,1.244267821E0,9.781859398E0
1.236470998E0,-1.019342422E0,1.665404558E0,9.434899330E0
1.246470998E0,-6.364908218E-1,1.502692580E0,9.745966911E0
1.256470998E0,-3.637090325E-1,1.325623751E0,9.942177773E0
1.266470998E0,-3.014956415E-1,1.103091240E0,9.982855797E0
1.276470998E0,-3.014956415E-1,1.103091240E0,9.982855797E0
1.286470998E0,5.575276613E-1,8.590233326E-1,1.026999474E1
1.296470998E0,9.523434043E-1,7.465606928E-1,1.035135078E1
1.306470998E0,1.138983607E0,6.580262184E-1,1.027238750E1
1.316470998E0,1.244267821E0,6.723831892E-1,9.961320877E0
1.326470998E0,1.129412293E0,6.867401004E-1,9.480362892E0
1.336470998E0,7.537391186E-1,8.685946465E-1,9.083154678E0
1.346470998E0,4.761717021E-1,1.497906923E0,8.841479301E0
1.356470998E0,-8.614161611E-2,1.643869162E0,8.860622406E0
1.366470998E0,-9.068797827E-1,1.627119422E0,9.025727272E0
1.376470998E0,-6.388836503E-1,2.045863390E0,9.171689034E0
1.386470998E0,-5.407779217E-1,2.488535643E0,9.592825890E0
1.396470998E0,-6.819544435E-1,2.837887764E0,1.011206818E1
1.406470998E0,-6.149554253E-1,2.620140791E0,1.078445148E1
1.416470998E0,-2.033899277E-1,2.816352367E0,1.149033451E1
1.426470998E0,1.148554832E-1,2.940778971E0,1.144726372E1
1.436470998E0,2.823530734E-1,2.840280533E0,1.107637596E1
1.446470998E0,3.732803464E-1,2.502892494E0,1.046859932E1
1.456470998E0,2.991028428E-1,2.038684845E0,9.839286804E0
1.466470998E0,4.833501875E-1,1.698904037E0,9.547362328E0
1.476470998E0,4.307080805E-1,1.380658627E0,9.032905579E0
1.486470998E0,-6.221338734E-2,1.146162033E0,8.013563156E0
1.496470998E0,-5.503492057E-2,1.141376376E0,8.001599312E0
1.506470998E0,-2.392822653E-1,1.304088354E0,8.276773453E0
1.516470998E0,-6.005984545E-1,1.665404558E0,8.827122688E0
1.526470998E0,-1.026520967E0,2.112862349E0,9.504291534E0
1.536470998E0,-1.177268744E0,2.452643156E0,1.019342422E1
1.546470998E0,-1.091127157E0,2.632104874E0,1.082991505E1
1.556470998E0,-7.298108935E-1,2.500499725E0,1.155972576E1
1.566470998E0,-6.293123364E-1,2.359323025E0,1.179183006E1
1.576470998E0,-6.293123364E-1,2.359323025E0,1.179183006E1
1.586470998E0,-6.293123364E-1,2.359323025E0,1.179183006E1
1.596470998E0,-6.293123364E-1,2.359323025E0,1.179183006E1
1.606470998E0,-6.819544435E-1,1.488335729E0,1.073420238E1
1.616470998E0,-7.417750359E-1,1.229910851E0,1.043509960E1
1.626470998E0,-7.417750359E-1,1.229910851E0,1.043509960E1
1.636470998E0,-7.417750359E-1,1.229910851E0,1.043509960E1
1.646470998E0,-4.043870270E-1,9.403793216E-1,9.236295700E0
1.656470998E0,-2.392822644E-3,8.422735929E-1,9.434899330E0
1.666470998E0,1.674975902E-1,7.992027402E-1,9.458827972E0
1.676470998E0,1.316052526E-1,1.117448211E0,9.432506561E0
1.686470998E0,-2.249253243E-1,1.471585870E0,9.492327690E0
1.696470998E0,1.698904037E-1,1.928615093E0,9.899106979E0
1.706470998E0,3.876372576E-1,2.067398787E0,1.025803089E1
1.716470998E0,3.014956415E-1,2.445464849E0,1.055234814E1
1.726470998E0,-4.307080805E-2,2.866601467E0,1.082034397E1
1.736470998E0,-2.703889608E-1,3.120240688E0,1.102134132E1
1.746470998E0,-4.809573591E-1,3.254238844E0,1.095434189E1
1.756470998E0,-2.967100143E-1,3.096312523E0,1.066959572E1
1.766470998E0,4.857429862E-1,2.287538528E0,9.238688469E0
1.776470998E0,5.479564071E-1,1.942971945E0,8.525627136E0
1.786470998E0,2.775674164E-1,1.765903115E0,7.886743546E0
1.796470998E0,2.895315289E-1,1.665404558E0,7.719245911E0
1.806470998E0,-1.459621787E-1,1.674975872E0,7.592426300E0
1.816470998E0,-3.565305769E-1,1.734796405E0,7.671389580E0
1.826470998E0,-3.804588020E-1,1.966900229E0,7.941778183E0
1.836470998E0,-3.254238665E-1,2.557927370E0,8.841479301E0
1.846470998E0,-2.105683982E-1,2.775674343E0,9.087940216E0
1.856470998E0,-6.699903309E-2,2.926422119E0,9.162117958E0
1.866470998E0,5.264209956E-2,3.046063185E0,9.181260109E0
1.876470998E0,9.810572863E-2,3.141776085E0,9.260223389E0
1.886470998E0,-9.092725813E-2,3.235096216E0,9.272188187E0
1.896470998E0,-8.374879509E-2,3.282952785E0,9.248259544E0
1.906470998E0,-3.421736360E-1,3.467200041E0,9.308079720E0
1.916470998E0,-3.421736360E-1,3.467200041E0,9.308079720E0
1.926470998E0,-3.421736360E-1,3.467200041E0,9.308079720E0
1.936470998E0,1.292124242E-1,3.273381472E0,9.339186668E0
1.946470998E0,3.948157430E-1,3.117847919E0,9.341579437E0
1.956470998E0,6.364908218E-1,3.031706333E0,9.451649666E0
1.966470998E0,7.298108935E-1,2.974278450E0,9.571290970E0
1.976470998E0,7.298108935E-1,2.974278450E0,9.571290970E0
1.986470998E0,7.298108935E-1,2.974278450E0,9.571290970E0
1.996470998E0,6.364908218E-1,2.687139750E0,1.026042366E1
2.006470998E0,4.067798555E-1,2.519642353E0,9.980463028E0
2.016470998E0,1.866401732E-1,2.316252232E0,9.451649666E0
2.026470998E0,9.571290761E-2,2.187039852E0,8.827122688E0
2.036470998E0,1.603191197E-1,2.120040894E0,8.264809608E0
2.046470998E0,1.603191197E-1,2.120040894E0,8.264809608E0
2.056470998E0,4.809573591E-1,2.213361025E0,7.338787079E0
2.066470998E0,5.264210105E-1,2.423929453E0,7.386643410E0
2.076470998E0,5.862415433E-1,2.744567633E0,7.690532207E0
2.086470998E0,6.460621357E-1,3.215953588E0,8.279166222E0
2.096470998E0,6.269195080E-1,3.749552965E0,9.071190834E0
2.106470998E0,6.149554253E-1,4.211368084E0,9.987641335E0
2.116470998E0,6.149554253E-1,4.211368084E0,9.987641335E0
2.126470998E0,6.747759581E-1,4.541577339E0,1.190907860E1
2.136470998E0,8.877372146E-1,4.340580463E0,1.208854008E1
2.146470998E0,1.076770186E0,4.063013077E0,1.199043465E1
2.156470998E0,1.237089276E0,3.610769272E0,1.150229836E1
2.166470998E0,1.182054400E0,3.220739365E0,1.071984577E1
2.176470998E0,1.019342422E0,2.804388046E0,9.817750931E0
2.186470998E0,5.383850932E-1,2.100898266E0,8.209774017E0
2.196470998E0,3.517449200E-1,1.804188251E0,7.609176159E0
2.206470998E0,2.321037948E-1,1.691725612E0,7.216753006E0
2.216470998E0,-3.589234129E-2,1.593619823E0,6.888936520E0
2.226470998E0,-1.244267747E-1,1.617548108E0,6.738188744E0
2.236470998E0,-2.464607358E-1,1.545763373E0,6.498906136E0
2.246470998E0,4.546362907E-2,1.684547186E0,6.709474564E0
2.256470998E0,-3.038884699E-1,2.713460922E0,8.324629784E0
2.266470998E0,-8.614161611E-1,3.395415306E0,9.387042999E0
2.276470998E0,-1.404586911E0,4.031906128E0,1.038963604E1
2.286470998E0,-1.404586911E0,4.031906128E0,1.038963604E1
2.296470998E0,-1.095912814E0,4.213760853E0,1.185882950E1
2.306470998E0,-4.498506486E-1,3.854837179E0,1.224885941E1
2.316470998E0,4.067798331E-2,3.433700562E0,1.227996540E1
2.326470998E0,4.067798331E-2,3.433700562E0,1.227996540E1
2.336470998E0,4.067798331E-2,3.433700562E0,1.227996540E1
2.346470998E0,4.067798331E-2,3.433700562E0,1.227996540E1
2.356470998E0,6.939185411E-2,1.974078655E0,8.595019341E0
2.366470998E0,3.110669367E-2,1.780260086E0,7.896314621E0
2.376470998E0,-1.268195957E-1,1.720439434E0,7.372286797E0
2.386470998E0,-3.541377485E-1,1.818545222E0,7.049255371E0
2.396470998E0,-3.541377485E-1,1.818545222E0,7.049255371E0
2.406470998E0,-3.541377485E-1,1.818545222E0,7.049255371E0
2.416470998E0,-5.335994363E-1,2.507678032E0,8.068597794E0
2.426470998E0,-5.479564071E-1,2.696711063E0,8.784051895E0
2.436470998E0,-5.934200287E-1,2.888136864E0,9.482755661E0
2.446470998E0,-6.340979934E-1,3.031706333E0,1.004506969E1
2.456470998E0,-6.077769399E-1,3.084348440E0,1.038006496E1
2.466470998E0,-2.656033039E-1,3.053241730E0,1.059302616E1
2.476470998E0,-1.196411327E-1,2.940778971E0,1.046620655E1
2.486470998E0,-5.982056633E-2,2.809173822E0,1.020299530E1
2.496470998E0,-1.148554832E-1,2.665604353E0,9.848857880E0
2.506470998E0,-1.962114573E-1,2.574677229E0,9.461220741E0
2.516470998E0,-2.464607358E-1,2.538784742E0,9.243474007E0
2.526470998E0,-2.823530734E-1,2.569891453E0,9.159725189E0
2.536470998E0,-3.804588020E-1,2.732603550E0,9.037691116E0
2.546470998E0,-3.565305769E-1,2.823530674E0,8.949156761E0
2.556470998E0,-2.823530734E-1,2.924029350E0,8.882157326E0
2.566470998E0,-2.057827413E-1,2.998206854E0,8.872586250E0
2.576470998E0,-1.842473447E-1,3.060420275E0,8.941978455E0
2.586470998E0,-2.416750938E-1,3.125026464E0,8.989834785E0
2.596470998E0,-2.392822653E-1,3.201596737E0,8.882157326E0
2.606470998E0,-9.810572863E-2,3.053241730E0,8.382058144E0
2.616470998E0,2.943171859E-1,2.895315409E0,7.716853142E0
2.626470998E0,4.522434771E-1,2.809173822E0,7.188039303E0
2.636470998E0,4.881358147E-1,2.816352367E0,7.326822758E0
2.646470998E0,1.363908947E-1,2.995813847E0,7.563712597E0
2.656470998E0,-1.172483116E-1,3.287738323E0,7.951349735E0
2.666470998E0,-1.794617027E-1,3.519842148E0,8.463413239E0
2.676470998E0,-2.033899277E-1,3.591626883E0,9.382257462E0
2.686470998E0,-3.254238665E-1,3.510270834E0,9.561718941E0
2.696470998E0,-4.474578202E-1,3.326023579E0,9.614361763E0
2.706470998E0,-4.474578202E-1,3.326023579E0,9.614361763E0
2.716470998E0,-7.226324677E-1,2.830709219E0,9.430113792E0
2.726470998E0,-9.332008362E-1,2.756531715E0,9.482755661E0
2.736470998E0,-1.098305583E0,2.667997360E0,9.518648148E0
2.746470998E0,-1.098305583E0,2.667997360E0,9.518648148E0
2.756470998E0,-1.098305583E0,2.667997360E0,9.518648148E0
2.766470998E0,-1.098305583E0,2.667997360E0,9.518648148E0
2.776470998E0,-3.589234054E-1,2.502892494E0,1.005703354E1
2.786470998E0,-2.416750938E-1,2.679961443E0,1.023649502E1
2.796470998E0,-4.402793646E-1,2.732603550E0,1.046859932E1
2.806470998E0,-4.354937077E-1,2.797209740E0,1.057149029E1
2.816470998E0,-4.354937077E-1,2.797209740E0,1.057149029E1
2.826470998E0,-4.354937077E-1,2.797209740E0,1.057149029E1
2.836470998E0,-1.531406492E-1,2.897708178E0,9.918250084E0
2.846470998E0,-9.571290761E-2,2.768495798E0,9.547362328E0
2.856470998E0,-5.264209956E-2,2.648854733E0,9.147761345E0
2.866470998E0,-1.531406492E-1,2.665604353E0,8.815158844E0
2.876470998E0,-2.177468538E-1,2.816352367E0,8.769695282E0
2.886470998E0,-5.718846321E-1,3.117847919E0,9.097511292E0
2.896470998E0,-5.240281820E-1,3.254238844E0,9.245866776E0
2.906470998E0,-4.666004181E-1,3.299702406E0,9.296115875E0
2.916470998E0,-4.761717021E-1,3.314059258E0,9.298508644E0
2.926470998E0,-4.713860750E-1,3.371487141E0,9.327222824E0
2.936470998E0,-8.039883971E-1,3.412165165E0,9.420542717E0
2.946470998E0,-9.690931439E-1,3.323630571E0,9.506684303E0
2.956470998E0,-5.623133183E-1,3.089133978E0,9.183652878E0
2.966470998E0,-7.633104324E-1,3.144168854E0,8.992227554E0
2.976470998E0,-9.954141974E-1,3.261417150E0,8.973084450E0
2.986470998E0,-9.140582681E-1,3.337987661E0,9.116654396E0
2.996470998E0,-5.264210105E-1,3.326023579E0,9.243474007E0
3.006470998E0,-1.746760458E-1,3.306880951E0,9.233902931E0
3.016470998E0,-2.392822690E-2,3.215953588E0,9.016156197E0
3.026470998E0,-1.268195957E-1,2.971885681E0,8.429914474E0
3.036470998E0,-3.373879790E-1,2.897708178E0,8.190631866E0
3.046470998E0,-5.048855543E-1,2.737389088E0,7.975277901E0
3.056470998E0,-6.412764788E-1,2.586641312E0,7.877171993E0
3.066470998E0,-5.551348329E-1,2.612962246E0,8.102097511E0
3.076470998E0,-4.474578202E-1,2.809173822E0,8.678768158E0
3.086470998E0,-6.580262184E-1,3.364308596E0,1.024606609E1
3.096470998E0,-8.733802438E-1,3.524627686E0,1.073659515E1
3.106470998E0,-1.098305583E0,3.531806231E0,1.101894855E1
3.116470998E0,-1.158126116E0,3.498306751E0,1.123908806E1
3.126470998E0,-1.107876897E0,3.407379389E0,1.113858986E1
3.136470998E0,-7.609176040E-1,3.323630571E0,1.077966595E1
3.146470998E0,-4.618147612E-1,3.213560820E0,1.008096218E1
3.156470998E0,-8.374879509E-2,2.813959360E0,8.405985832E0
3.166470998E0,-8.374879509E-2,2.813959360E0,8.405985832E0
3.176470998E0,-8.374879509E-2,2.813959360E0,8.405985832E0
3.186470998E0,-8.374879509E-2,2.813959360E0,8.405985832E0
3.196470998E0,-3.541377485E-1,2.780459881E0,7.111468792E0
3.206470998E0,-4.881358147E-1,2.919243574E0,7.264609337E0
3.216470998E0,-5.790630579E-1,3.151347399E0,7.623532772E0
3.226470998E0,-5.790630579E-1,3.151347399E0,7.623532772E0
3.236470998E0,-5.790630579E-1,3.151347399E0,7.623532772E0
3.246470998E0,-5.790630579E-1,3.151347399E0,7.623532772E0
3.256470998E0,-5.790630579E-1,3.151347399E0,7.623532772E0
3.266470998E0,-1.033699393E0,4.319045067E0,9.714859962E0
3.276470998E0,-1.165304661E0,4.448257446E0,9.875179291E0
3.286470998E0,-9.355936646E-1,4.455435753E0,1.003549862E1
3.296470998E0,-9.355936646E-1,4.455435753E0,1.003549862E1
3.306470998E0,-9.355936646E-1,4.455435753E0,1.003549862E1
3.306470998E0,-1.890329868E-1,3.586841106E0,9.154939651E0
3.326470998E0,2.344966233E-1,3.196810961E0,8.300702095E0
3.336470998E0,-1.603191197E-1,3.065205812E0,7.920242786E0
3.346470998E0,-5.312066078E-1,3.103491068E0,7.791030407E0
3.356470998E0,-6.987041831E-1,3.311666489E0,7.805387497E0
3.366470998E0,-1.531406492E-1,3.943371773E0,7.960920811E0
3.366470998E0,-1.531406492E-1,3.943371773E0,7.960920811E0
3.386470998E0,-2.440679073E-1,4.029513359E0,8.319844246E0
3.396470998E0,-3.828516304E-1,4.058227062E0,8.542376518E0
3.406470998E0,-3.182454109E-1,4.106083870E0,8.927620888E0
3.416470998E0,5.024927482E-2,4.359723091E0,8.216953278E0
3.426470998E0,3.230310678E-1,4.156332970E0,9.489934921E0
3.436470998E0,1.306481123E0,3.862015724E0,1.010010433E1
3.446470998E0,1.220339537E0,3.778266907E0,1.011446095E1
3.456470998E0,9.858429432E-1,3.857230186E0,9.939785004E0
3.466470998E0,7.848458290E-1,3.979264021E0,9.588040352E0
3.476470998E0,6.771687865E-1,4.055834293E0,9.178867340E0
3.486470998E0,6.771687865E-1,4.055834293E0,9.178867340E0
3.496470998E0,6.532405615E-1,3.991228104E0,8.444271088E0
3.506470998E0,6.532405615E-1,3.991228104E0,8.444271088E0
3.516470998E0,5.359922647E-1,3.821337700E0,7.733603001E0
3.526470998E0,1.387837082E-1,3.907479286E0,7.903493404E0
3.536470998E0,-2.919243574E-1,3.950550079E0,8.327022552E0
3.546470998E0,-5.335994363E-1,4.039084435E0,8.925228119E0
3.556470998E0,-6.149554253E-1,4.146761417E0,9.559326172E0
3.566470998E0,-6.149554253E-1,4.146761417E0,9.559326172E0
3.576470998E0,-6.149554253E-1,4.146761417E0,9.559326172E0
3.586470998E0,-6.149554253E-1,4.146761417E0,9.559326172E0
3.596470998E0,-6.149554253E-1,4.146761417E0,9.559326172E0
3.606470998E0,-1.244267747E-1,3.414557934E0,9.796216011E0
3.616470998E0,-1.866401732E-1,3.105883837E0,9.123832703E0
3.626470998E0,-1.866401732E-1,2.926422119E0,8.563912392E0
3.636470998E0,-2.105683982E-1,2.926422119E0,8.176275253E0
3.646470998E0,-2.105683982E-1,2.926422119E0,8.176275253E0
3.656470998E0,-2.105683982E-1,2.926422119E0,8.176275253E0
3.666470998E0,-2.105683982E-1,2.926422119E0,8.176275253E0
3.676470998E0,-1.014556766E0,3.091526747E0,8.118846893E0
3.686470998E0,-1.375872970E0,3.230310678E0,8.279166222E0
3.696470998E0,-1.560120344E0,3.297309637E0,8.353343964E0
3.706470998E0,-1.801795483E0,3.328416348E0,8.420342445E0
3.716470998E0,-1.801795483E0,3.328416348E0,8.420342445E0
3.726470998E0,-1.801795483E0,3.328416348E0,8.420342445E0
3.736470998E0,-1.792224169E0,3.316452265E0,9.784252167E0
3.746470998E0,-2.065006018E0,3.452843189E0,1.002831936E1
3.756470998E0,-2.139183521E0,3.548556089E0,1.017188931E1
3.766470998E0,-1.909472466E0,3.579662561E0,1.019820976E1
3.776470998E0,-1.471585870E0,3.457628727E0,1.033938694E1
3.786470998E0,-1.471585870E0,3.457628727E0,1.033938694E1
3.796470998E0,-8.063812256E-1,2.758924484E0,9.882357597E0
3.806470998E0,-9.858429432E-1,2.768495798E0,9.413364410E0
3.816470998E0,-1.127019525E0,2.787638426E0,8.970691681E0
3.826470998E0,-1.110269666E0,2.766103029E0,8.611768723E0
3.836470998E0,-1.019342422E0,2.672782898E0,8.240880966E0
3.846470998E0,-8.757730722E-1,2.617748022E0,8.037490845E0
3.856470998E0,-8.757730722E-1,2.617748022E0,8.037490845E0
3.866470998E0,-6.795616150E-1,3.450450182E0,7.968099594E0
3.876470998E0,-6.723831892E-1,3.718446493E0,8.255238533E0
3.886470998E0,-6.556333899E-1,3.912265062E0,8.556734085E0
3.896470998E0,-7.441678643E-1,3.962514400E0,8.867800713E0
3.906470998E0,-9.212366939E-1,3.917050600E0,9.262616158E0
3.916470998E0,-1.182054400E0,3.866801500E0,9.664610863E0
3.926470998E0,-1.507478237E0,3.711267948E0,1.017188931E1
3.936470998E0,-1.464407444E0,3.692125320E0,1.021256733E1
3.946470998E0,-1.395015597E0,3.594019651E0,1.014556789E1
3.956470998E0,-1.351944804E0,3.510270834E0,1.000199890E1
3.966470998E0,-1.251446247E0,3.342773199E0,9.827322960E0
3.976470998E0,-1.172483087E0,3.136990547E0,9.750752449E0
3.986470998E0,-1.131805062E0,3.034099102E0,9.633503914E0
3.996470998E0,-1.198804140E0,3.079562664E0,9.236295700E0
4.006470998E0,-1.378265858E0,3.256631613E0,9.164510727E0
4.016470998E0,-1.265803218E0,3.182454109E0,8.927620888E0
4.026470998E0,-1.272981644E0,3.321237803E0,8.779266357E0
4.036470998E0,-1.205982566E0,3.168097258E0,8.458627701E0
4.046470998E0,-1.189232826E0,3.165704250E0,8.204988480E0
4.056470998E0,-1.155733347E0,3.201596737E0,7.968099594E0
4.066470998E0,-1.237089276E0,3.144168854E0,7.712067604E0
4.076470998E0,-1.344766378E0,3.089133978E0,7.767102242E0
4.086470998E0,-1.232303619E0,3.062813044E0,8.075776100E0
4.096470998E0,-1.672582984E0,3.213560820E0,8.310273170E0
4.106470998E0,-1.708475351E0,3.256631613E0,8.520841599E0
4.116470998E0,-1.641476393E0,3.282952785E0,9.001798630E0
4.126470998E0,-1.718046665E0,3.208775282E0,9.327222824E0
4.136470998E0,-2.340180635E0,3.002992392E0,9.552147865E0
4.146470998E0,-2.565105915E0,3.012563705E0,9.561718941E0
4.156470998E0,-2.337787628E0,2.964707375E0,9.525827408E0
4.166470998E0,-2.356930256E0,2.924029350E0,9.604789734E0
4.176470998E0,-2.333002090E0,2.849851847E0,9.633503914E0
4.186470998E0,-2.328216314E0,2.842673302E0,9.595218658E0
4.196470998E0,-2.227717876E0,2.943171740E0,9.454042435E0
4.206470998E0,-1.835294962E0,2.995813847E0,9.025727272E0
4.216470998E0,-1.667797327E0,2.991028309E0,8.874979019E0
4.226470998E0,-1.619940877E0,3.122633457E0,8.614161491E0
4.236470998E0,-1.679761529E0,3.280559778E0,8.295916557E0
4.246470998E0,-1.739582062E0,3.421736479E0,8.149953842E0
4.256470998E0,-1.852044702E0,3.481556892E0,7.939385414E0
4.266470998E0,-1.887937069E0,3.345165968E0,7.819744587E0
4.276470998E0,-2.208575249E0,3.728017569E0,8.248059273E0
4.286470998E0,-2.337787628E0,3.723232031E0,8.492127419E0
4.296470998E0,-2.337787628E0,3.723232031E0,8.492127419E0
4.306470998E0,-2.337787628E0,3.723232031E0,8.492127419E0
4.316470998E0,-2.337787628E0,3.723232031E0,8.492127419E0
4.326470998E0,-2.426322222E0,3.701696634E0,9.145368576E0
4.336470998E0,-2.457428932E0,3.627519131E0,9.207581520E0
4.346470998E0,-2.457428932E0,3.627519131E0,9.207581520E0
4.356470998E0,-2.457428932E0,3.627519131E0,9.207581520E0
4.366470998E0,-2.457428932E0,3.627519131E0,9.207581520E0
4.376470998E0,-2.012363911E0,2.864208698E0,9.635896683E0
4.386470998E0,-2.141576290E0,2.921636343E0,9.726823807E0
4.396470998E0,-1.890329838E0,3.022135019E0,9.990034103E0
4.406470998E0,-1.732403636E0,3.072384357E0,1.009771156E1
4.416470998E0,-1.732403636E0,3.072384357E0,1.009771156E1
4.426470998E0,-1.732403636E0,3.072384357E0,1.009771156E1
4.436470998E0,-1.567298889E0,3.364308596E0,9.367900848E0
4.446470998E0,-1.641476393E0,3.349951744E0,9.224330902E0
4.456470998E0,-1.689332843E0,3.326023579E0,9.154939651E0
4.466470998E0,-1.832902193E0,3.397808075E0,8.994620323E0
4.476470998E0,-1.828116536E0,3.390629768E0,8.788837433E0
4.486470998E0,-1.828116536E0,3.390629768E0,8.788837433E0
4.496470998E0,-1.828116536E0,3.390629768E0,8.788837433E0
4.506470998E0,-1.691725612E0,3.383451223E0,8.836693764E0
4.516470998E0,-1.545763373E0,3.330809116E0,9.037691116E0
4.526470998E0,-1.378265858E0,3.254238844E0,9.241081238E0
4.536470998E0,-1.557727575E0,3.273381472E0,9.430113792E0
4.546470998E0,-1.682154298E0,3.309273720E0,9.623932838E0
4.556470998E0,-1.682154298E0,3.309273720E0,9.623932838E0
4.566470998E0,-1.438086390E0,3.074777126E0,9.427721024E0
4.576470998E0,-1.387837172E0,2.967100143E0,9.166903496E0
4.586470998E0,-1.495514154E0,2.921636343E0,8.939585686E0
4.596470998E0,-1.648654819E0,2.998206854E0,8.925228119E0
4.606470998E0,-1.732403636E0,3.065205812E0,9.073583603E0
4.616470998E0,-1.873580098E0,3.208775282E0,9.279366493E0
4.626470998E0,-1.799402595E0,3.345165968E0,9.480362892E0
4.636470998E0,-1.720439434E0,3.218346357E0,9.566504478E0
4.646470998E0,-1.581655741E0,3.050848961E0,9.458827972E0
4.656470998E0,-1.540977836E0,2.895315409E0,9.226723671E0
4.666470998E0,-1.390229940E0,2.766103029E0,9.037691116E0
4.676470998E0,-1.359123230E0,2.713460922E0,8.831908226E0
4.686470998E0,-1.596012712E0,2.682354212E0,8.688339233E0
4.696470998E0,-1.765903115E0,2.979064226E0,8.671588898E0
4.706470998E0,-1.727617979E0,3.127419233E0,8.709874153E0
4.716470998E0,-1.897508383E0,3.165704250E0,8.755337715E0
4.726470998E0,-1.983649969E0,3.299702406E0,8.779266357E0
4.736470998E0,-2.098505497E0,3.381058455E0,8.874979019E0
4.746470998E0,-2.222932339E0,3.357130051E0,8.879764557E0
4.756470998E0,-2.076970100E0,3.206382275E0,8.939585686E0
4.766470998E0,-1.610369682E0,3.055634499E0,9.164510727E0
4.776470998E0,-1.753939033E0,3.034099102E0,9.312865257E0
4.786470998E0,-1.811366796E0,3.091526747E0,9.403793335E0
4.796470998E0,-1.811366796E0,3.091526747E0,9.403793335E0
4.806470998E0,-1.780260086E0,3.141776085E0,9.401400566E0
4.816470998E0,-1.591227055E0,3.055634499E0,9.322437286E0
4.826470998E0,-1.383051515E0,2.974278450E0,9.176474571E0
4.836470998E0,-1.383051515E0,2.974278450E0,9.176474571E0
4.846470998E0,-1.383051515E0,2.974278450E0,9.176474571E0
4.856470998E0,-1.383051515E0,2.974278450E0,9.176474571E0
4.866470998E0,-2.199003935E0,2.806781054E0,8.793622971E0
4.876470998E0,-2.457428932E0,2.981456995E0,9.102297783E0
4.886470998E0,-2.569891453E0,3.194418192E0,9.554540634E0
4.896470998E0,-2.562713146E0,3.330809116E0,9.856036186E0
4.906470998E0,-2.562713146E0,3.330809116E0,9.856036186E0
4.916470998E0,-2.562713146E0,3.330809116E0,9.856036186E0
4.926470998E0,-1.775474429E0,2.962314367E0,9.729216576E0
4.926470998E0,-1.775474429E0,2.962314367E0,9.729216576E0
4.946470998E0,-1.907079697E0,2.909672260E0,9.628718376E0
4.956470998E0,-1.981257200E0,2.900100946E0,9.626325607E0
4.966470998E0,-2.081755638E0,2.916850805E0,9.702896118E0
4.976470998E0,-2.081755638E0,2.916850805E0,9.702896118E0
4.986470998E0,-1.990828395E0,3.180061340E0,9.798608780E0
4.996470998E0,-1.725225091E0,3.187239647E0,9.602396965E0
5.006470998E0,-1.517049551E0,3.026920557E0,9.332008362E0
5.016470998E0,-1.488335729E0,2.835494757E0,9.008976936E0
5.026470998E0,-1.450050473E0,2.612962246E0,8.769695282E0
5.036470998E0,-1.531406522E0,2.651247501E0,8.719446182E0
5.046470998E0,-1.531406522E0,2.651247501E0,8.719446182E0
5.056470998E0,-1.935793519E0,3.213560820E0,8.898907661E0
5.066470998E0,-1.914258122E0,3.249453068E0,8.755337715E0
5.076470998E0,-1.715653777E0,3.177668571E0,8.621339798E0
5.086470998E0,-1.756331801E0,3.029313564E0,8.547162056E0
5.096470998E0,-1.600798368E0,3.002992392E0,8.532805443E0
5.106470998E0,-1.715653777E0,3.062813044E0,8.693124771E0
5.116470998E0,-1.914258122E0,3.065205812E0,9.121439934E0
5.126470998E0,-2.009970903E0,3.101098061E0,9.370293617E0
5.136470998E0,-2.057827473E0,3.148954630E0,9.681360245E0
5.146470998E0,-2.172683001E0,3.208775282E0,9.958928108E0
5.156470998E0,-2.287538528E0,3.263810158E0,1.007617569E1
5.166470998E0,-2.227717876E0,3.203989506E0,1.015753174E1
5.176470998E0,-2.045863390E0,3.060420275E0,1.013838959E1
5.186470998E0,-1.730010748E0,2.675175667E0,9.757930756E0
5.196470998E0,-1.698904037E0,2.622533560E0,9.384650230E0
5.206470998E0,-1.605584025E0,2.622533560E0,9.078369141E0
5.216470998E0,-1.450050473E0,2.634497643E0,8.752944946E0
5.226470998E0,-1.339980721E0,2.634497643E0,8.461020470E0
5.236470998E0,-1.086341500E0,2.589034081E0,8.264809608E0
5.246470998E0,-1.349551916E0,2.596212626E0,7.994420528E0
5.256470998E0,-1.349551916E0,2.596212626E0,7.994420528E0
5.266470998E0,-1.349551916E0,2.596212626E0,7.994420528E0
5.276470998E0,-1.349551916E0,2.596212626E0,7.994420528E0
5.286470998E0,-1.840080619E0,3.455235958E0,8.408378601E0
5.296470998E0,-2.045863390E0,3.414557934E0,8.580661774E0
5.306470998E0,-2.263610125E0,3.328416348E0,8.724231720E0
5.316470998E0,-2.433500528E0,3.184846878E0,8.843872070E0
5.326470998E0,-2.433500528E0,3.184846878E0,8.843872070E0
5.336470998E0,-2.433500528E0,3.184846878E0,8.843872070E0
5.346470998E0,-2.414358139E0,2.677568436E0,9.724431038E0
5.356470998E0,-2.445464849E0,2.682354212E0,9.920642853E0
5.366470998E0,-2.385644197E0,2.708675146E0,1.010249710E1
5.376470998E0,-2.301895380E0,2.689532757E0,1.025085258E1
5.386470998E0,-2.215753794E0,2.670390129E0,1.024367332E1
5.396470998E0,-2.215753794E0,2.670390129E0,1.024367332E1
5.406470998E0,-2.215753794E0,2.670390129E0,1.024367332E1
5.416470998E0,-2.215753794E0,2.670390129E0,1.024367332E1
5.426470998E0,-1.342373490E0,2.486142635E0,9.020941734E0
5.436470998E0,-1.361516118E0,2.529213428E0,8.748159409E0
5.446470998E0,-1.435693622E0,2.557927370E0,8.487341881E0
5.456470998E0,-1.536192179E0,2.593819857E0,8.267202377E0
5.466470998E0,-1.911865234E0,2.648854733E0,8.015955925E0
5.476470998E0,-2.124826431E0,2.691925526E0,8.114061356E0
5.486470998E0,-2.333002090E0,2.744567633E0,8.362915039E0
5.496470998E0,-2.452643156E0,2.801995277E0,8.800801277E0
5.506470998E0,-2.435893536E0,2.857030153E0,9.367900848E0
5.516470998E0,-2.297109842E0,2.842673302E0,9.906285286E0
5.526470998E0,-2.187039852E0,2.787638426E0,1.031785107E1
5.536470998E0,-2.187039852E0,2.787638426E0,1.031785107E1
5.546470998E0,-2.086541414E0,2.567498684E0,1.013121128E1
5.556470998E0,-1.789831281E0,2.440679073E0,1.015274620E1
5.566470998E0,-1.648654819E0,2.342573404E0,1.007378292E1
5.576470998E0,-1.655833244E0,2.321038008E0,1.003310490E1
5.586470998E0,-1.797009826E0,2.359323025E0,1.005942631E1
5.596470998E0,-1.940579176E0,2.435893536E0,1.001156998E1
5.606470998E0,-1.971685886E0,2.749353170E0,9.949356079E0
5.616470998E0,-1.909472466E0,2.988635540E0,9.815358162E0
5.626470998E0,-1.828116536E0,3.172882795E0,9.573683739E0
5.636470998E0,-1.837687731E0,3.158525944E0,9.434899330E0
5.646470998E0,-1.938186288E0,3.065205812E0,9.317651749E0
5.656470998E0,-1.962114573E0,2.914458036E0,9.248259544E0
5.666470998E0,-1.921436548E0,2.775674343E0,8.946763992E0
5.676470998E0,-1.828116536E0,2.567498684E0,8.123632431E0
5.686470998E0,-1.820937991E0,2.486142635E0,7.884350777E0
5.696470998E0,-1.820937991E0,2.486142635E0,7.884350777E0
5.706470998E0,-2.096112728E0,2.395215511E0,7.944170952E0
5.716470998E0,-2.316252232E0,2.380858421E0,8.228917122E0
5.726470998E0,-2.500499725E0,2.366501570E0,8.606983185E0
5.736470998E0,-2.581855536E0,2.359323025E0,9.052047729E0
5.746470998E0,-2.581855536E0,2.359323025E0,9.052047729E0
5.756470998E0,-2.581855536E0,2.359323025E0,9.052047729E0
5.766470998E0,-2.222932339E0,2.823530674E0,1.107637596E1
5.776470998E0,-2.072184324E0,3.005385160E0,1.106919765E1
5.786470998E0,-1.765903115E0,3.022135019E0,1.071506023E1
5.796470998E0,-1.462014675E0,2.854637384E0,1.026520920E1
5.806470998E0,-1.177268744E0,2.593819857E0,9.583254814E0
5.816470998E0,-1.177268744E0,2.593819857E0,9.583254814E0
5.826470998E0,-1.177268744E0,2.593819857E0,9.583254814E0
5.836470998E0,-1.409372568E0,2.196611166E0,7.518248558E0
5.846470998E0,-1.641476393E0,2.366501570E0,7.386643410E0
5.856470998E0,-2.026720762E0,2.548356056E0,7.494320393E0
5.866470998E0,-2.388036966E0,2.730210543E0,7.791030407E0
5.876470998E0,-2.560320139E0,2.890529871E0,8.173882484E0
5.886470998E0,-2.560320139E0,2.890529871E0,8.173882484E0
5.896470998E0,-2.675175667E0,3.079562664E0,9.482755661E0
5.906470998E0,-2.627319336E0,2.873780012E0,9.858428955E0
5.916470998E0,-2.431107759E0,2.629712105E0,1.005942631E1
5.926470998E0,-2.199003935E0,2.474178553E0,1.013360405E1
5.936470998E0,-2.038684845E0,2.390429735E0,1.004028416E1
5.946470998E0,-1.832902193E0,2.380858421E0,9.920642853E0
5.956470998E0,-1.612762451E0,2.376072884E0,9.521040916E0
5.966470998E0,-1.619940877E0,2.354537487E0,9.217152596E0
5.976470998E0,-1.648654819E0,2.359323025E0,8.994620323E0
5.986470998E0,-1.679761529E0,2.440679073E0,8.817551613E0
5.996470998E0,-1.722832322E0,2.608176708E0,8.841479301E0
6.006470998E0,-1.897508383E0,2.813959360E0,8.987442017E0
6.016470998E0,-2.182254314E0,2.988635540E0,9.150154114E0
6.026470998E0,-2.462214470E0,3.304488182E0,9.525827408E0
6.036470998E0,-2.438286304E0,3.261417150E0,9.635896683E0
6.046470998E0,-2.292324066E0,3.055634499E0,9.559326172E0
6.056470998E0,-2.163111687E0,2.818745136E0,9.497113228E0
6.066470998E0,-2.103291035E0,2.608176708E0,9.568898201E0
6.076470998E0,-2.072184324E0,2.490928411E0,9.798608780E0
6.086470998E0,-2.024327993E0,2.495713949E0,1.008335495E1
6.096470998E0,-1.947757602E0,2.672782898E0,1.010728264E1
6.106470998E0,-1.799402595E0,2.624926329E0,9.815358162E0
6.116470998E0,-1.617548108E0,2.433500528E0,9.432506561E0
6.126470998E0,-1.490728498E0,2.263610125E0,9.049654961E0
6.136470998E0,-1.500299811E0,2.227717876E0,8.836693764E0
6.146470998E0,-1.703689694E0,2.359323025E0,8.851051331E0
6.156470998E0,-1.703689694E0,2.359323025E0,8.851051331E0
6.166470998E0,-1.703689694E0,2.359323025E0,8.851051331E0
6.176470998E0,-1.703689694E0,2.359323025E0,8.851051331E0
6.186470998E0,-1.703689694E0,2.359323025E0,8.851051331E0
6.196470998E0,-2.076970100E0,2.928814888E0,9.635896683E0
6.206470998E0,-1.837687731E0,2.653640270E0,9.552147865E0
6.216470998E0,-1.591227055E0,2.467000246E0,9.300901413E0
6.226470998E0,-1.591227055E0,2.467000246E0,9.300901413E0
6.236470998E0,-1.591227055E0,2.467000246E0,9.300901413E0
6.246470998E0,-1.591227055E0,2.467000246E0,9.300901413E0
6.256470998E0,-2.148754835E0,2.411965132E0,8.614161491E0
6.266470998E0,-2.423929453E0,2.589034081E0,8.999405861E0
6.276470998E0,-2.610569477E0,2.837887764E0,9.231510162E0
6.286470998E0,-2.749353170E0,2.991028309E0,9.497113228E0
6.296470998E0,-2.749353170E0,2.991028309E0,9.497113228E0
6.306470998E0,-2.749353170E0,2.991028309E0,9.497113228E0
6.316470998E0,-2.316252232E0,3.256631613E0,1.003789139E1
6.326470998E0,-2.074577332E0,3.091526747E0,9.930213928E0
6.336470998E0,-1.782652855E0,2.818745136E0,9.535398483E0
6.346470998E0,-1.459621787E0,2.519642353E0,8.973084450E0
6.356470998E0,-1.174875975E0,2.304288149E0,8.444271088E0
6.366470998E0,-1.174875975E0,2.304288149E0,8.444271088E0
6.376470998E0,-1.033699393E0,2.519642353E0,7.929814339E0
6.386470998E0,-1.356730461E0,2.792423964E0,8.054241180E0
6.396470998E0,-1.698904037E0,3.036491871E0,8.370093346E0
6.406470998E0,-2.065006018E0,3.232703447E0,8.884550095E0
6.416470998E0,-2.397608280E0,3.393022537E0,9.324830055E0
6.426470998E0,-2.569891453E0,3.467200041E0,9.559326172E0
6.436470998E0,-2.261217356E0,3.208775282E0,9.872786522E0
6.446470998E0,-2.031506538E0,2.995813847E0,9.992427826E0
6.456470998E0,-1.971685886E0,2.847458839E0,1.014078236E1
6.466470998E0,-1.986042738E0,2.780459881E0,1.029392338E1
6.476470998E0,-1.998006940E0,2.821137905E0,1.048774147E1
6.486470998E0,-2.017149448E0,2.912065268E0,1.073898792E1
6.496470998E0,-1.983649969E0,2.979064226E0,1.100937653E1
6.506470998E0,-2.242074728E0,3.172882795E0,1.172961617E1
6.516470998E0,-2.445464849E0,3.294916868E0,1.209093285E1
6.526470998E0,-2.447857618E0,3.359523058E0,1.218185997E1
6.536470998E0,-2.306680918E0,3.431307554E0,1.189472103E1
6.546470998E0,-2.115255117E0,3.474378586E0,1.121276665E1
6.556470998E0,-1.998006940E0,3.393022537E0,1.028674412E1
6.566470998E0,-1.825723648E0,3.153740168E0,9.183652878E0
6.576470998E0,-1.095912814E0,2.476571321E0,7.068397999E0
6.586470998E0,-1.028913736E0,2.177468538E0,6.183053493E0
6.596470998E0,-1.028913736E0,2.177468538E0,6.183053493E0
6.606470998E0,-1.028913736E0,2.177468538E0,6.183053493E0
6.616470998E0,-1.249053478E0,1.904686809E0,4.936393261E0
6.626470998E0,-1.830509305E0,2.234896421E0,5.027320385E0
6.636470998E0,-1.962114573E0,3.160918713E0,5.778666496E0
6.646470998E0,-1.962114573E0,3.160918713E0,5.778666496E0
6.656470998E0,-1.962114573E0,3.160918713E0,5.778666496E0
6.666470998E0,-1.962114573E0,3.160918713E0,5.778666496E0
6.676470998E0,-4.366901398E0,4.972285271E0,1.141615677E1
6.686470998E0,-4.101297855E0,4.670789719E0,1.210528946E1
6.696470998E0,-3.881158352E0,4.211368084E0,1.236610699E1
6.706470998E0,-3.144168854E0,3.565305710E0,1.211486149E1
6.716470998E0,-3.144168854E0,3.565305710E0,1.211486149E1
6.726470998E0,-3.144168854E0,3.565305710E0,1.211486149E1
6.736470998E0,-2.364108801E0,1.483550072E0,9.097511292E0
6.746470998E0,-2.053041935E0,1.610369682E0,8.310273170E0
6.756470998E0,-1.864008784E0,1.777867198E0,7.628318787E0
6.766470998E0,-1.770688772E0,1.998006940E0,7.109076023E0
6.776470998E0,-1.734796405E0,2.380858421E0,6.786045074E0
6.786470998E0,-1.734796405E0,2.380858421E0,6.786045074E0
6.796470998E0,-2.249253273E0,3.996013880E0,7.508677483E0
6.806470998E0,-2.474178553E0,4.177868366E0,8.073383331E0
6.816470998E0,-2.622533560E0,4.208974838E0,8.525627136E0
6.826470998E0,-2.615355253E0,4.094119549E0,8.812766075E0
6.836470998E0,-2.416750908E0,3.866801500E0,8.989834785E0
6.846470998E0,-2.196611166E0,3.515056372E0,8.918049812E0
6.856470998E0,-1.938186288E0,2.912065268E0,8.599804878E0
6.866470998E0,-2.002792597E0,2.801995277E0,8.595019341E0
6.876470998E0,-2.220539331E0,2.792423964E0,8.702695847E0
6.886470998E0,-2.471785784E0,2.900100946E0,8.968298912E0
6.896470998E0,-2.691925526E0,2.983849764E0,9.477970123E0
6.906470998E0,-2.833101988E0,3.072384357E0,9.961320877E0
6.916470998E0,-2.794816732E0,3.146561861E0,1.045663452E1
6.926470998E0,-2.586641312E0,3.096312523E0,1.132762241E1
6.936470998E0,-2.663211584E0,3.098705292E0,1.156211948E1
6.946470998E0,-2.778067112E0,3.113062143E0,1.166979599E1
6.956470998E0,-2.866601467E0,3.146561861E0,1.167458153E1
6.966470998E0,-2.883351326E0,3.259024382E0,1.149751282E1
6.976470998E0,-2.758924484E0,3.381058455E0,1.112901783E1
6.986470998E0,-2.579462767E0,3.404986620E0,1.062173939E1
6.996470998E0,-2.364108801E0,3.263810158E0,9.425328255E0
7.006470998E0,-2.330609322E0,3.223132133E0,8.877371788E0
7.016470998E0,-2.301895380E0,3.249453068E0,8.425128937E0
7.026470998E0,-2.313859463E0,3.242274761E0,8.087740898E0
7.036470998E0,-2.347358942E0,3.172882795E0,7.850851059E0
7.046470998E0,-2.390429735E0,3.058027267E0,7.716853142E0
7.056470998E0,-2.675175667E0,3.136990547E0,7.822137356E0
7.066470998E0,-2.871387243E0,3.089133978E0,8.642875671E0
7.076470998E0,-2.988635540E0,3.048455954E0,9.162117958E0
7.086470998E0,-3.177668571E0,3.225524902E0,9.657432556E0
7.096470998E0,-3.177668571E0,3.225524902E0,9.657432556E0
7.106470998E0,-3.031706333E0,3.352344513E0,9.966106415E0
7.116470998E0,-2.943171740E0,3.103491068E0,9.844072342E0
7.126470998E0,-2.821137905E0,2.756531715E0,9.604789734E0
7.136470998E0,-2.821137905E0,2.756531715E0,9.604789734E0
7.146470998E0,-2.821137905E0,2.756531715E0,9.604789734E0
7.156470998E0,-2.821137905E0,2.756531715E0,9.604789734E0
7.166470998E0,-3.151347399E0,2.947957516E0,8.922835350E0
7.176470998E0,-2.880958557E0,2.950350285E0,8.870193481E0
7.186470998E0,-2.632104874E0,2.976671457E0,8.918049812E0
7.196470998E0,-2.502892494E0,3.002992392E0,9.013762474E0
7.206470998E0,-2.502892494E0,3.002992392E0,9.013762474E0
7.216470998E0,-2.502892494E0,3.002992392E0,9.013762474E0
7.226470998E0,-2.502892494E0,3.002992392E0,9.013762474E0
7.236470998E0,-2.565105915E0,3.074777126E0,8.650053978E0
7.246470998E0,-2.653640270E0,3.125026464E0,8.647661209E0
7.256470998E0,-2.787638426E0,3.139383316E0,8.891729355E0
7.266470998E0,-2.964707375E0,3.117847919E0,9.286544800E0
7.276470998E0,-2.964707375E0,3.117847919E0,9.286544800E0
7.286470998E0,-3.342773199E0,3.110669374E0,1.046620655E1
7.296470998E0,-3.349951744E0,3.136990547E0,1.072223854E1
7.306470998E0,-3.261417150E0,3.136990547E0,1.075095177E1
7.316470998E0,-2.976671457E0,3.041277647E0,1.059302616E1
7.326470998E0,-2.734996319E0,2.871387243E0,1.024606609E1
7.336470998E0,-2.665604353E0,2.766103029E0,9.760323524E0
7.346470998E0,-2.366501570E0,2.354537487E0,8.863015175E0
7.356470998E0,-2.514856577E0,2.455035925E0,8.516056061E0
7.366470998E0,-2.818745136E0,2.866601467E0,8.389236450E0
7.376470998E0,-3.146561861E0,3.335594654E0,8.549555779E0
7.386470998E0,-3.206382275E0,3.503092289E0,9.078369141E0
7.396470998E0,-3.218346357E0,3.579662561E0,9.748359680E0
7.406470998E0,-3.366701365E0,3.704089403E0,1.013360405E1
7.416470998E0,-2.955136061E0,3.369094372E0,9.602396965E0
7.426470998E0,-2.478964329E0,2.888136864E0,8.944371223E0
7.436470998E0,-2.273181438E0,2.550748825E0,8.173882484E0
7.446470998E0,-2.368894339E0,2.450250387E0,7.458428383E0
7.456470998E0,-2.512463808E0,2.517249346E0,7.006184578E0
7.466470998E0,-2.608176708E0,2.608176708E0,6.711867332E0
7.476470998E0,-2.730210543E0,2.696711063E0,6.628118515E0
7.486470998E0,-3.515056372E0,3.139383316E0,7.357929707E0
7.496470998E0,-3.682554007E0,3.500699520E0,8.262416840E0
7.506470998E0,-3.929014683E0,3.771088600E0,8.997013092E0
7.516470998E0,-4.029513359E0,3.929014683E0,9.556933403E0
7.526470998E0,-5.280959606E0,2.495713949E0,1.166740322E1
7.536470998E0,-2.900100946E0,4.101297855E0,1.027717304E1
7.546470998E0,-3.481556892E0,2.459821701E0,1.043031406E1
7.556470998E0,-3.412165165E0,3.067598581E0,9.621540070E0
7.566470998E0,-3.412165165E0,3.067598581E0,9.621540070E0
7.576470998E0,-3.412165165E0,3.067598581E0,9.621540070E0
7.586470998E0,-3.412165165E0,3.067598581E0,9.621540070E0
7.596470998E0,-2.816352367E0,2.658426046E0,9.080761909E0
7.606470998E0,-3.081955671E0,3.000599623E0,9.087940216E0
7.616470998E0,-3.340380430E0,3.345165968E0,9.367900848E0
7.626470998E0,-3.340380430E0,3.345165968E0,9.367900848E0
7.636470998E0,-3.340380430E0,3.345165968E0,9.367900848E0
7.646470998E0,-3.340380430E0,3.345165968E0,9.367900848E0
7.656470998E0,-2.962314367E0,2.921636343E0,1.006660461E1
7.666470998E0,-2.696711063E0,2.892922640E0,9.712467194E0
7.676470998E0,-2.493321180E0,2.890529871E0,9.212367058E0
7.686470998E0,-2.273181438E0,2.909672260E0,8.836693764E0
7.696470998E0,-2.273181438E0,2.909672260E0,8.836693764E0
7.706470998E0,-2.273181438E0,2.909672260E0,8.836693764E0
7.716470998E0,-2.368894339E0,3.177668571E0,8.379665375E0
7.726470998E0,-2.684746981E0,3.184846878E0,8.815158844E0
7.736470998E0,-2.943171740E0,3.084348440E0,9.073583603E0
7.746470998E0,-3.055634499E0,2.916850805E0,9.061619759E0
7.756470998E0,-3.067598581E0,2.775674343E0,8.889336586E0
7.766470998E0,-3.067598581E0,2.775674343E0,8.889336586E0
7.776470998E0,-3.060420275E0,2.677568436E0,8.602197647E0
7.786470998E0,-2.919243574E0,2.677568436E0,8.463413239E0
7.796470998E0,-2.787638426E0,2.766103029E0,8.307880402E0
7.806470998E0,-2.667997360E0,2.928814888E0,8.152346611E0
7.816470998E0,-3.060420275E0,3.058027267E0,7.984848976E0
7.826470998E0,-3.285345554E0,3.218346357E0,7.877171993E0
7.836470998E0,-3.534198999E0,3.081955671E0,7.544569969E0
7.846470998E0,-3.285345554E0,2.868994236E0,7.412964344E0
7.856470998E0,-3.127419233E0,2.785245657E0,7.324429989E0
7.866470998E0,-3.409772158E0,2.804388046E0,7.472784996E0
7.876470998E0,-3.924229145E0,2.931207657E0,7.850851059E0
7.886470998E0,-4.278367043E0,3.136990547E0,8.520841599E0
7.896470998E0,-4.515256405E0,3.426522017E0,9.260223389E0
7.906470998E0,-4.381258488E0,3.914657831E0,1.041356373E1
7.916470998E0,-3.933800459E0,3.967299938E0,1.063848972E1
7.926470998E0,-3.103491068E0,3.716053486E0,1.065284634E1
7.936470998E0,-2.397608280E0,3.426522017E0,1.019820976E1
7.946470998E0,-1.957328916E0,3.230310678E0,9.477970123E0
7.956470998E0,-1.782652855E0,3.026920557E0,8.851051331E0
7.966470998E0,-1.902294040E0,2.912065268E0,8.346165657E0
7.976470998E0,-2.261217356E0,2.950350285E0,8.032705307E0
7.986470998E0,-2.385644197E0,3.132204771E0,8.075776100E0
7.996470998E0,-2.500499725E0,3.366701365E0,8.145168304E0
8.006470998E0,-2.562713146E0,3.582055569E0,8.267202377E0
8.016470998E0,-2.656033039E0,3.723232031E0,8.372486115E0
8.026470998E0,-2.754138947E0,3.763910055E0,8.434700012E0
8.036470998E0,-2.871387243E0,3.735196114E0,8.525627136E0
8.046470998E0,-3.268595695E0,3.553341627E0,8.953942299E0
8.056470998E0,-3.562912941E0,3.531806231E0,9.241081238E0
8.066470998E0,-3.739981890E0,3.448057413E0,9.566504478E0
8.076470998E0,-3.680161238E0,3.311666489E0,9.848857880E0
8.086470998E0,-3.538984776E0,3.132204771E0,9.990034103E0
8.096470998E0,-3.424129248E0,2.971885681E0,9.992427826E0
8.106470998E0,-3.373879910E0,2.854637384E0,9.903892517E0
8.116470998E0,-3.373879910E0,2.854637384E0,9.903892517E0
8.126470998E0,-3.373879910E0,2.854637384E0,9.903892517E0
8.136470998E0,-3.373879910E0,2.854637384E0,9.903892517E0
8.146470998E0,-3.345165968E0,2.842673302E0,9.080761909E0
8.156470998E0,-3.254238844E0,3.002992392E0,8.901300430E0
8.166470998E0,-3.036491871E0,3.146561861E0,8.539983749E0
8.176470998E0,-2.754138947E0,3.302095175E0,8.133204460E0
8.186470998E0,-2.754138947E0,3.302095175E0,8.133204460E0
8.196470998E0,-2.754138947E0,3.302095175E0,8.133204460E0
8.206470998E0,-2.754138947E0,3.302095175E0,8.133204460E0
8.216470998E0,-2.129612207E0,3.108276606E0,7.424928665E0
8.226470998E0,-2.469393015E0,3.141776085E0,7.561319351E0
8.236470998E0,-3.067598581E0,3.280559778E0,7.779066563E0
8.246470998E0,-3.507878065E0,3.371487141E0,8.145168304E0
8.256470998E0,-3.507878065E0,3.371487141E0,8.145168304E0
8.266470998E0,-3.507878065E0,3.371487141E0,8.145168304E0
8.276470998E0,-3.620340586E0,2.565105915E0,8.757730484E0
8.286470998E0,-3.565305710E0,2.392822742E0,8.501698494E0
8.296470998E0,-3.596412420E0,2.244467735E0,8.240880966E0
8.306470998E0,-3.701696634E0,2.139183521E0,7.972885132E0
8.316470998E0,-3.629911900E0,2.062613010E0,7.755138397E0
8.326470998E0,-3.629911900E0,2.062613010E0,7.755138397E0
8.336470998E0,-3.617947817E0,2.170290232E0,7.262216568E0
8.346470998E0,-3.835694790E0,2.455035925E0,7.408178806E0
8.356470998E0,-4.118047714E0,2.766103029E0,7.707281590E0
8.366470998E0,-4.273581028E0,3.096312523E0,8.238488197E0
8.376470998E0,-4.266402721E0,3.266202927E0,8.831908226E0
8.386470998E0,-4.108476639E0,3.256631613E0,9.205188751E0
8.396470998E0,-3.617947817E0,2.912065268E0,9.410971642E0
8.406470998E0,-3.115455151E0,2.682354212E0,9.133403778E0
8.416470998E0,-3.117847919E0,2.536391973E0,9.044869423E0
8.426470998E0,-3.282952785E0,2.519642353E0,9.224330902E0
8.436470998E0,-3.347558975E0,2.665604353E0,9.470791817E0
8.446470998E0,-3.323630571E0,3.000599623E0,9.841679573E0
8.456470998E0,-3.632304668E0,3.314059258E0,1.048534870E1
8.466470998E0,-2.935993433E0,4.773681164E0,1.054516983E1
8.476470998E0,-3.385843992E0,3.120240688E0,1.094716358E1
8.486470998E0,-3.553341627E0,3.538984776E0,1.070788097E1
8.496470998E0,-4.352544308E0,2.885744095E0,1.047577763E1
8.506470998E0,-3.799802303E0,3.007778168E0,9.992427826E0
8.516470998E0,-3.555734396E0,3.538984776E0,9.547362328E0
8.526470998E0,-3.244667530E0,2.196611166E0,1.003549862E1
8.536470998E0,-2.943171740E0,2.294716835E0,1.136112213E1
8.546470998E0,-3.022135019E0,3.034099102E0,1.083230782E1
8.556470998E0,-3.144168854E0,4.096512318E0,1.073180962E1
8.566470998E0,-2.605783939E0,1.768295884E0,1.063848972E1
8.576470998E0,-2.620140791E0,2.600998163E0,9.461220741E0
8.586470998E0,-3.249453068E0,2.749353170E0,8.798408508E0
8.596470998E0,-3.031706333E0,2.548356056E0,8.736195564E0
8.606470998E0,-2.589034081E0,1.390229940E0,8.676374435E0
8.616470998E0,-2.428714991E0,1.557727575E0,9.879964828E0
8.626470998E0,-2.991028309E0,3.043670416E0,1.011206818E1
8.636470998E0,-2.991028309E0,3.043670416E0,1.011206818E1
8.646470998E0,-2.964707375E0,3.402593851E0,8.800801277E0
8.656470998E0,-2.641676188E0,2.634497643E0,8.111668587E0
8.666470998E0,-3.010170937E0,2.620140791E0,8.142775536E0
8.676470998E0,-3.010170937E0,2.620140791E0,8.142775536E0
8.686470998E0,-3.010170937E0,2.620140791E0,8.142775536E0
8.696470998E0,-3.010170937E0,2.620140791E0,8.142775536E0
8.706470998E0,-3.397808075E0,2.490928411E0,8.975478172E0
8.716470998E0,-2.742174864E0,1.911865234E0,8.408378601E0
8.726470998E0,-2.474178553E0,1.617548108E0,7.848458290E0
8.736470998E0,-2.533999205E0,1.624726534E0,7.573283672E0
8.746470998E0,-2.533999205E0,1.624726534E0,7.573283672E0
8.756470998E0,-2.533999205E0,1.624726534E0,7.573283672E0
8.766470998E0,-2.533999205E0,1.624726534E0,7.573283672E0
8.776470998E0,-3.349951744E0,2.275574446E0,7.106683254E0
8.786470998E0,-3.333201885E0,2.565105915E0,7.197610378E0
8.796470998E0,-3.287738323E0,2.842673302E0,7.467999458E0
8.806470998E0,-3.361915827E0,3.101098061E0,7.781459332E0
8.816470998E0,-3.646661758E0,3.601198196E0,8.597412109E0
8.816470998E0,-3.646661758E0,3.601198196E0,8.597412109E0
8.836470998E0,-4.173082829E0,3.780659676E0,9.729216576E0
8.846470998E0,-4.328616142E0,3.725624800E0,1.023649502E1
8.856470998E0,-4.304687977E0,3.613162279E0,1.062652493E1
8.866470998E0,-4.161118507E0,3.553341627E0,1.085862923E1
8.876470998E0,-3.763910055E0,3.431307554E0,1.091844940E1
8.886470998E0,-3.251846075E0,3.237488985E0,1.012403297E1
8.896470998E0,-2.909672260E0,3.120240688E0,9.564111710E0
8.906470998E0,-2.598605394E0,3.026920557E0,9.056833267E0
8.916470998E0,-2.579462767E0,2.979064226E0,8.654839516E0
8.926470998E0,-2.653640270E0,3.014956474E0,8.470592499E0
8.936470998E0,-2.725425005E0,3.110669374E0,8.386843681E0
8.946470998E0,-2.663211584E0,3.247060299E0,8.348558426E0
8.956470998E0,-2.450250387E0,3.531806231E0,8.281558990E0
8.966470998E0,-2.373680115E0,3.718446493E0,8.384450912E0
8.976470998E0,-2.423929453E0,3.964907169E0,8.606983185E0
8.986470998E0,-2.560320139E0,4.192225456E0,8.863015175E0
8.996470998E0,-2.801995277E0,4.309473515E0,9.188439369E0
9.006470998E0,-3.199203968E0,4.261617184E0,9.552147865E0
9.016470998E0,-3.637090445E0,4.096512318E0,9.801001549E0
9.026470998E0,-4.043870449E0,3.615555048E0,9.918250084E0
9.036470998E0,-4.000799656E0,3.282952785E0,9.896714211E0
9.046470998E0,-3.893122435E0,2.935993433E0,9.765109062E0
9.056470998E0,-3.797409534E0,2.598605394E0,9.506684303E0
9.066470998E0,-3.742374659E0,2.306680918E0,9.162117958E0
9.076470998E0,-3.653840065E0,2.053041935E0,8.824729919E0
9.086470998E0,-3.548556089E0,1.911865234E0,8.530412674E0
9.096470998E0,-3.548556089E0,1.911865234E0,8.530412674E0
9.106470998E0,-3.548556089E0,1.911865234E0,8.530412674E0
9.116470998E0,-2.349751949E0,2.804388046E0,7.977670670E0
9.126470998E0,-2.457428932E0,3.237488985E0,8.114061356E0
9.136470998E0,-2.533999205E0,3.649054527E0,8.166703224E0
9.146470998E0,-2.584248543E0,3.929014683E0,8.236095428E0
9.156470998E0,-2.675175667E0,4.022335052E0,8.336593628E0
9.166470998E0,-2.675175667E0,4.022335052E0,8.336593628E0
9.176470998E0,-2.986242771E0,3.735196114E0,9.083154678E0
9.186470998E0,-3.373879910E0,3.730410576E0,9.635896683E0
9.196470998E0,-3.852444410E0,3.814159393E0,1.010488987E1
9.206470998E0,-4.206582069E0,3.888336897E0,1.034656525E1
9.216470998E0,-4.242474556E0,3.859622955E0,1.026042366E1
9.226470998E0,-4.242474556E0,3.859622955E0,1.026042366E1
9.236470998E0,-2.720639229E0,2.818745136E0,9.032905579E0
9.246470998E0,-2.620140791E0,2.452643156E0,8.865407944E0
9.256470998E0,-2.907279491E0,2.289931297E0,8.812766075E0
9.266470998E0,-3.340380430E0,2.440679073E0,8.822337151E0
9.276470998E0,-3.838087559E0,2.873780012E0,9.049654961E0
9.286470998E0,-4.165904045E0,3.364308596E0,9.293723106E0
9.296470998E0,-3.536591768E0,3.952943087E0,9.432506561E0
9.306470998E0,-3.034099102E0,4.216153622E0,9.487542152E0
9.316470998E0,-2.708675146E0,4.321437836E0,9.375079155E0
9.326470998E0,-2.469393015E0,4.168296814E0,9.111868858E0
9.336470998E0,-2.376072884E0,3.797409534E0,8.853444099E0
9.346470998E0,-2.593819857E0,3.493520975E0,8.872586250E0
9.356470998E0,-3.105883837E0,3.359523058E0,9.109476089E0
9.366470998E0,-4.223331928E0,3.577269793E0,1.010967541E1
9.376470998E0,-4.400400639E0,3.672982693E0,1.062891865E1
9.386470998E0,-4.237689018E0,3.565305710E0,1.086820030E1
9.396470998E0,-3.816552162E0,3.381058455E0,1.086341476E1
9.406470998E0,-3.412165165E0,3.192025423E0,1.078445148E1
9.416470998E0,-3.172882795E0,3.029313564E0,1.052124119E1
9.426470998E0,-2.926422119E0,2.907279491E0,9.982855797E0
9.436470998E0,-2.318645239E0,2.694318295E0,8.597412109E0
9.446470998E0,-2.529213428E0,2.646461725E0,8.305487633E0
9.456470998E0,-2.309073925E0,2.758924484E0,8.228917122E0
9.466470998E0,-2.756531715E0,3.002992392E0,8.475378036E0
9.476470998E0,-3.414557934E0,3.275774240E0,8.652446747E0
9.486470998E0,-3.665804386E0,3.483949661E0,8.623732567E0
9.496470998E0,-3.462414265E0,3.613162279E0,8.449056625E0
9.506470998E0,-2.995813847E0,3.596412420E0,8.159524918E0
9.516470998E0,-2.995813847E0,3.596412420E0,8.159524918E0
9.526470998E0,-2.995813847E0,3.596412420E0,8.159524918E0
9.536470998E0,-2.995813847E0,3.596412420E0,8.159524918E0
9.546470998E0,-2.888136864E0,2.952743053E0,8.786444664E0
9.556470998E0,-2.691925526E0,2.761317253E0,8.532805443E0
9.566470998E0,-2.691925526E0,2.761317253E0,8.532805443E0
9.576470998E0,-2.691925526E0,2.761317253E0,8.532805443E0
9.586470998E0,-2.691925526E0,2.761317253E0,8.532805443E0
9.596470998E0,-2.691925526E0,2.761317253E0,8.532805443E0
9.606470998E0,-3.084348440E0,3.491128206E0,9.236295700E0
9.616470998E0,-3.342773199E0,3.620340586E0,9.418149948E0
9.626470998E0,-3.393022537E0,3.629911900E0,9.334401131E0
9.636470998E0,-3.160918713E0,3.584448338E0,9.135796547E0
9.646470998E0,-3.160918713E0,3.584448338E0,9.135796547E0
9.656470998E0,-3.160918713E0,3.584448338E0,9.135796547E0
9.666470998E0,-2.773281336E0,3.125026464E0,8.458627701E0
9.676470998E0,-2.892922640E0,3.168097258E0,8.556734085E0
9.686470998E0,-2.902493954E0,3.256631613E0,8.740981102E0
9.696470998E0,-2.713460922E0,3.381058455E0,8.858229637E0
9.706470998E0,-2.502892494E0,3.515056372E0,8.903693199E0
9.716470998E0,-2.502892494E0,3.515056372E0,8.903693199E0
9.726470998E0,-2.610569477E0,3.591626883E0,9.111868858E0
9.736470998E0,-2.636890650E0,3.582055569E0,9.181260109E0
9.746470998E0,-2.653640270E0,3.675375462E0,9.212367058E0
9.756470998E0,-2.648854733E0,3.838087559E0,9.250652313E0
9.766470998E0,-2.593819857E0,3.869194269E0,9.241081238E0
9.776470998E0,-2.581855536E0,3.742374659E0,9.121439934E0
9.786470998E0,-2.581855536E0,3.742374659E0,9.121439934E0
9.796470998E0,-3.256631613E0,3.170490026E0,8.851051331E0
9.806470998E0,-3.471985579E0,3.218346357E0,9.233902931E0
9.816470998E0,-3.457628727E0,3.302095175E0,9.434899330E0
9.826470998E0,-3.290131092E0,3.378665686E0,9.432506561E0
9.836470998E0,-3.089133978E0,3.359523058E0,9.298508644E0
9.846470998E0,-2.861815929E0,3.352344513E0,9.257830620E0
9.856470998E0,-3.084348440E0,3.378665686E0,9.559326172E0
9.866470998E0,-3.113062143E0,3.242274761E0,9.722038269E0
9.876470998E0,-3.089133978E0,3.105883837E0,9.769894600E0
9.886470998E0,-2.964707375E0,3.108276606E0,9.722038269E0
9.896470998E0,-2.744567633E0,3.120240688E0,9.652647018E0
9.906470998E0,-2.560320139E0,3.187239647E0,9.640682220E0
9.916470998E0,-2.455035925E0,3.311666489E0,9.738788605E0
9.926470998E0,-2.409572363E0,3.553341627E0,9.585647583E0
9.936470998E0,-2.294716835E0,3.615555048E0,9.355937004E0
9.946470998E0,-2.189432621E0,3.610769272E0,9.087940216E0
9.956470998E0,-2.258824587E0,3.503092289E0,8.846264839E0
9.966470998E0,-2.397608280E0,3.328416348E0,8.786444664E0
9.976470998E0,-2.689532757E0,3.187239647E0,8.874979019E0
9.986470998E0,-3.046063185E0,3.134597778E0,9.016156197E0
9.996470998E0,-3.371487141E0,3.053241730E0,9.174081802E0
1.000647100E1,-3.256631613E0,3.022135019E0,9.178867340E0
1.001647100E1,-3.055634499E0,3.084348440E0,9.202795982E0
1.002647100E1,-2.823530674E0,3.172882795E0,9.353543282E0
1.003647100E1,-2.605783939E0,3.218346357E0,9.564111710E0
1.004647100E1,-2.517249346E0,3.232703447E0,9.755537987E0
1.005647100E1,-2.476571321E0,3.270988464E0,9.879964828E0
1.006647100E1,-2.476571321E0,3.270988464E0,9.879964828E0
1.007647100E1,-2.476571321E0,3.270988464E0,9.879964828E0
1.008647100E1,-2.476571321E0,3.270988464E0,9.879964828E0
1.009647100E1,-2.132004976E0,3.062813044E0,9.262616158E0
1.010647100E1,-2.184647083E0,3.002992392E0,9.085547447E0
1.011647100E1,-2.280359983E0,2.964707375E0,8.949156761E0
1.012647100E1,-2.368894339E0,2.993421078E0,8.870193481E0
1.013647100E1,-2.368894339E0,2.993421078E0,8.870193481E0
1.014647100E1,-2.368894339E0,2.993421078E0,8.870193481E0
1.015647100E1,-2.368894339E0,2.993421078E0,8.870193481E0
1.016647100E1,-2.318645239E0,3.259024382E0,8.812766075E0
1.017647100E1,-2.536391973E0,3.239881754E0,8.927620888E0
1.018647100E1,-2.713460922E0,3.208775282E0,9.099904060E0
1.019647100E1,-2.754138947E0,3.182454109E0,9.231510162E0
1.020647100E1,-2.754138947E0,3.182454109E0,9.231510162E0
1.021647100E1,-2.555534601E0,3.287738323E0,9.367900848E0
1.022647100E1,-2.361716032E0,3.316452265E0,9.322437286E0
1.023647100E1,-2.165504456E0,3.318845034E0,9.255437851E0
1.024647100E1,-1.966900229E0,3.326023579E0,9.164510727E0
1.025647100E1,-1.816152334E0,3.347558975E0,9.131011009E0
1.026647100E1,-1.770688772E0,3.352344513E0,9.226723671E0
1.027647100E1,-1.770688772E0,3.352344513E0,9.226723671E0
1.028647100E1,-1.907079697E0,3.206382275E0,9.454042435E0
1.029647100E1,-1.919043779E0,3.062813044E0,9.181260109E0
1.030647100E1,-1.923829436E0,2.859423161E0,8.750552177E0
1.031647100E1,-1.854437590E0,2.744567633E0,8.382058144E0
1.032647100E1,-1.794616938E0,2.768495798E0,8.116454124E0
1.033647100E1,-1.852044702E0,2.873780012E0,7.996813297E0
1.034647100E1,-2.048256159E0,3.146561861E0,8.449056625E0
1.035647100E1,-2.242074728E0,3.330809116E0,8.733802795E0
1.036647100E1,-2.438286304E0,3.421736479E0,8.958727837E0
1.037647100E1,-2.481357098E0,3.452843189E0,9.121439934E0
1.038647100E1,-2.352144718E0,3.404986620E0,9.195617676E0
1.039647100E1,-2.170290232E0,3.354737282E0,9.269794464E0
1.040647100E1,-2.110469580E0,3.263810158E0,9.415757179E0
1.041647100E1,-2.062613010E0,3.084348440E0,9.791430473E0
1.042647100E1,-2.017149448E0,3.055634499E0,9.920642853E0
1.043647100E1,-1.990828395E0,3.026920557E0,9.942177773E0
1.044647100E1,-1.952543259E0,2.964707375E0,9.767501831E0
1.045647100E1,-1.813759565E0,2.931207657E0,9.420542717E0
1.046647100E1,-1.560120344E0,2.892922640E0,8.965906143E0
1.047647100E1,-1.210768223E0,2.883351326E0,8.566305161E0
1.048647100E1,-1.205982566E0,2.813959360E0,7.953742504E0
1.049647100E1,-1.282552958E0,2.895315409E0,7.925028801E0
1.050647100E1,-1.416550994E0,2.979064226E0,8.023134232E0
1.051647100E1,-1.548156261E0,3.129812002E0,8.327022552E0
1.052647100E1,-1.670190215E0,3.278167009E0,8.662017822E0
1.053647100E1,-1.679761529E0,3.349951744E0,8.867800713E0
1.054647100E1,-1.639083505E0,3.400201082E0,9.166903496E0
1.055647100E1,-1.639083505E0,3.400201082E0,9.166903496E0
1.056647100E1,-1.639083505E0,3.400201082E0,9.166903496E0
1.057647100E1,-1.639083505E0,3.400201082E0,9.166903496E0
1.058647100E1,-1.639083505E0,3.400201082E0,9.166903496E0
1.059647100E1,-1.799402595E0,2.818745136E0,9.908679008E0
1.060647100E1,-2.012363911E0,2.610569477E0,9.762716293E0
1.061647100E1,-1.998006940E0,2.526820660E0,9.549755096E0
1.062647100E1,-1.998006940E0,2.526820660E0,9.549755096E0
1.063647100E1,-1.998006940E0,2.526820660E0,9.549755096E0
1.064647100E1,-1.998006940E0,2.526820660E0,9.549755096E0
1.065647100E1,-1.354337573E0,2.749353170E0,8.939585686E0
1.066647100E1,-1.354337573E0,2.749353170E0,8.939585686E0
1.067647100E1,-1.148554921E0,2.914458036E0,8.772088051E0
1.068647100E1,-1.048056364E0,2.904886723E0,8.748159409E0
1.069647100E1,-1.048056364E0,2.904886723E0,8.748159409E0
1.070647100E1,-1.048056364E0,2.904886723E0,8.748159409E0
1.071647100E1,-9.188438654E-1,2.988635540E0,8.997013092E0
1.072647100E1,-9.643075466E-1,3.029313564E0,9.336793900E0
1.073647100E1,-1.019342422E0,3.187239647E0,9.595218658E0
1.074647100E1,-9.643075466E-1,3.285345554E0,9.930213928E0
1.075647100E1,-8.614161611E-1,3.292523861E0,1.014556789E1
1.076647100E1,-8.614161611E-1,3.292523861E0,1.014556789E1
1.077647100E1,-3.948157430E-1,3.079562664E0,1.018146038E1
1.078647100E1,-3.852444589E-1,2.950350285E0,9.966106415E0
1.079647100E1,-3.541377485E-1,2.758924484E0,9.779465675E0
1.080647100E1,-3.661018610E-1,2.634497643E0,9.616754532E0
1.081647100E1,-4.737788737E-1,2.500499725E0,9.387042999E0
1.082647100E1,-5.982056856E-1,2.409572363E0,9.190832138E0
1.083647100E1,-5.982056856E-1,2.409572363E0,9.190832138E0
1.084647100E1,-1.170090318E0,2.321038008E0,9.492327690E0
1.085647100E1,-1.284945726E0,2.435893536E0,9.702896118E0
1.086647100E1,-1.301695466E0,2.565105915E0,9.755537987E0
1.087647100E1,-1.258624673E0,2.574677229E0,9.585647583E0
1.088647100E1,-1.222732425E0,2.462214470E0,9.391828537E0
1.089647100E1,-1.246660590E0,2.335394859E0,9.233902931E0
1.090647100E1,-1.203589797E0,2.443071842E0,9.363115311E0
1.091647100E1,-1.122233868E0,2.603390932E0,9.458827972E0
1.092647100E1,-9.499505758E-1,2.711068153E0,9.494720459E0
1.093647100E1,-7.776673436E-1,2.763710260E0,9.509077072E0
1.094647100E1,-6.723831892E-1,2.801995277E0,9.533005714E0
1.095647100E1,-6.317051649E-1,2.792423964E0,9.566504478E0
1.096647100E1,-5.312066078E-1,2.672782898E0,9.492327690E0
1.097647100E1,-4.498506486E-1,2.517249346E0,9.209974289E0
1.098647100E1,-3.708875179E-1,2.421536446E0,9.092725754E0
1.099647100E1,-2.775674164E-1,2.349751949E0,9.138189316E0
1.100647100E1,-2.632105052E-1,2.323430777E0,9.265008926E0
1.101647100E1,-2.608176768E-1,2.366501570E0,9.480362892E0
1.102647100E1,-3.062812984E-1,2.390429735E0,9.597611427E0
1.103647100E1,-2.344966233E-1,2.411965132E0,9.602396965E0
1.104647100E1,-2.344966233E-1,2.411965132E0,9.602396965E0
1.105647100E1,-2.344966233E-1,2.411965132E0,9.602396965E0
1.106647100E1,-2.344966233E-1,2.411965132E0,9.602396965E0
1.107647100E1,-2.344966233E-1,2.411965132E0,9.602396965E0
1.108647100E1,-4.546363056E-1,2.584248543E0,9.863214493E0
1.109647100E1,-4.307080805E-1,2.574677229E0,9.927821159E0
1.110647100E1,-3.158525825E-1,2.543570518E0,9.946963310E0
1.111647100E1,-3.158525825E-1,2.543570518E0,9.946963310E0
1.112647100E1,-3.158525825E-1,2.543570518E0,9.946963310E0
1.113647100E1,-1.148554832E-1,2.359323025E0,9.336793900E0
1.114647100E1,-2.871387079E-2,2.261217356E0,8.843872070E0
1.115647100E1,-9.571290575E-3,2.155933142E0,8.401200294E0
1.116647100E1,-5.982056633E-2,2.108076811E0,8.260024071E0
1.117647100E1,-1.890329868E-1,2.091326952E0,8.264809608E0
1.118647100E1,-1.890329868E-1,2.091326952E0,8.264809608E0
1.119647100E1,-1.890329868E-1,2.091326952E0,8.264809608E0
1.120647100E1,-4.546362907E-2,2.622533560E0,8.867800713E0
1.121647100E1,1.435693540E-2,2.804388046E0,8.973084450E0
1.122647100E1,1.148554832E-1,2.833101988E0,9.157332420E0
1.123647100E1,1.722832322E-1,2.746960402E0,9.233902931E0
1.124647100E1,1.698904037E-1,2.593819857E0,9.248259544E0
1.125647100E1,6.460621208E-2,2.359323025E0,9.166903496E0
1.126647100E1,-1.363908947E-1,2.359323025E0,9.245866776E0
1.127647100E1,-2.488535494E-1,2.371287346E0,9.401400566E0
1.128647100E1,-1.818545163E-1,2.371287346E0,9.506684303E0
1.129647100E1,-1.196411327E-1,2.359323025E0,9.559326172E0
1.130647100E1,-5.982056633E-2,2.313859463E0,9.547362328E0
1.131647100E1,7.657032460E-2,2.251646042E0,9.554540634E0
1.132647100E1,7.657032460E-2,2.251646042E0,9.554540634E0
1.133647100E1,5.264209956E-2,2.160718918E0,9.564111710E0
1.134647100E1,-1.483550072E-1,2.210968018E0,9.635896683E0
1.135647100E1,4.785645287E-3,2.289931297E0,9.640682220E0
1.136647100E1,5.264209956E-2,2.270788670E0,9.580862045E0
1.137647100E1,0.000000000E0,2.306680918E0,9.458827972E0
1.138647100E1,7.178468257E-2,2.335394859E0,9.535398483E0
1.139647100E1,1.722832322E-1,2.443071842E0,9.659825325E0
1.140647100E1,1.627119333E-1,2.443071842E0,9.712467194E0
1.141647100E1,1.411765367E-1,2.435893536E0,9.664610863E0
1.142647100E1,2.847459018E-1,2.323430777E0,9.372686386E0
1.143647100E1,3.948157430E-1,2.285145521E0,9.662218094E0
1.144647100E1,1.962114573E-1,2.313859463E0,9.927821159E0
1.145647100E1,5.742774159E-2,2.392822742E0,1.014078236E1
1.146647100E1,-7.178467698E-3,2.529213428E0,1.003789139E1
1.147647100E1,-1.387837082E-1,2.610569477E0,1.004028416E1
1.148647100E1,-3.158525825E-1,2.624926329E0,9.951749802E0
1.149647100E1,-4.163511395E-1,2.505285263E0,9.942177773E0
1.150647100E1,-3.517449200E-1,2.321038008E0,9.810572624E0
1.151647100E1,-9.810572863E-2,2.110469580E0,9.504291534E0
1.152647100E1,2.943171859E-1,1.974078655E0,9.166903496E0
1.153647100E1,2.943171859E-1,1.974078655E0,9.166903496E0
1.154647100E1,2.943171859E-1,1.974078655E0,9.166903496E0
1.155647100E1,2.943171859E-1,1.974078655E0,9.166903496E0
1.156647100E1,8.638089895E-1,2.017149448E0,9.008976936E0
1.157647100E1,8.877372146E-1,1.926222205E0,9.066405296E0
1.158647100E1,6.652047038E-1,1.919043779E0,9.145368576E0
1.159647100E1,4.426721931E-1,2.086541414E0,9.329615593E0
1.160647100E1,4.426721931E-1,2.086541414E0,9.329615593E0
1.161647100E1,4.426721931E-1,2.086541414E0,9.329615593E0
1.162647100E1,4.139583111E-1,2.155933142E0,9.310472488E0
1.163647100E1,5.383850932E-1,2.065006018E0,9.238688469E0
1.164647100E1,5.934200287E-1,2.096112728E0,9.245866776E0
1.165647100E1,5.862415433E-1,2.179861546E0,9.332008362E0
1.166647100E1,5.312066078E-1,2.261217356E0,9.358329773E0
1.167647100E1,5.312066078E-1,2.261217356E0,9.358329773E0
1.168647100E1,5.312066078E-1,2.261217356E0,9.358329773E0
1.169647100E1,5.766702294E-1,2.206182480E0,9.262616158E0
1.170647100E1,5.264210105E-1,2.256431818E0,9.473184586E0
1.171647100E1,3.134597540E-1,2.316252232E0,9.611968994E0
1.172647100E1,2.632105052E-1,2.337787628E0,9.595218658E0
1.173647100E1,7.034898400E-1,2.313859463E0,9.664610863E0
1.174647100E1,7.609176040E-1,2.079362869E0,9.839286804E0
1.175647100E1,7.274180651E-1,2.081755638E0,9.616754532E0
1.176647100E1,9.308080077E-1,2.108076811E0,9.415757179E0
1.177647100E1,1.055234790E0,2.069791555E0,9.312865257E0
1.178647100E1,9.379864931E-1,1.966900229E0,9.281759262E0
1.179647100E1,7.824530005E-1,1.897508383E0,9.489934921E0
1.180647100E1,6.460621357E-1,2.053041935E0,9.745966911E0
1.181647100E1,6.388836503E-1,2.447857618E0,9.877572060E0
1.182647100E1,8.805587292E-1,2.548356056E0,9.643074989E0
1.183647100E1,1.110269666E0,2.502892494E0,9.288937569E0
1.184647100E1,1.203589797E0,2.359323025E0,9.111868858E0
1.185647100E1,1.040877819E0,2.237289190E0,9.097511292E0
1.186647100E1,8.398807645E-1,2.201396942E0,9.207581520E0
1.187647100E1,7.561319470E-1,2.225325108E0,9.320044518E0
1.188647100E1,7.561319470E-1,2.225325108E0,9.320044518E0
1.189647100E1,7.561319470E-1,2.225325108E0,9.320044518E0
1.190647100E1,7.561319470E-1,2.225325108E0,9.320044518E0
1.191647100E1,7.202396393E-1,2.498106956E0,9.966106415E0
1.192647100E1,7.441678643E-1,2.562713146E0,9.896714211E0
1.193647100E1,8.087740541E-1,2.388036966E0,9.583254814E0
1.194647100E1,8.853443861E-1,2.139183521E0,9.205188751E0
1.195647100E1,8.853443861E-1,2.139183521E0,9.205188751E0
1.196647100E1,8.853443861E-1,2.139183521E0,9.205188751E0
1.197647100E1,5.000999570E-1,1.878365755E0,8.925228119E0
1.198647100E1,5.168496966E-1,1.931007862E0,8.961120605E0
1.199647100E1,6.460621357E-1,1.942971945E0,8.894122124E0
1.200647100E1,6.221339107E-1,2.041077614E0,8.817551613E0
1.201647100E1,6.532405615E-1,2.191825628E0,8.970691681E0
1.202647100E1,6.532405615E-1,2.191825628E0,8.970691681E0
1.203647100E1,8.518448472E-1,2.206182480E0,9.803394318E0
1.204647100E1,9.762716293E-1,2.189432621E0,9.999606133E0
1.205647100E1,1.071984529E0,2.160718918E0,1.012164021E1
1.206647100E1,9.810572863E-1,2.167897224E0,1.021256733E1
1.207647100E1,6.532405615E-1,2.122433662E0,1.016231823E1
1.208647100E1,7.322037220E-1,2.122433662E0,1.003310490E1
1.209647100E1,7.680960894E-1,1.990828395E0,9.923035622E0
1.210647100E1,8.685946465E-1,1.950150490E0,9.702896118E0
1.211647100E1,8.853443861E-1,1.976471543E0,9.494720459E0
1.212647100E1,9.284151793E-1,2.033899307E0,9.262616158E0
1.213647100E1,9.882357717E-1,2.048256159E0,9.080761909E0
1.214647100E1,1.110269666E0,1.978864312E0,8.855836868E0
1.215647100E1,1.239482164E0,1.938186288E0,8.714659691E0
1.216647100E1,1.277767301E0,2.117648125E0,9.097511292E0
1.217647100E1,1.131805062E0,2.256431818E0,9.272188187E0
1.218647100E1,1.086341500E0,2.342573404E0,9.245866776E0
1.219647100E1,1.155733347E0,2.380858421E0,9.171689034E0
1.220647100E1,1.167697430E0,2.368894339E0,9.236295700E0
1.221647100E1,1.095912814E0,2.277967215E0,9.506684303E0
1.222647100E1,1.012163997E0,2.172683001E0,9.724431038E0
1.223647100E1,1.062413216E0,1.995614052E0,9.839286804E0
1.224647100E1,1.062413216E0,1.995614052E0,9.839286804E0
1.225647100E1,1.062413216E0,1.995614052E0,9.839286804E0
1.226647100E1,1.062413216E0,1.995614052E0,9.839286804E0
1.227647100E1,9.020941257E-1,2.115255117E0,9.607182503E0
1.228647100E1,7.920243144E-1,2.112862349E0,9.399007797E0
1.229647100E1,7.920243144E-1,2.112862349E0,9.399007797E0
1.230647100E1,7.920243144E-1,2.112862349E0,9.399007797E0
1.231647100E1,7.920243144E-1,2.112862349E0,9.399007797E0
1.232647100E1,7.561319470E-1,2.057827473E0,8.755337715E0
1.233647100E1,7.585247755E-1,2.060220242E0,8.638090134E0
1.234647100E1,7.561319470E-1,2.072184324E0,8.530412674E0
1.235647100E1,8.757730722E-1,2.057827473E0,8.618947029E0
1.236647100E1,8.757730722E-1,2.057827473E0,8.618947029E0
1.237647100E1,8.757730722E-1,2.057827473E0,8.618947029E0
1.238647100E1,8.757730722E-1,2.057827473E0,8.618947029E0
1.239647100E1,9.116654396E-1,2.309073925E0,1.024128056E1
1.240647100E1,9.667003751E-1,2.112862349E0,1.009771156E1
1.241647100E1,9.403793216E-1,2.165504456E0,9.801001549E0
1.242647100E1,8.877372146E-1,2.112862349E0,9.647860527E0
1.243647100E1,8.877372146E-1,2.112862349E0,9.647860527E0
1.244647100E1,8.877372146E-1,2.112862349E0,9.647860527E0
1.245647100E1,9.738788009E-1,1.866401672E0,9.104690552E0
1.246647100E1,1.158126116E0,1.861616015E0,8.922835350E0
1.247647100E1,1.160519004E0,1.777867198E0,8.752944946E0
1.248647100E1,1.107876897E0,1.715653777E0,8.623732567E0
1.249647100E1,1.174875975E0,1.727617979E0,8.578269005E0
1.250647100E1,1.174875975E0,1.727617979E0,8.578269005E0
1.251647100E1,1.356730461E0,1.981257200E0,8.992227554E0
1.252647100E1,1.514656782E0,2.031506538E0,9.221938133E0
1.253647100E1,1.540977836E0,2.105684042E0,9.525827408E0
1.254647100E1,1.505085468E0,2.165504456E0,9.793823242E0
1.255647100E1,1.545763373E0,2.153540373E0,1.004746246E1
1.256647100E1,1.600798368E0,2.141576290E0,1.019103146E1
1.257647100E1,1.603191137E0,2.031506538E0,1.036331463E1
1.258647100E1,1.473978758E0,1.969292998E0,1.035852909E1
1.259647100E1,1.440479279E0,1.966900229E0,1.019820976E1
1.260647100E1,1.445264935E0,1.940579176E0,9.772287369E0
1.261647100E1,1.414158225E0,1.840080619E0,9.257830620E0
1.262647100E1,1.323230863E0,1.725225091E0,8.829515457E0
1.263647100E1,1.220339537E0,1.655833244E0,8.477770805E0
1.264647100E1,1.203589797E0,1.691725612E0,8.204988480E0
1.265647100E1,1.155733347E0,1.720439434E0,8.212167740E0
1.266647100E1,1.138983607E0,1.773081541E0,8.420342445E0
1.267647100E1,1.182054400E0,1.914258122E0,8.843872070E0
1.268647100E1,1.282552958E0,2.100898266E0,9.401400566E0
1.269647100E1,1.335195065E0,2.266003132E0,9.822537422E0
1.270647100E1,1.368694544E0,2.306680918E0,1.001396275E1
1.271647100E1,1.368694544E0,2.306680918E0,1.001396275E1
1.272647100E1,1.368694544E0,2.306680918E0,1.001396275E1
1.273647100E1,1.368694544E0,2.306680918E0,1.001396275E1
1.274647100E1,1.368694544E0,2.306680918E0,1.001396275E1
1.275647100E1,1.225125194E0,1.825723648E0,1.042792130E1
1.276647100E1,1.375872970E0,1.763510346E0,1.001396275E1
1.277647100E1,1.581655741E0,1.674975872E0,9.616754532E0
1.278647100E1,1.581655741E0,1.674975872E0,9.616754532E0
1.279647100E1,1.581655741E0,1.674975872E0,9.616754532E0
1.280647100E1,1.581655741E0,1.674975872E0,9.616754532E0
1.281647100E1,1.856830359E0,2.007578135E0,8.819944382E0
1.282647100E1,1.780260086E0,2.041077614E0,8.693124771E0
1.283647100E1,1.612762451E0,2.076970100E0,8.709874153E0
1.284647100E1,1.485942841E0,2.072184324E0,8.839086533E0
1.285647100E1,1.485942841E0,2.072184324E0,8.839086533E0
1.286647100E1,1.485942841E0,2.072184324E0,8.839086533E0
1.287647100E1,1.354337573E0,1.861616015E0,9.628718376E0
1.288647100E1,1.349551916E0,1.931007862E0,9.987641335E0
1.289647100E1,1.347159147E0,1.978864312E0,1.021256733E1
1.290647100E1,1.414158225E0,1.952543259E0,1.022213840E1
1.291647100E1,1.538584948E0,1.856830359E0,1.012881851E1
1.292647100E1,1.538584948E0,1.856830359E0,1.012881851E1
1.293647100E1,1.538584948E0,1.856830359E0,1.012881851E1
1.294647100E1,1.643869162E0,1.665404558E0,9.142974854E0
1.295647100E1,1.574477315E0,1.619940877E0,8.891729355E0
1.296647100E1,1.445264935E0,1.598405480E0,8.693124771E0
1.297647100E1,1.308874011E0,1.591227055E0,8.571090698E0
1.298647100E1,1.229910851E0,1.615155339E0,8.590232849E0
1.299647100E1,1.129412293E0,1.763510346E0,8.927620888E0
1.300647100E1,1.086341500E0,1.902294040E0,9.035298347E0
1.301647100E1,1.277767301E0,1.916650891E0,9.131011009E0
1.302647100E1,1.430907965E0,1.969292998E0,9.401400566E0
1.303647100E1,1.512263894E0,1.974078655E0,9.868000984E0
1.304647100E1,1.536192179E0,1.950150490E0,1.028195858E1
1.305647100E1,1.464407444E0,1.902294040E0,1.044706345E1
1.306647100E1,1.268195987E0,1.842473388E0,1.003789139E1
1.307647100E1,1.450050473E0,1.713261008E0,9.891928673E0
1.308647100E1,1.323230863E0,1.596012712E0,9.652647018E0
1.309647100E1,1.430907965E0,1.560120344E0,9.449256897E0
1.310647100E1,1.517049551E0,1.627119422E0,9.260223389E0
1.311647100E1,1.543370605E0,1.674975872E0,9.061619759E0
1.312647100E1,1.593619823E0,1.665404558E0,8.819944382E0
1.313647100E1,1.885544300E0,1.584048629E0,8.621339798E0
1.314647100E1,1.663011789E0,1.497906923E0,9.181260109E0
1.315647100E1,1.442872047E0,1.560120344E0,9.580862045E0
1.316647100E1,1.423729420E0,1.646261930E0,9.726823807E0
1.317647100E1,1.629512191E0,1.696511269E0,9.822537422E0
1.318647100E1,1.653440475E0,1.835294962E0,9.980463028E0
1.319647100E1,1.598405480E0,2.043470621E0,1.000917721E1
1.320647100E1,1.600798368E0,2.251646042E0,1.007139015E1
1.321647100E1,1.600798368E0,2.251646042E0,1.007139015E1
1.322647100E1,1.600798368E0,2.251646042E0,1.007139015E1
1.323647100E1,1.600798368E0,2.251646042E0,1.007139015E1
1.324647100E1,2.086541414E0,1.495514154E0,9.681360245E0
1.325647100E1,2.055434704E0,1.351944804E0,9.286544800E0
1.326647100E1,2.277967215E0,1.253839016E0,8.798408508E0
1.327647100E1,2.277967215E0,1.253839016E0,8.798408508E0
1.328647100E1,2.277967215E0,1.253839016E0,8.798408508E0
1.329647100E1,2.277967215E0,1.253839016E0,8.798408508E0
1.330647100E1,1.732403636E0,1.677368641E0,8.561519623E0
1.331647100E1,1.643869162E0,1.816152334E0,8.867800713E0
1.332647100E1,1.636690736E0,1.859223247E0,9.087940216E0
1.333647100E1,1.718046665E0,1.840080619E0,9.332008362E0
1.334647100E1,1.718046665E0,1.840080619E0,9.332008362E0
1.335647100E1,1.718046665E0,1.840080619E0,9.332008362E0
1.336647100E1,1.878365755E0,1.718046665E0,1.071027374E1
1.337647100E1,1.969292998E0,1.605584025E0,1.069591713E1
1.338647100E1,2.007578135E0,1.581655741E0,1.070788097E1
1.339647100E1,2.098505497E0,1.612762451E0,1.050449181E1
1.340647100E1,2.270788670E0,1.607976794E0,1.043509960E1
1.341647100E1,2.270788670E0,1.607976794E0,1.043509960E1
1.342647100E1,2.450250387E0,1.588834286E0,9.461220741E0
1.343647100E1,2.385644197E0,1.574477315E0,9.016156197E0
1.344647100E1,2.481357098E0,1.596012712E0,9.109476089E0
1.345647100E1,2.632104874E0,1.564906001E0,9.032905579E0
1.346647100E1,2.270788670E0,1.586441398E0,8.913264275E0
1.347647100E1,2.263610125E0,1.744367719E0,8.968298912E0
1.348647100E1,2.208575249E0,1.830509305E0,9.396614075E0
1.349647100E1,2.179861546E0,1.761117458E0,9.750752449E0
1.350647100E1,2.139183521E0,1.753939033E0,1.001874828E1
1.351647100E1,2.132004976E0,1.741974831E0,1.025085258E1
1.352647100E1,2.139183521E0,1.682154298E0,1.026281643E1
1.353647100E1,2.218146563E0,1.576870084E0,1.020538902E1
1.354647100E1,2.294716835E0,1.457229018E0,1.002114105E1
1.355647100E1,2.294716835E0,1.457229018E0,1.002114105E1
1.356647100E1,2.294716835E0,1.457229018E0,1.002114105E1
1.357647100E1,2.294716835E0,1.457229018E0,1.002114105E1
1.358647100E1,2.294716835E0,1.457229018E0,1.002114105E1
1.359647100E1,1.512263894E0,1.490728498E0,8.891729355E0
1.360647100E1,1.462014675E0,1.586441398E0,8.834300995E0
1.361647100E1,1.481157184E0,1.679761529E0,8.750552177E0
1.362647100E1,1.481157184E0,1.679761529E0,8.750552177E0
1.363647100E1,1.481157184E0,1.679761529E0,8.750552177E0
1.364647100E1,1.648654819E0,1.600798368E0,9.099904060E0
1.365647100E1,1.581655741E0,1.605584025E0,9.466006279E0
1.366647100E1,1.572084427E0,1.576870084E0,9.734002113E0
1.367647100E1,1.780260086E0,1.462014675E0,1.009292603E1
1.368647100E1,2.038684845E0,1.320838094E0,1.051167011E1
1.369647100E1,2.222932339E0,1.311266780E0,1.063848972E1
1.370647100E1,2.182254314E0,1.574477315E0,1.030827999E1
1.371647100E1,2.285145521E0,1.569691658E0,9.719645500E0
1.372647100E1,2.232503414E0,1.519442320E0,9.181260109E0
1.377389402E1,5.216353536E-1,2.172683001E0,8.882157326E0
1.378389402E1,3.780659735E-1,2.148754835E0,9.111868858E0
1.379389402E1,3.349951804E-1,2.383251429E0,8.886942863E0
1.380389402E1,5.886343718E-1,2.541177750E0,8.097311974E0
1.381389402E1,1.344766378E0,2.364108801E0,7.269395351E0
1.382389402E1,2.014756680E0,1.942971945E0,7.154539585E0
1.383389402E1,2.086541414E0,1.679761529E0,8.662017822E0
1.384389402E1,2.263610125E0,1.679761529E0,9.958928108E0
1.385389402E1,2.043470621E0,1.698904037E0,1.099262714E1
1.386389402E1,1.325623751E0,2.014756680E0,1.085384369E1
1.387389402E1,1.057627559E0,2.450250387E0,1.071027374E1
1.388389402E1,5.599204898E-1,2.708675146E0,1.062891865E1
1.389389402E1,6.987041831E-1,2.761317253E0,1.001635551E1
1.390389402E1,1.665404558E0,2.459821701E0,9.489934921E0
1.391389402E1,1.962114573E0,1.775474429E0,9.504291534E0
1.392389402E1,1.981257200E0,1.129412293E0,9.590433121E0
1.393389402E1,2.435893536E0,1.014556766E0,1.007378292E1
1.394389402E1,2.689532757E0,1.344766378E0,1.049013424E1
1.395389402E1,1.923829436E0,2.201396942E0,1.069591713E1
1.396389402E1,1.220339537E0,3.072384357E0,1.140897846E1
1.397389402E1,5.838487148E-1,3.402593851E0,1.178225899E1
1.398389402E1,4.307080805E-1,3.239881754E0,1.166261768E1
1.399389402E1,4.498506486E-1,2.751745939E0,1.079162979E1
1.400389402E1,4.977070987E-1,2.344966173E0,9.671789169E0
1.401389402E1,4.689932466E-1,1.885544300E0,8.283951759E0
1.402389402E1,4.833501875E-1,1.785045743E0,7.240681171E0
1.403389402E1,7.322037220E-1,1.617548108E0,6.513263226E0
1.404389402E1,9.332008362E-1,1.402194023E0,5.814558983E0
1.405389402E1,1.143769264E0,1.316052437E0,5.618347645E0
1.406389402E1,1.153340459E0,1.459621787E0,5.718846321E0
1.407389402E1,1.143769264E0,1.598405480E0,6.034698486E0
1.408389402E1,1.507478237E0,1.914258122E0,5.886343479E0
1.409389402E1,1.741974831E0,2.081755638E0,5.680561066E0
1.410389402E1,1.411765337E0,2.641676188E0,5.871986866E0
1.411389402E1,1.119840980E0,3.129812002E0,7.034898758E0
1.412389402E1,1.119840980E0,3.297309637E0,8.422736168E0
1.413389402E1,1.660618901E0,3.244667530E0,9.992427826E0
1.414389402E1,1.842473388E0,3.182454109E0,1.111705399E1
1.415389402E1,2.014756680E0,3.034099102E0,1.255753326E1
1.416389402E1,1.852044702E0,2.780459881E0,1.317488194E1
1.417389402E1,1.325623751E0,2.426322222E0,1.315095329E1
1.418389402E1,1.086341500E0,2.210968018E0,1.227517986E1
1.419389402E1,1.115055323E0,2.072184324E0,1.117448139E1
1.420389402E1,1.359123230E0,1.923829436E0,9.815358162E0
1.421389402E1,1.210768223E0,1.770688772E0,8.987442017E0
1.422389402E1,1.268195987E0,1.789831281E0,8.068597794E0
1.423389402E1,1.311266780E0,1.832902193E0,7.680960655E0
1.424389402E1,1.253839016E0,1.823330879E0,7.470392227E0
1.425389402E1,1.225125194E0,1.966900229E0,7.417750359E0
1.426389402E1,1.363908887E0,2.158325911E0,7.250252724E0
1.427389402E1,1.588834286E0,2.517249346E0,6.876972198E0
1.428389402E1,1.531406522E0,2.665604353E0,6.747759819E0
1.429389402E1,1.746760488E0,3.192025423E0,6.929614544E0
1.430389402E1,1.765903115E0,3.665804386E0,7.255038261E0
1.431389402E1,1.521835208E0,4.005585194E0,8.331808090E0
1.432389402E1,8.374879360E-1,4.053441525E0,9.786644936E0
1.433389402E1,3.158525825E-1,3.847658873E0,1.087298584E1
1.434389402E1,9.571290575E-3,3.201596737E0,1.181575775E1
1.435389402E1,-1.004985496E-1,2.885744095E0,1.215075302E1
1.436389402E1,-1.914258152E-1,2.301895380E0,1.251446247E1
1.437389402E1,1.770688742E-1,1.416550994E0,1.237089348E1
1.438389402E1,7.082754970E-1,1.210768223E0,1.175354481E1
1.439389402E1,8.662018180E-1,1.115055323E0,1.127498055E1
1.440389402E1,1.220339537E0,1.014556766E0,1.088255692E1
1.441389402E1,1.512263894E0,1.368694544E0,1.051406288E1
1.442389402E1,1.440479279E0,1.569691658E0,9.944570541E0
1.443389402E1,1.244267821E0,1.607976794E0,9.068798065E0
1.444389402E1,1.191625714E0,1.502692580E0,8.604590416E0
1.445389402E1,1.052842021E0,1.569691658E0,8.336593628E0
1.446389402E1,1.000199914E0,1.521835208E0,8.465806961E0
1.447389402E1,1.158126116E0,1.507478237E0,8.714659691E0
1.448389402E1,1.416550994E0,1.555334687E0,9.116654396E0
1.449389402E1,1.301695466E0,1.296909928E0,9.504291534E0
1.450389402E1,9.427721500E-1,7.800601721E-1,1.033220863E1
1.451389402E1,8.997012973E-1,7.944171429E-1,1.069113159E1
1.452389402E1,1.804188251E0,7.082754970E-1,1.090170002E1
1.453389402E1,2.210968018E0,5.551348329E-1,1.035613632E1
1.454389402E1,1.976471543E0,8.374879360E-1,9.676574707E0
1.455389402E1,1.110269666E0,1.765903115E0,8.370093346E0
1.456389402E1,4.019941986E-1,2.478964329E0,8.437092781E0
1.457389402E1,-7.657032460E-2,2.627319336E0,8.724231720E0
1.458389402E1,-2.249253243E-1,2.593819857E0,9.317651749E0
1.459389402E1,-1.627119333E-1,2.373680115E0,1.000678444E1
1.460389402E1,-2.440679073E-1,2.005185366E0,1.093519974E1
1.461389402E1,-3.780659735E-1,1.866401672E0,1.186840057E1
1.462389402E1,-5.982056856E-1,1.746760488E0,1.261974621E1
1.463389402E1,-1.239482164E0,1.785045743E0,1.266281700E1
1.464389402E1,-1.478764415E0,1.387837172E0,1.177747345E1
1.465389402E1,-3.254238665E-1,8.662018180E-1,1.081555843E1
1.466389402E1,4.211367965E-1,3.062812984E-1,9.533005714E0
1.467389402E1,1.483550072E0,-2.871387079E-2,8.331808090E0
1.468389402E1,2.043470621E0,1.627119333E-1,7.733603001E0
1.469389402E1,2.292324066E0,6.221339107E-1,7.044469833E0
1.470389402E1,2.679961443E0,8.614161611E-1,6.666403770E0
1.471389402E1,2.727817774E0,1.239482164E0,6.561119556E0
1.472389402E1,2.584248543E0,2.100898266E0,7.010970116E0
1.473389402E1,1.880758643E0,2.531606436E0,7.786244869E0
1.474389402E1,8.422735929E-1,2.560320139E0,9.260223389E0
1.475389402E1,4.402793646E-1,2.273181438E0,1.053320503E1
1.476389402E1,3.349951804E-1,1.727617979E0,1.149033451E1
1.477389402E1,6.939185858E-1,1.325623751E0,1.170090294E1
1.478389402E1,1.234696507E0,9.379864931E-1,1.114576817E1
1.479389402E1,1.627119422E0,7.034898400E-1,1.051884842E1
1.480389402E1,1.512263894E0,8.422735929E-1,9.958928108E0
1.481389402E1,9.858429432E-1,1.191625714E0,9.279366493E0
1.482389402E1,6.604190469E-1,1.478764415E0,8.958727837E0
1.483389402E1,4.546363056E-1,1.895115495E0,8.724231720E0
1.484389402E1,4.977070987E-1,2.072184324E0,8.733802795E0
1.485389402E1,4.498506486E-1,2.081755638E0,8.805587769E0
1.486389402E1,5.551348329E-1,1.923829436E0,9.025727272E0
1.487389402E1,6.604190469E-1,1.785045743E0,9.159725189E0
1.488389402E1,6.125625968E-1,1.636690736E0,9.446864128E0
1.489389402E1,5.072783828E-1,1.660618901E0,9.623932838E0
1.490389402E1,4.737788737E-1,1.665404558E0,9.466006279E0
1.491389402E1,7.609176040E-1,1.660618901E0,9.336793900E0
1.492389402E1,1.033699393E0,1.674975872E0,9.303294182E0
1.493389402E1,1.138983607E0,1.689332843E0,9.480362892E0
1.494389402E1,9.858429432E-1,1.607976794E0,9.805787086E0
1.495389402E1,7.752745152E-1,1.497906923E0,1.021735287E1
1.496389402E1,6.987041831E-1,1.502692580E0,1.051884842E1
1.497389402E1,7.274180651E-1,1.517049551E0,1.064327526E1
1.498389402E1,5.934200287E-1,1.627119422E0,1.074377346E1
1.499389402E1,5.359922647E-1,1.837687731E0,1.060499001E1
1.500389402E1,7.274180651E-1,1.914258122E0,1.042313576E1
1.501389402E1,8.231309652E-1,1.995614052E0,1.030827999E1
1.502389402E1,9.762716293E-1,2.110469580E0,1.034656525E1
1.503389402E1,9.379864931E-1,2.143969059E0,1.038963604E1
1.504389402E1,9.762716293E-1,2.100898266E0,1.052841949E1
1.505389402E1,9.092726111E-1,2.043470621E0,1.051406288E1
1.506389402E1,8.087740541E-1,1.923829436E0,1.028435135E1
1.507389402E1,8.374879360E-1,1.947757602E0,1.004028416E1
1.508389402E1,6.364908218E-1,1.990828395E0,9.820143700E0
1.509389402E1,5.264210105E-1,2.043470621E0,9.470791817E0
1.510389402E1,6.987041831E-1,2.139183521E0,9.174081802E0
1.511389402E1,9.858429432E-1,2.100898266E0,8.906085968E0
1.512389402E1,1.081555843E0,1.957328916E0,8.767302513E0
1.513389402E1,1.143769264E0,1.890329838E0,8.729017258E0
1.514389402E1,9.954141974E-1,1.928615093E0,8.791230202E0
1.515389402E1,8.901300430E-1,1.966900229E0,8.685946465E0
1.516389402E1,7.752745152E-1,1.966900229E0,8.523234367E0
1.517389402E1,4.067798555E-1,2.000399828E0,7.944170952E0
1.518389402E1,7.082754970E-1,1.957328916E0,7.417750359E0
1.519389402E1,8.805587292E-1,1.995614052E0,7.226324558E0
1.520389402E1,6.699903607E-1,2.249253273E0,7.326822758E0
1.521389402E1,8.087740541E-1,2.464607239E0,7.814958572E0
1.522389402E1,8.470591903E-1,2.632104874E0,8.422736168E0
1.523389402E1,5.312066078E-1,2.651247501E0,9.470791817E0
1.524389402E1,5.120640397E-1,2.708675146E0,1.054277611E1
1.525389402E1,4.307080805E-1,2.603390932E0,1.155733299E1
1.526389402E1,2.057827413E-1,2.354537487E0,1.226082325E1
1.527389402E1,2.201396823E-1,2.110469580E0,1.228953743E1
1.528389402E1,3.924229145E-1,1.842473388E0,1.141376400E1
1.529389402E1,4.211367965E-1,1.785045743E0,1.042792130E1
1.530389402E1,3.972085714E-1,1.899901152E0,9.221938133E0
1.531389402E1,2.919243574E-1,2.100898266E0,8.293522835E0
1.532389402E1,2.153540403E-1,2.268395901E0,7.551748276E0
1.533389402E1,1.818545163E-1,2.392822742E0,7.221538544E0
1.534389402E1,2.105683982E-1,2.469393015E0,7.226324558E0
1.535389402E1,4.115654826E-1,2.493321180E0,7.384250641E0
1.536389402E1,3.349951804E-1,2.579462767E0,7.604390144E0
1.537389402E1,3.349951804E-1,2.651247501E0,8.068597794E0
1.538389402E1,4.211367965E-1,2.689532757E0,8.547162056E0
1.539389402E1,3.876372576E-1,2.675175667E0,9.054440498E0
1.540389402E1,4.737788737E-1,2.689532757E0,9.542576790E0
1.541389402E1,3.732803464E-1,2.708675146E0,9.858428955E0
1.542389402E1,3.014956415E-1,2.579462767E0,1.009292603E1
1.543389402E1,2.153540403E-1,2.411965132E0,9.987641335E0
1.544389402E1,1.914258115E-2,2.225325108E0,9.652647018E0
1.545389402E1,-2.871387079E-2,2.158325911E0,9.355937004E0
1.546389402E1,-8.614161611E-2,2.043470621E0,8.939585686E0
1.547389402E1,-1.387837082E-1,2.124826431E0,8.484949112E0
1.548389402E1,-1.579262912E-1,2.220539331E0,8.336593628E0
1.549389402E1,-1.435693651E-1,2.340180635E0,8.465806961E0
1.550389402E1,-2.009970993E-1,2.435893536E0,8.762516975E0
1.551389402E1,-2.392822653E-1,2.569891453E0,9.403793335E0
1.552389402E1,-4.115654826E-1,2.641676188E0,1.000199890E1
1.553389402E1,-5.455635786E-1,2.632104874E0,1.055234814E1
1.554389402E1,-3.732803464E-1,2.531606436E0,1.071506023E1
1.555389402E1,-4.115654826E-1,2.464607239E0,1.026520920E1
1.556389402E1,-6.699903309E-2,2.225325108E0,9.695717812E0
1.557389402E1,1.435693651E-1,2.024327993E0,9.619147301E0
1.558389402E1,1.531406492E-1,2.024327993E0,9.322437286E0
1.559389402E1,-2.488535494E-1,2.239681959E0,9.049654961E0
1.560389402E1,-4.115654826E-1,2.388036966E0,8.839086533E0
1.561389402E1,-3.732803464E-1,2.550748825E0,8.858229637E0
1.562389402E1,-3.780659735E-1,2.493321180E0,8.997013092E0
1.563389402E1,-2.727817893E-1,2.354537487E0,9.116654396E0
1.564389402E1,-3.110669553E-1,2.230110645E0,9.064012527E0
1.565389402E1,-1.722832322E-1,2.254039049E0,8.863015175E0
1.566389402E1,-9.571290761E-2,2.325823545E0,9.035298347E0
1.567389402E1,-2.632105052E-1,2.407179594E0,9.446864128E0
1.568389402E1,-5.216353536E-1,2.522035122E0,1.011685371E1
1.569389402E1,-7.130611539E-1,2.517249346E0,1.060020447E1
1.570389402E1,-7.896314859E-1,2.584248543E0,1.131326580E1
1.571389402E1,-9.379864931E-1,2.555534601E0,1.160997581E1
1.572389402E1,-9.858429432E-1,2.277967215E0,1.137069321E1
1.573389402E1,-7.561319470E-1,2.091326952E0,1.059541893E1
1.574389402E1,-3.828516304E-1,1.890329838E0,9.394221306E0
1.575389402E1,-2.153540403E-1,1.871187329E0,8.384450912E0
1.576389402E1,-4.307080805E-2,1.923829436E0,7.896314621E0
1.577389402E1,-4.785645287E-3,2.005185366E0,7.685746193E0
1.578389402E1,-9.571290575E-3,2.153540373E0,7.771887779E0
1.579389402E1,-2.201396823E-1,2.373680115E0,8.188239098E0
1.580389402E1,-3.493520916E-1,2.603390932E0,8.796015739E0
1.581389402E1,-5.503492355E-1,2.842673302E0,9.757930756E0
1.582389402E1,-7.992027402E-1,2.914458036E0,1.055234814E1
1.583389402E1,-7.369893789E-1,2.780459881E0,1.088255692E1
1.584389402E1,-4.785645306E-1,2.402393818E0,1.087777138E1
1.585389402E1,-6.221338734E-2,1.981257200E0,1.059541893E1
1.586389402E1,2.392822690E-2,1.947757602E0,1.013599682E1
1.587389402E1,4.785645287E-3,2.105684042E0,9.853643417E0
1.588389402E1,-1.244267747E-1,2.163111687E0,9.576076508E0
1.589389402E1,-2.919243574E-1,2.364108801E0,9.154939651E0
1.590389402E1,-8.614161611E-2,2.531606436E0,8.767302513E0
1.591389402E1,-4.546363056E-1,2.469393015E0,8.140382767E0
1.592389402E1,-1.124626637E0,2.431107759E0,7.867600918E0
1.593389402E1,-4.259224236E-1,2.660818815E0,7.958528042E0
1.594389402E1,5.742774159E-2,2.545963287E0,7.992027760E0
1.595389402E1,1.770688742E-1,2.641676188E0,8.408378601E0
1.596389402E1,-3.110669553E-1,2.579462767E0,8.973084450E0
1.597389402E1,-3.493520916E-1,2.589034081E0,9.595218658E0
1.598389402E1,-2.297109663E-1,2.512463808E0,1.043270683E1
1.599389402E1,-3.158525825E-1,2.354537487E0,1.082034397E1
1.600389402E1,-6.699903309E-2,2.297109842E0,1.102612686E1
1.601389402E1,-3.110669553E-1,2.201396942E0,1.080120182E1
1.602389402E1,-3.493520916E-1,2.206182480E0,1.032742214E1
1.603389402E1,-1.962114573E-1,2.153540373E0,9.580862045E0
1.604389402E1,-1.914258115E-2,2.057827473E0,9.016156197E0
1.605389402E1,1.483550072E-1,1.947757602E0,8.585447311E0
1.606389402E1,1.866401732E-1,1.990828395E0,8.480163574E0
1.607389402E1,8.566305041E-1,1.986042738E0,8.633303642E0
1.608389402E1,7.178468108E-1,2.153540373E0,8.872586250E0
1.609389402E1,2.344966233E-1,2.512463808E0,9.489934921E0
1.610389402E1,1.722832322E-1,2.526820660E0,1.021256733E1
1.611389402E1,7.082754970E-1,2.076970100E0,1.088255692E1
1.612389402E1,1.134197950E0,1.770688772E0,1.128933716E1
1.613389402E1,1.225125194E0,1.584048629E0,1.126540947E1
1.614389402E1,1.253839016E0,1.555334687E0,1.097827053E1
1.615389402E1,1.167697430E0,1.713261008E0,1.093519974E1
1.616389402E1,1.134197950E0,1.818545222E0,1.067198944E1
1.617389402E1,1.172483087E0,1.837687731E0,1.017906761E1
1.618389402E1,1.229910851E0,1.923829436E0,9.834501266E0
1.619389402E1,8.566305041E-1,1.880758643E0,9.336793900E0
1.620389402E1,1.138983607E0,2.172683001E0,8.690732002E0
1.621389402E1,9.188438654E-1,2.234896421E0,8.159524918E0
1.624832527E1,-2.474178553E0,3.517449379E0,7.881958008E0
1.625832527E1,-1.569691658E0,3.019742250E0,7.570890903E0
1.626832527E1,-1.890329838E0,3.192025423E0,7.637889862E0
1.627832527E1,-1.507478237E0,3.641875982E0,7.628318787E0
1.628832527E1,-1.325623751E0,3.775874138E0,7.762316704E0
1.629832527E1,-1.105484009E0,3.598805189E0,7.499105930E0
1.630832527E1,-7.609176040E-1,3.081955671E0,7.034898758E0
1.631832527E1,1.292124242E-1,3.507878065E0,6.838686943E0
1.632832527E1,-4.259224236E-1,3.378665686E0,6.905686378E0
1.633832527E1,-5.790630579E-1,2.900100946E0,7.183253765E0
1.634832527E1,-2.153540403E-1,2.660818815E0,7.901100159E0
1.635832527E1,-1.818545163E-1,2.354537487E0,8.551948547E0
1.636832527E1,-6.556333899E-1,2.167897224E0,9.623932838E0
1.637832527E1,-1.138983607E0,2.301895380E0,1.036570740E1
1.638832527E1,-1.225125194E0,2.478964329E0,1.078205872E1
1.639832527E1,-1.445264935E0,2.847458839E0,1.078684425E1
1.640832527E1,-1.406979680E0,3.101098061E0,1.041356373E1
1.641832527E1,-7.274180651E-1,3.464807272E0,9.590433121E0
1.642832527E1,-5.407779217E-1,3.584448338E0,8.920442581E0
1.643832527E1,-4.929214716E-1,3.684946775E0,8.135597229E0
1.644832527E1,-3.397808075E-1,4.024727821E0,7.743174076E0
1.645832527E1,-5.455635786E-1,4.268795490E0,7.542177200E0
1.646832527E1,-1.124626637E0,4.297509670E0,7.307680130E0
1.647832527E1,-1.110269666E0,4.134797573E0,7.877171993E0
1.648832527E1,-1.272981644E0,3.704089403E0,8.863015175E0
1.649832527E1,-9.284151793E-1,3.637090445E0,9.576076508E0
1.650832527E1,-7.944171429E-1,3.847658873E0,9.355937004E0
1.651832527E1,-6.029912829E-1,3.474378586E0,9.461220741E0
1.652832527E1,-5.072783828E-1,3.464807272E0,8.829515457E0
1.653832527E1,-4.785645306E-1,3.756731510E0,7.704888821E0
1.654832527E1,-8.901300430E-1,3.943371773E0,6.996613503E0
1.655832527E1,-8.518448472E-1,4.048655987E0,7.054041386E0
1.656832527E1,-1.258624673E0,4.115654945E0,7.810173035E0
1.657832527E1,-1.569691658E0,4.249652863E0,8.599804878E0
1.658832527E1,-1.909472466E0,4.063013077E0,1.013121128E1
1.659832527E1,-1.947757602E0,3.900300980E0,1.014078236E1
1.660832527E1,-1.579262972E0,3.713660717E0,1.096869946E1
1.661832527E1,-1.301695466E0,3.756731510E0,1.102612686E1
1.662832527E1,-9.475577474E-1,3.972085476E0,1.052363396E1
1.663832527E1,-7.800601721E-1,4.086941242E0,1.022213840E1
1.664832527E1,-1.038485050E0,4.086941242E0,1.020778179E1
1.665832527E1,-1.009771109E0,4.134797573E0,1.017428207E1
1.666832527E1,-7.082754970E-1,4.197010994E0,1.020299530E1
1.667832527E1,-1.048056364E0,3.751945972E0,1.026520920E1
1.668832527E1,-1.397408366E0,3.450450182E0,1.029870892E1
1.669832527E1,-1.143769264E0,3.192025423E0,1.074855900E1
1.670832527E1,-7.322037220E-1,2.876172781E0,1.104526901E1
1.671832527E1,2.967100143E-1,1.684547186E0,1.143769264E1
1.672832527E1,9.140582681E-1,2.024327993E0,1.155733299E1
1.673832527E1,1.502692580E0,1.497906923E0,1.174397373E1
1.674832527E1,1.962114573E0,1.469193101E0,1.083470058E1
1.675832527E1,2.206182480E0,1.521835208E0,9.700503349E0
1.676832527E1,2.411965132E0,1.478764415E0,8.762516975E0
1.677832527E1,2.455035925E0,1.344766378E0,8.360522270E0
1.678832527E1,2.498106956E0,1.239482164E0,8.561519623E0
1.679832527E1,3.684946895E-1,2.593819857E0,8.183453560E0
1.680832527E1,-7.322037220E-1,3.407379389E0,8.183453560E0
1.681832527E1,-1.196411371E0,3.785445452E0,8.159524918E0
1.682832527E1,-8.805587292E-1,3.460021496E0,7.963313580E0
1.683832527E1,2.392822653E-1,2.904886723E0,7.580461979E0
1.684832527E1,1.134197950E0,2.373680115E0,7.451249599E0
1.685832527E1,1.464407444E0,2.005185366E0,7.781459332E0
1.686832527E1,1.402194023E0,1.962114573E0,8.618947029E0
1.687832527E1,1.153340459E0,2.019542217E0,9.293723106E0
1.688832527E1,8.374879360E-1,2.124826431E0,9.777072906E0
1.689832527E1,5.551348329E-1,2.273181438E0,9.872786522E0
1.690832527E1,4.498506486E-1,2.478964329E0,9.513862610E0
1.691832527E1,4.689932466E-1,2.584248543E0,8.781659126E0
1.692832527E1,3.014956415E-1,2.871387243E0,7.992027760E0
1.693832527E1,9.092725813E-2,3.158525944E0,7.719245911E0
1.694832527E1,8.614161611E-2,3.215953588E0,7.700103283E0
1.695832527E1,-9.571290575E-3,3.349951744E0,7.642675400E0
1.696832527E1,1.148554832E-1,3.282952785E0,7.709674358E0
1.697832527E1,3.206382394E-1,3.072384357E0,7.982456207E0
1.698832527E1,3.254238665E-1,2.971885681E0,8.379665375E0
1.699832527E1,-1.914258115E-2,3.067598581E0,8.719446182E0
1.700832527E1,-4.307080805E-2,3.206382275E0,8.958727837E0
1.701832527E1,2.727817893E-1,3.134597778E0,9.293723106E0
1.702832527E1,4.259224236E-1,2.995813847E0,9.638289452E0
1.703832527E1,5.024927258E-1,2.890529871E0,9.609575272E0
1.704832527E1,3.780659735E-1,2.833101988E0,8.963513374E0
1.705832527E1,1.770688742E-1,2.713460922E0,8.738588333E0
1.706832527E1,-6.221338734E-2,2.713460922E0,8.858229637E0
1.707832527E1,-3.637090325E-1,2.871387243E0,9.260223389E0
1.708832527E1,-4.929214716E-1,2.991028309E0,9.437292099E0
1.709832527E1,-5.264210105E-1,3.105883837E0,9.667003632E0
1.710832527E1,-5.072783828E-1,3.211168051E0,9.796216011E0
1.711832527E1,-3.924229145E-1,3.163311481E0,9.657432556E0
1.712832527E1,-1.148554832E-1,3.019742250E0,9.226723671E0
1.713832527E1,1.435693651E-1,3.038884640E0,8.925228119E0
1.714832527E1,2.919243574E-1,2.991028309E0,8.685946465E0
1.715832527E1,1.339980662E-1,3.000599623E0,8.528019905E0
1.716832527E1,-1.244267747E-1,3.148954630E0,8.475378036E0
1.717832527E1,-3.732803464E-1,3.129812002E0,8.532805443E0
1.718832527E1,-5.886343718E-1,3.038884640E0,8.590232849E0
1.719832527E1,-7.465606928E-1,3.019742250E0,8.719446182E0
1.720832527E1,-7.322037220E-1,2.943171740E0,8.752944946E0
1.721832527E1,-7.034898400E-1,2.703889608E0,9.126225471E0
1.722832527E1,-5.790630579E-1,2.550748825E0,9.556933403E0
1.723832527E1,-5.407779217E-1,2.498106956E0,1.004028416E1
1.724832527E1,-5.264210105E-1,2.632104874E0,1.018863869E1
1.725832527E1,-5.359922647E-1,2.713460922E0,1.033220863E1
1.726832527E1,-5.216353536E-1,2.861815929E0,1.034656525E1
1.727832527E1,-6.173482537E-1,2.947957516E0,1.038963604E1
1.728832527E1,-8.231309652E-1,3.105883837E0,1.036570740E1
1.729832527E1,-9.523434043E-1,3.239881754E0,1.027478027E1
1.730832527E1,-1.239482164E0,3.383451223E0,1.025563812E1
1.731832527E1,-1.411765337E0,3.455235958E0,1.017906761E1
1.732832527E1,-1.507478237E0,3.354737282E0,1.006421185E1
1.733832527E1,-1.421336651E0,3.244667530E0,9.992427826E0
1.734832527E1,-1.387837172E0,3.120240688E0,9.930213928E0
1.735832527E1,-1.316052437E0,3.058027267E0,9.829715729E0
1.736832527E1,-1.268195987E0,2.971885681E0,9.652647018E0
1.737832527E1,-1.043270707E0,2.804388046E0,9.604789734E0
1.738832527E1,-7.369893789E-1,2.751745939E0,9.643074989E0
1.739832527E1,-8.566305041E-1,2.794816732E0,9.298508644E0
1.740832527E1,-9.140582681E-1,2.876172781E0,9.083154678E0
1.741832527E1,-1.071984529E0,2.885744095E0,9.485149384E0
1.742832527E1,-1.081555843E0,2.780459881E0,9.274580956E0
1.743832527E1,-1.258624673E0,2.766103029E0,9.351150513E0
1.744832527E1,-1.272981644E0,2.679961443E0,1.008335495E1
1.745832527E1,-1.301695466E0,2.742174864E0,9.853643417E0
1.746832527E1,-1.225125194E0,2.971885681E0,9.628718376E0
1.747832527E1,-1.000199914E0,2.885744095E0,9.427721024E0
1.748832527E1,-7.274180651E-1,2.780459881E0,9.198010445E0
1.749832527E1,-5.312066078E-1,2.732603550E0,9.241081238E0
1.750832527E1,-6.317051649E-1,2.770888567E0,9.236295700E0
1.751832527E1,-8.662018180E-1,2.943171740E0,8.930013657E0
1.752832527E1,-1.158126116E0,3.062813044E0,8.662017822E0
1.753832527E1,-1.397408366E0,3.163311481E0,8.614161491E0
1.757905845E1,-1.933400750E0,2.723032236E0,9.418149948E0
1.758905845E1,-1.502692580E0,2.852244616E0,9.054440498E0
1.759905845E1,-1.287338614E0,2.703889608E0,8.944371223E0
1.760905845E1,-8.805587292E-1,2.435893536E0,8.915657043E0
1.761905845E1,-6.508477330E-1,2.474178553E0,9.279366493E0
1.762905845E1,-4.737788737E-1,2.598605394E0,9.513862610E0
1.763905845E1,-5.264210105E-1,2.727817774E0,9.695717812E0
1.764905845E1,-7.369893789E-1,2.842673302E0,9.839286804E0
1.765905845E1,-9.619147182E-1,2.823530674E0,9.762716293E0
1.766905845E1,-1.316052437E0,2.737389088E0,9.686145782E0
1.767905845E1,-1.024128079E0,2.684746981E0,9.509077072E0
1.768905845E1,-1.196411371E0,2.230110645E0,9.413364410E0
1.769905845E1,-6.125625968E-1,2.033899307E0,8.327022552E0
1.770905845E1,-3.062812984E-1,1.952543259E0,7.838887215E0
1.771905845E1,-9.571290761E-2,1.923829436E0,7.810173035E0
1.772905845E1,1.148554832E-1,2.014756680E0,8.370093346E0
1.773905845E1,1.866401732E-1,2.110469580E0,8.690732002E0
1.774905845E1,1.196411327E-1,2.316252232E0,8.824729919E0
1.775905845E1,-1.914258115E-2,2.493321180E0,8.863015175E0
1.776905845E1,-3.206382394E-1,2.641676188E0,8.757730484E0
1.777905845E1,-4.689932466E-1,2.627319336E0,8.800801277E0
1.778905845E1,-5.503492355E-1,2.517249346E0,9.068798065E0
1.779905845E1,-6.317051649E-1,2.287538528E0,9.499505997E0
1.780905845E1,-4.450650215E-1,2.244467735E0,9.370293617E0
1.781905845E1,-3.349951804E-1,2.100898266E0,9.820143700E0
1.782905845E1,-2.919243574E-1,2.191825628E0,1.002592659E1
1.783905845E1,-4.115654826E-1,2.440679073E0,9.939785004E0
1.784905845E1,-5.694918036E-1,2.713460922E0,9.609575272E0
1.785905845E1,-8.566305041E-1,2.876172781E0,9.791430473E0
1.786905845E1,-1.124626637E0,3.014956474E0,9.963713646E0
1.787905845E1,-1.215553880E0,3.115455151E0,1.031785107E1
1.788905845E1,-1.349551916E0,3.282952785E0,1.059541893E1
1.789905845E1,-1.521835208E0,3.201596737E0,1.040877819E1
1.790905845E1,-1.622333765E0,3.158525944E0,9.934999466E0
1.791905845E1,-1.603191137E0,2.938386202E0,9.365508080E0
1.792905845E1,-1.785045743E0,2.842673302E0,8.767302513E0
1.793905845E1,-1.421336651E0,2.785245657E0,8.518448830E0
1.794905845E1,-1.115055323E0,2.742174864E0,7.786244869E0
1.795905845E1,-9.236295223E-1,2.723032236E0,7.680960655E0
1.796905845E1,-6.317051649E-1,2.737389088E0,7.724031448E0
1.797905845E1,-3.445664644E-1,2.689532757E0,8.260024071E0
1.798905845E1,-2.536391914E-1,2.608176708E0,9.059226990E0
1.799905845E1,-2.823530734E-1,2.498106956E0,9.480362892E0
1.800905845E1,-2.057827413E-1,2.407179594E0,9.729216576E0
1.801905845E1,-1.004985496E-1,2.344966173E0,9.676574707E0
1.802905845E1,1.052841991E-1,2.287538528E0,9.413364410E0
1.803905845E1,3.062812984E-1,2.225325108E0,9.379864693E0
1.804905845E1,3.828516304E-1,2.105684042E0,9.375079155E0
1.805905845E1,3.493520916E-1,1.933400750E0,9.619147301E0
1.806905845E1,3.254238665E-1,1.880758643E0,9.896714211E0
1.807905845E1,3.254238665E-1,1.813759565E0,1.039920712E1
1.808905845E1,3.445664644E-1,1.794616938E0,1.069113159E1
1.809905845E1,4.115654826E-1,1.770688772E0,1.088255692E1
1.810905845E1,5.551348329E-1,1.679761529E0,1.094477081E1
1.811905845E1,6.699903607E-1,1.450050473E0,1.056191921E1
1.812905845E1,9.379864931E-1,1.373480201E0,1.005464077E1
1.813905845E1,1.086341500E0,1.450050473E0,9.700503349E0
1.814905845E1,9.906286001E-1,1.569691658E0,9.131011009E0
1.815905845E1,8.518448472E-1,1.655833244E0,8.891729355E0
1.816905845E1,8.518448472E-1,1.646261930E0,8.700303078E0
1.817905845E1,9.284151793E-1,1.789831281E0,8.599804878E0
1.818905845E1,8.901300430E-1,1.966900229E0,8.551948547E0
1.819905845E1,1.722832322E-1,2.368894339E0,8.355736732E0
1.820905845E1,-1.339980662E-1,2.507678032E0,8.413164139E0
1.821905845E1,-2.967100143E-1,2.675175667E0,8.786444664E0
1.822905845E1,-4.594219327E-1,2.627319336E0,9.035298347E0
1.823905845E1,-2.871387303E-1,2.541177750E0,9.422935486E0
1.824905845E1,1.435693540E-2,2.545963287E0,9.619147301E0
1.825905845E1,5.120640397E-1,2.421536446E0,9.925428391E0
1.826905845E1,7.417750359E-1,2.091326952E0,1.036092186E1
1.827905845E1,7.896314859E-1,2.024327993E0,1.060020447E1
1.828905845E1,5.072783828E-1,1.861616015E0,1.086820030E1
1.829905845E1,2.967100143E-1,1.895115495E0,1.093519974E1
1.830905845E1,-5.742774159E-2,1.957328916E0,1.050927734E1
1.831905845E1,1.866401732E-1,2.009970903E0,1.009771156E1
1.832905845E1,-8.327022791E-1,2.292324066E0,9.217152596E0
1.833905845E1,-1.119840980E0,2.464607239E0,8.700303078E0
1.834905845E1,-1.038485050E0,2.239681959E0,8.566305161E0
1.835905845E1,-7.561319470E-1,1.780260086E0,8.618947029E0
1.836905845E1,-7.034898400E-1,1.861616015E0,8.508877754E0
1.837905845E1,-1.081555843E0,1.962114573E0,8.312665939E0
1.838905845E1,-1.450050473E0,1.947757602E0,8.461020470E0
1.839905845E1,-1.579262972E0,2.038684845E0,8.465806961E0
1.840905845E1,-1.746760488E0,2.005185366E0,8.551948547E0
1.841905845E1,-1.818545222E0,1.923829436E0,8.690732002E0
1.842905845E1,-1.866401672E0,1.598405480E0,9.135796547E0
1.843905845E1,-1.904686809E0,1.186840057E0,9.853643417E0
1.844905845E1,-1.698904037E0,1.115055323E0,9.934999466E0
1.845905845E1,-1.363908887E0,1.354337573E0,9.571290970E0
1.846905845E1,-1.143769264E0,1.450050473E0,9.365508080E0
1.847905845E1,-8.422735929E-1,1.445264935E0,9.418149948E0
1.848905845E1,-5.790630579E-1,1.430907965E0,9.628718376E0
1.849905845E1,-3.349951804E-1,1.397408366E0,9.915857315E0
1.850905845E1,-2.344966233E-1,1.483550072E0,1.005464077E1
1.851905845E1,-1.722832322E-1,1.761117458E0,1.006421185E1
1.852905845E1,-2.297109663E-1,2.100898266E0,1.007856941E1
1.853905845E1,-3.637090325E-1,2.330609322E0,1.001156998E1
1.854905845E1,-3.014956415E-1,2.579462767E0,1.000678444E1
1.855905845E1,-1.962114573E-1,2.699103832E0,1.006899738E1
1.856905845E1,1.866401732E-1,2.608176708E0,9.944570541E0
1.857905845E1,6.317051649E-1,2.297109842E0,9.954142570E0
1.858905845E1,9.810572863E-1,2.311466694E0,1.014556789E1
1.859905845E1,7.130611539E-1,2.723032236E0,1.032742214E1
1.860905845E1,2.201396823E-1,3.029313564E0,1.028435135E1
1.861905845E1,-7.657032460E-2,2.833101988E0,1.004506969E1
1.862905845E1,-1.914258152E-1,2.871387243E0,9.729216576E0
1.863905845E1,-2.249253243E-1,2.737389088E0,9.308079720E0
1.864905845E1,-2.297109663E-1,2.603390932E0,9.064012527E0
1.865905845E1,-2.727817893E-1,2.627319336E0,8.920442581E0
1.866905845E1,-2.009970993E-1,2.627319336E0,8.604590416E0
1.867905845E1,-1.004985496E-1,2.703889608E0,8.212167740E0
1.868905845E1,4.785645381E-2,2.727817774E0,7.972885132E0
1.869905845E1,6.699903309E-2,2.617748022E0,7.891529083E0
1.870905845E1,1.387837082E-1,2.536391973E0,8.054241180E0
1.871905845E1,2.536391914E-1,2.411965132E0,8.446663857E0
1.872905845E1,1.004985496E-1,2.392822742E0,8.800801277E0
1.873905845E1,-4.881358147E-1,2.560320139E0,9.595218658E0
1.874905845E1,-2.392822653E-1,3.101098061E0,9.734002113E0
1.875905845E1,-6.460621357E-1,2.861815929E0,9.930213928E0
1.876905845E1,-6.795616150E-1,2.679961443E0,1.042792130E1
1.877905845E1,-1.914258152E-1,2.790031195E0,1.048534870E1
1.878905845E1,-1.148554832E-1,2.775674343E0,1.020299530E1
1.879905845E1,8.135596663E-2,2.703889608E0,9.891928673E0
1.880905845E1,2.344966233E-1,2.483749866E0,9.700503349E0
1.881905845E1,7.657032460E-2,2.402393818E0,9.590433121E0
1.882905845E1,4.307080805E-2,2.584248543E0,9.389435768E0
1.883905845E1,1.914258115E-2,2.560320139E0,9.001798630E0
1.884905845E1,-8.135596663E-2,2.426322222E0,8.336593628E0
1.885905845E1,-1.483550072E-1,2.273181438E0,7.791030407E0
1.886905845E1,-2.392822690E-2,2.641676188E0,7.599604607E0
1.887905845E1,-8.614161611E-2,2.560320139E0,7.633104324E0
1.888905845E1,-1.292124242E-1,2.660818815E0,7.838887215E0
1.889905845E1,2.871387079E-2,2.469393015E0,7.977670670E0
1.890905845E1,3.062812984E-1,2.665604353E0,8.226524353E0
1.891905845E1,4.546363056E-1,2.890529871E0,8.346165657E0
1.892905845E1,4.307080805E-1,3.029313564E0,8.575876236E0
1.893905845E1,3.062812984E-1,3.168097258E0,9.178867340E0
1.894905845E1,4.307080805E-1,3.077169895E0,9.863214493E0
1.895905845E1,3.206382394E-1,2.857030153E0,1.019820976E1
1.896905845E1,6.987041831E-1,2.751745939E0,1.053799057E1
1.897905845E1,8.039883971E-1,2.579462767E0,1.064327526E1
1.898905845E1,7.609176040E-1,2.282752752E0,1.046620655E1
1.899905845E1,6.125625968E-1,2.038684845E0,1.026999474E1
1.900905845E1,3.397808075E-1,1.923829436E0,9.906285286E0
1.901905845E1,7.657032460E-2,2.134397745E0,9.523433685E0
1.902905845E1,1.292124242E-1,2.129612207E0,9.135796547E0
1.903905845E1,4.689932466E-1,2.100898266E0,8.551948547E0
1.904905845E1,6.077769399E-1,2.115255117E0,8.212167740E0
1.905905845E1,4.689932466E-1,2.187039852E0,8.035098076E0
1.906905845E1,1.962114573E-1,2.407179594E0,8.216953278E0
1.907905845E1,-1.531406492E-1,2.679961443E0,8.714659691E0
1.908905845E1,-2.536391914E-1,2.766103029E0,9.097511292E0
1.909905845E1,-1.196411327E-1,2.679961443E0,9.332008362E0
1.910905845E1,-4.785645287E-3,2.541177750E0,9.619147301E0
1.911905845E1,-9.571290575E-3,2.478964329E0,9.796216011E0
1.912905845E1,1.579262912E-1,2.230110645E0,9.834501266E0
1.913905845E1,-1.914258115E-2,1.713261008E0,9.561718941E0
1.914905845E1,-1.196411327E-1,1.373480201E0,9.470791817E0
1.915905845E1,-1.292124242E-1,1.646261930E0,9.915857315E0
1.916905845E1,-3.206382394E-1,1.976471543E0,1.006899738E1
1.917905845E1,-3.397808075E-1,2.325823545E0,1.007856941E1
1.918905845E1,-3.493520916E-1,2.498106956E0,9.992427826E0
1.919905845E1,-7.657032460E-2,2.603390932E0,9.834501266E0
1.920905845E1,1.962114573E-1,2.746960402E0,9.777072906E0
1.921905845E1,1.722832322E-1,2.780459881E0,9.719645500E0
1.922905845E1,1.435693540E-2,2.833101988E0,9.552147865E0
1.923905845E1,-1.100698411E-1,2.823530674E0,9.442078590E0
1.924905845E1,-2.297109663E-1,2.502892494E0,9.355937004E0
1.925905845E1,-2.105683982E-1,2.407179594E0,9.303294182E0
1.926905845E1,-1.004985496E-1,2.225325108E0,9.212367058E0
1.927905845E1,-1.339980662E-1,2.230110645E0,9.121439934E0
1.928905845E1,-4.307080805E-2,2.277967215E0,9.016156197E0
1.929905845E1,-9.092725813E-2,2.330609322E0,9.092725754E0
1.930905845E1,-4.833501875E-1,2.201396942E0,9.217152596E0
1.931905845E1,-8.183453679E-1,2.048256159E0,9.461220741E0
1.932905845E1,-6.317051649E-1,2.196611166E0,9.647860527E0
1.933905845E1,-2.201396823E-1,2.325823545E0,9.600004196E0
1.934905845E1,-3.828516304E-1,2.263610125E0,9.518648148E0
1.935905845E1,-4.067798555E-1,2.397608280E0,9.552147865E0
1.936905845E1,-2.057827413E-1,2.435893536E0,9.690931320E0
1.937905845E1,-1.292124242E-1,2.359323025E0,9.939785004E0
1.938905845E1,-3.349951655E-2,2.220539331E0,1.041356373E1
1.939905845E1,5.264209956E-2,2.225325108E0,1.066720295E1
1.940905845E1,6.221338734E-2,2.225325108E0,1.060020447E1
1.941905845E1,4.785645287E-3,2.215753794E0,1.027956581E1
1.942905845E1,-4.785645287E-3,2.206182480E0,1.008335495E1
1.943905845E1,4.307080805E-2,2.177468538E0,9.915857315E0
1.944905845E1,-6.221338734E-2,2.177468538E0,9.729216576E0
1.945905845E1,-2.967100143E-1,2.120040894E0,9.518648148E0
1.946905845E1,-3.637090325E-1,2.110469580E0,9.174081802E0
1.947905845E1,-2.823530734E-1,2.234896421E0,8.930013657E0
1.948905845E1,-4.354937077E-1,2.249253273E0,9.107083321E0
1.949905845E1,-3.014956415E-1,2.340180635E0,8.843872070E0
1.950905845E1,-2.919243574E-1,2.407179594E0,8.585447311E0
1.951905845E1,-1.483550072E-1,2.431107759E0,8.504091263E0
1.952905845E1,-6.699903309E-2,2.388036966E0,8.461020470E0
1.953905845E1,-1.100698411E-1,2.397608280E0,8.623732567E0
1.954905845E1,-1.914258115E-2,2.311466694E0,8.930013657E0
1.955905845E1,-1.004985496E-1,2.364108801E0,9.303294182E0
1.956905845E1,-1.914258152E-1,2.411965132E0,9.657432556E0
1.957905845E1,-1.770688742E-1,2.397608280E0,9.930213928E0
1.958905845E1,-2.488535494E-1,2.287538528E0,9.920642853E0
1.959905845E1,-2.392822653E-1,2.220539331E0,1.001635551E1
1.960905845E1,-1.196411327E-1,2.153540373E0,1.005464077E1
1.961905845E1,-1.387837082E-1,2.019542217E0,1.009771156E1
1.962905845E1,-6.221338734E-2,1.895115495E0,9.844072342E0
1.963905845E1,4.785645381E-2,2.014756680E0,9.671789169E0
1.964905845E1,-1.722832322E-1,2.306680918E0,9.451649666E0
1.965905845E1,-2.440679073E-1,2.459821701E0,9.643074989E0
1.966905845E1,-5.455635786E-1,2.579462767E0,9.968499184E0
1.967905845E1,-6.460621357E-1,2.536391973E0,1.022213840E1
1.968905845E1,-3.493520916E-1,2.545963287E0,1.023170948E1
1.969905845E1,-2.392822690E-2,2.435893536E0,1.005942631E1
1.970905845E1,8.614161611E-2,2.344966173E0,9.968499184E0
1.971905845E1,9.571290575E-3,2.273181438E0,9.805787086E0
1.972905845E1,-2.009970993E-1,2.225325108E0,9.537791252E0
1.973905845E1,-4.067798555E-1,2.139183521E0,9.121439934E0
1.974905845E1,-4.354937077E-1,2.067398787E0,8.733802795E0
1.975905845E1,-2.632105052E-1,2.072184324E0,8.221738815E0
1.976905845E1,-4.307080805E-2,2.316252232E0,7.819744587E0
1.977905845E1,-2.057827413E-1,2.388036966E0,7.594819069E0
1.978905845E1,-3.493520916E-1,2.780459881E0,7.714460373E0
1.979905845E1,-4.546363056E-1,2.924029350E0,7.977670670E0
1.980905845E1,-4.689932466E-1,2.847458839E0,8.523234367E0
1.981905845E1,-4.067798555E-1,2.675175667E0,8.901300430E0
1.982905845E1,-2.967100143E-1,2.478964329E0,9.580862045E0
1.983905845E1,-3.972085714E-1,2.368894339E0,1.016949654E1
1.984905845E1,-4.115654826E-1,2.321038008E0,1.036570740E1
1.985905845E1,-2.679961324E-1,2.254039049E0,1.023649502E1
1.986905845E1,-1.483550072E-1,2.230110645E0,9.906285286E0
1.987905845E1,-6.699903309E-2,2.316252232E0,9.446864128E0
1.988905845E1,-1.196411327E-1,2.455035925E0,9.284152031E0
1.989905845E1,-3.110669553E-1,2.632104874E0,9.370293617E0
1.990905845E1,-3.589234054E-1,2.727817774E0,9.556933403E0
1.991905845E1,-3.206382394E-1,2.675175667E0,9.762716293E0
1.992905845E1,-1.722832322E-1,2.565105915E0,9.997213364E0
1.993905845E1,-1.339980662E-1,2.522035122E0,1.001635551E1
1.994905845E1,-1.579262912E-1,2.402393818E0,9.805787086E0
1.995905845E1,-1.674975902E-1,2.297109842E0,9.427721024E0
1.996905845E1,-2.632105052E-1,2.254039049E0,8.858229637E0
1.997905845E1,-4.259224236E-1,2.335394859E0,8.365307808E0
1.998905845E1,-4.689932466E-1,2.349751949E0,8.068597794E0
1.999905845E1,-4.115654826E-1,2.364108801E0,7.858029366E0
2.000905845E1,-3.541377485E-1,2.435893536E0,7.867600918E0
2.001905845E1,-3.876372576E-1,2.627319336E0,8.121239662E0
2.002905845E1,-3.349951804E-1,2.813959360E0,8.618947029E0
2.003905845E1,-2.584248483E-1,2.790031195E0,8.939585686E0
2.004905845E1,-1.674975902E-1,2.598605394E0,9.351150513E0
2.005905845E1,-1.435693651E-1,2.483749866E0,9.561718941E0
2.006905845E1,-2.967100143E-1,2.407179594E0,9.556933403E0
2.007905845E1,-4.259224236E-1,2.431107759E0,9.604789734E0
2.008905845E1,-4.642075896E-1,2.455035925E0,9.556933403E0
2.009905845E1,-3.445664644E-1,2.435893536E0,9.528220177E0
2.010905845E1,-2.153540403E-1,2.421536446E0,9.509077072E0
2.011905845E1,-1.100698411E-1,2.421536446E0,9.652647018E0
2.012905845E1,-1.244267747E-1,2.440679073E0,9.829715729E0
2.013905845E1,-9.571290761E-2,2.474178553E0,1.010728264E1
2.014905845E1,-3.349951655E-2,2.474178553E0,1.028913784E1
2.015905845E1,-2.392822690E-2,2.464607239E0,1.030827999E1
2.016905845E1,-1.292124242E-1,2.421536446E0,9.944570541E0
2.017905845E1,-2.201396823E-1,2.435893536E0,9.523433685E0
2.018905845E1,-4.163511395E-1,2.431107759E0,9.040083885E0
2.019905845E1,-5.359922647E-1,2.450250387E0,8.786444664E0
2.020905845E1,-6.460621357E-1,2.541177750E0,8.528019905E0
2.021905845E1,-6.364908218E-1,2.646461725E0,8.417949677E0
2.022905845E1,-5.694918036E-1,2.790031195E0,8.628518105E0
2.023905845E1,-5.120640397E-1,2.866601467E0,9.030512810E0
2.024905845E1,-4.211367965E-1,2.866601467E0,9.327222824E0
2.025905845E1,-2.009970993E-1,2.718246460E0,9.705288887E0
2.026905845E1,-6.699903309E-2,2.574677229E0,9.882357597E0
2.027905845E1,-2.871387079E-2,2.416750908E0,9.949356079E0
2.028905845E1,-1.483550072E-1,2.273181438E0,9.858428955E0
2.029905845E1,-2.679961324E-1,2.182254314E0,9.652647018E0
2.030905845E1,-4.211367965E-1,2.206182480E0,9.317651749E0
2.031905845E1,-5.120640397E-1,2.210968018E0,9.102297783E0
2.032905845E1,-6.508477330E-1,2.273181438E0,8.915657043E0
2.033905845E1,-6.412764788E-1,2.402393818E0,8.934800148E0
2.034905845E1,-4.594219327E-1,2.474178553E0,9.193224907E0
2.035905845E1,-4.163511395E-1,2.507678032E0,9.537791252E0
2.036905845E1,-4.307080805E-1,2.531606436E0,1.017428207E1
2.037905845E1,-2.440679073E-1,2.555534601E0,1.067677498E1
2.038905845E1,-1.435693651E-1,2.536391973E0,1.094477081E1
2.039905845E1,2.392822690E-2,2.388036966E0,1.094477081E1
2.040905845E1,1.674975902E-1,2.191825628E0,1.061456108E1
2.041905845E1,0.000000000E0,1.962114573E0,9.767501831E0
2.042905845E1,-1.004985496E-1,1.794616938E0,9.365508080E0
2.043905845E1,-4.307080805E-1,1.832902193E0,8.772088051E0
2.044905845E1,-6.843472719E-1,1.837687731E0,8.116454124E0
2.045905845E1,-5.599204898E-1,1.966900229E0,7.728816986E0
2.046905845E1,-3.302095234E-1,2.143969059E0,7.412964344E0
2.047905845E1,-3.062812984E-1,2.402393818E0,7.369893551E0
2.048905845E1,-3.062812984E-1,2.679961443E0,7.762316704E0
2.049905845E1,-3.732803464E-1,2.852244616E0,8.379665375E0
2.050905845E1,-3.445664644E-1,2.775674343E0,9.121439934E0
2.051905845E1,-1.627119333E-1,2.426322222E0,9.633503914E0
2.052905845E1,-4.785645287E-3,2.096112728E0,9.930213928E0
2.053905845E1,1.962114573E-1,2.009970903E0,1.009771156E1
2.054905845E1,2.392822690E-2,2.072184324E0,1.013599682E1
2.055905845E1,-3.254238665E-1,2.206182480E0,1.009292603E1
2.056905845E1,-4.163511395E-1,2.311466694E0,9.891928673E0
2.057905845E1,-3.828516304E-1,2.565105915E0,9.695717812E0
2.058905845E1,-4.211367965E-1,2.627319336E0,9.690931320E0
2.059905845E1,-4.833501875E-1,2.507678032E0,9.954142570E0
2.060905845E1,-3.732803464E-1,2.340180635E0,9.987641335E0
2.061905845E1,-2.392822653E-1,2.321038008E0,9.724431038E0
2.062905845E1,-2.201396823E-1,2.359323025E0,9.466006279E0
2.063905845E1,-2.727817893E-1,2.368894339E0,9.322437286E0
2.064905845E1,-2.967100143E-1,2.383251429E0,9.064012527E0
2.065905845E1,-4.163511395E-1,2.344966173E0,8.997013092E0
2.066905845E1,-5.503492355E-1,2.316252232E0,9.020941734E0
2.067905845E1,-5.072783828E-1,2.268395901E0,9.207581520E0
2.068905845E1,-1.962114573E-1,2.220539331E0,9.269794464E0
2.069905845E1,-1.770688742E-1,2.388036966E0,9.571290970E0
2.070905845E1,-1.962114573E-1,2.708675146E0,9.623932838E0
2.071905845E1,-2.344966233E-1,2.828316450E0,9.762716293E0
2.072905845E1,1.148554832E-1,2.565105915E0,9.954142570E0
2.073905845E1,3.062812984E-1,2.282752752E0,9.915857315E0
2.074905845E1,7.657032460E-2,2.043470621E0,1.003549862E1
2.075905845E1,-3.493520916E-1,2.067398787E0,1.015035343E1
2.076905845E1,-5.455635786E-1,2.263610125E0,9.925428391E0
2.077905845E1,-5.886343718E-1,2.392822742E0,9.619147301E0
2.078905845E1,-6.891329288E-1,2.464607239E0,9.470791817E0
2.079905845E1,-6.987041831E-1,2.536391973E0,9.590433121E0
2.080905845E1,-6.125625968E-1,2.574677229E0,9.872786522E0
2.081905845E1,-4.402793646E-1,2.502892494E0,1.022213840E1
2.082905845E1,-2.249253243E-1,2.340180635E0,1.019820976E1
2.083905845E1,2.871387079E-2,2.182254314E0,1.004506969E1
2.084905845E1,2.392822690E-2,2.057827473E0,9.762716293E0
2.085905845E1,-1.579262912E-1,2.100898266E0,9.595218658E0
2.086905845E1,-5.503492355E-1,2.297109842E0,9.351150513E0
2.087905845E1,-7.704889178E-1,2.421536446E0,9.116654396E0
2.088905845E1,-7.848458290E-1,2.402393818E0,8.738588333E0
2.089905845E1,-4.977070987E-1,2.297109842E0,8.595019341E0
2.090905845E1,-3.302095234E-1,2.163111687E0,8.499305725E0
2.091905845E1,-2.871387303E-1,2.086541414E0,8.365307808E0
2.092905845E1,-2.536391914E-1,2.143969059E0,8.202595711E0
2.093905845E1,-2.584248483E-1,2.311466694E0,8.135597229E0
2.094905845E1,-3.493520916E-1,2.383251429E0,8.465806961E0
2.095905845E1,-4.115654826E-1,2.416750908E0,8.590232849E0
2.096905845E1,-2.679961324E-1,2.378465652E0,8.580661774E0
2.097905845E1,-1.148554832E-1,2.330609322E0,8.757730484E0
2.098905845E1,-2.153540403E-1,2.349751949E0,9.207581520E0
2.099905845E1,-3.732803464E-1,2.431107759E0,9.571290970E0
2.100905845E1,-3.158525825E-1,2.531606436E0,9.839286804E0
2.101905845E1,-1.100698411E-1,2.459821701E0,1.016471100E1
2.102905845E1,-1.914258152E-1,2.239681959E0,1.018863869E1
