"Time (s)","Gyroscope x (rad/s)","Gyroscope y (rad/s)","Gyroscope z (rad/s)"
2.006818500E-2,-8.972076178E-1,-5.230529904E-1,-1.849393100E-1
2.881459200E-2,-1.345582366E0,-1.124754786E0,-2.185368687E-1
3.881459200E-2,-1.618638992E0,-1.531590700E0,-2.313650399E-1
4.881459200E-2,-1.684612393E0,-1.725234866E0,-2.197586000E-1
5.881459200E-2,-1.547778606E0,-1.739895582E0,-1.660024971E-1
6.881459200E-2,-1.260061383E0,-1.594509840E0,-1.159115955E-1
7.881459200E-2,-8.550579548E-1,-1.294575214E0,-7.376192510E-2
8.881459200E-2,-3.810268939E-1,-8.834632039E-1,-9.010255337E-3
9.881459200E-2,4.802924395E-1,-3.008509055E-2,6.673697382E-2
1.088145920E-1,7.594576478E-1,3.242164850E-1,5.329795182E-2
1.188145920E-1,7.594576478E-1,3.242164850E-1,5.329795182E-2
1.288145920E-1,7.594576478E-1,3.242164850E-1,5.329795182E-2
1.388145920E-1,7.594576478E-1,3.242164850E-1,5.329795182E-2
1.488145920E-1,7.307469845E-1,5.331322551E-1,-6.826414168E-2
1.588145920E-1,4.411970973E-1,3.724747896E-1,-1.293506175E-1
1.688145920E-1,4.411970973E-1,3.724747896E-1,-1.293506175E-1
1.788145920E-1,4.411970973E-1,3.724747896E-1,-1.293506175E-1
1.888145920E-1,4.411970973E-1,3.724747896E-1,-1.293506175E-1
1.988145920E-1,4.411970973E-1,3.724747896E-1,-1.293506175E-1
2.088145920E-1,-7.921388745E-1,-4.411970973E-1,-1.446222365E-1
2.188145920E-1,-7.499892116E-1,-4.546361268E-1,-1.421787739E-1
2.288145920E-1,-6.870701313E-1,-4.198168218E-1,-1.794415265E-1
2.388145920E-1,-6.870701313E-1,-4.198168218E-1,-1.794415265E-1
2.488145920E-1,-6.870701313E-1,-4.198168218E-1,-1.794415265E-1
2.588145920E-1,-6.870701313E-1,-4.198168218E-1,-1.794415265E-1
2.688145920E-1,4.718930274E-2,-5.390881747E-2,-8.048143238E-2
2.788145920E-1,1.919642538E-1,-2.275471389E-2,-7.788525894E-3
2.888145920E-1,2.414443046E-1,2.061668597E-2,1.542433538E-2
2.988145920E-1,2.359465212E-1,4.505127668E-2,5.650499370E-3
3.088145920E-1,2.359465212E-1,4.505127668E-2,5.650499370E-3
3.188145920E-1,2.359465212E-1,4.505127668E-2,5.650499370E-3
3.288145920E-1,1.681405306E-1,-5.024362728E-2,-1.195767820E-1
3.388145920E-1,1.492037177E-1,-2.153298259E-2,-1.434005052E-1
3.488145920E-1,6.918043643E-2,6.765327603E-2,-1.067486182E-1
3.588145920E-1,-8.170316368E-2,1.342375278E-1,-6.337722391E-2
3.688145920E-1,-2.991710305E-1,1.806632578E-1,-2.672533318E-2
3.788145920E-1,-7.060069442E-1,-3.252854943E-2,6.307178736E-2
3.888145920E-1,-8.208495378E-1,-2.109010667E-1,9.666935354E-2
3.988145920E-1,-8.355103135E-1,-3.495673835E-1,1.162170246E-1
4.088145920E-1,-7.719803452E-1,-3.636172712E-1,1.180496216E-1
4.188145920E-1,-6.748528481E-1,-2.652680278E-1,1.223256737E-1
4.288145920E-1,-5.795579553E-1,-1.235474050E-1,1.583666950E-1
4.388145920E-1,-5.270236135E-1,-1.725693047E-2,2.151771188E-1
4.488145920E-1,-5.270236135E-1,-1.725693047E-2,2.151771188E-1
4.588145920E-1,-5.459604263E-1,-3.239110410E-1,3.801106215E-1
4.688145920E-1,-5.361865759E-1,-5.792525411E-1,3.666715920E-1
4.788145920E-1,-4.958694875E-1,-8.144354820E-1,3.294088244E-1
4.888145920E-1,-4.262309074E-1,-9.702059627E-1,2.609919906E-1
4.988145920E-1,-2.997818887E-1,-1.093600631E0,1.638644785E-1
5.088145920E-1,-1.098029464E-1,-1.215162754E0,7.956513762E-2
5.188145920E-1,1.950185746E-1,-1.322674990E0,-6.566796452E-3
5.288145920E-1,2.713766694E-1,-1.347720385E0,-2.794706449E-2
5.388145920E-1,2.939786613E-1,-1.378263712E0,-3.649916872E-2
5.488145920E-1,2.408334464E-1,-1.363602877E0,-2.794706449E-2
5.588145920E-1,1.052214578E-1,-1.372765899E0,-2.428187430E-2
5.688145920E-1,-7.315105945E-2,-1.329394460E0,-2.794706449E-2
5.788145920E-1,-2.661843300E-1,-1.295186043E0,-4.734201822E-3
5.888145920E-1,-2.661843300E-1,-1.295186043E0,-4.734201822E-3
5.988145920E-1,-2.661843300E-1,-1.295186043E0,-4.734201822E-3
6.088145920E-1,-2.661843300E-1,-1.295186043E0,-4.734201822E-3
6.188145920E-1,-2.661843300E-1,-1.295186043E0,-4.734201822E-3
6.288145920E-1,-4.873173833E-1,-3.825540543E-1,3.342957497E-1
6.388145920E-1,-3.462076187E-1,-9.056070447E-2,4.650208056E-1
6.488145920E-1,-2.087630332E-1,1.543960720E-1,5.462658405E-1
6.588145920E-1,-2.087630332E-1,1.543960720E-1,5.462658405E-1
6.688145920E-1,-2.087630332E-1,1.543960720E-1,5.462658405E-1
6.788145920E-1,4.230238497E-2,7.353284955E-1,4.845684767E-1
6.888145920E-1,-8.399390616E-3,7.664825916E-1,3.538434207E-1
6.988145920E-1,-7.498364896E-2,7.615956664E-1,1.785252392E-1
7.088145920E-1,-1.427896470E-1,7.090612650E-1,-2.367101051E-2
7.188145920E-1,-2.063195854E-1,5.978838801E-1,-2.356410921E-1
7.288145920E-1,-2.063195854E-1,5.978838801E-1,-2.356410921E-1
7.388145920E-1,-3.303251266E-1,2.722929716E-1,-6.394227147E-1
7.488145920E-1,-3.529271185E-1,3.107774556E-1,-6.473639607E-1
7.588145920E-1,-3.431532979E-1,4.085158110E-1,-6.076577306E-1
7.688145920E-1,-2.857320011E-1,5.410735011E-1,-5.624537468E-1
7.788145920E-1,-1.733328849E-1,7.060069442E-1,-5.361865759E-1
7.888145920E-1,-2.061668597E-2,8.428406715E-1,-5.166388750E-1
7.988145920E-1,3.294088244E-1,9.912807941E-1,-4.677697122E-1
8.088145920E-1,4.625773430E-1,1.104901671E0,-4.598284662E-1
8.188145920E-1,5.584831238E-1,1.250898361E0,-4.421133697E-1
8.288145920E-1,6.061306000E-1,1.353523612E0,-4.219548404E-1
8.388145920E-1,5.994110703E-1,1.388342977E0,-3.914116025E-1
8.488145920E-1,5.303833485E-1,1.304654479E0,-3.400989771E-1
8.588145920E-1,4.277580678E-1,9.998329282E-1,-2.386954129E-1
8.688145920E-1,2.976438701E-1,-5.670352578E-1,3.636172712E-1
8.788145920E-1,3.599520624E-1,-1.669035316E0,7.991638184E-1
8.888145920E-1,4.589121640E-1,-2.522413492E0,1.114980936E0
8.988145920E-1,5.358811021E-1,-2.858388901E0,1.201723695E0
9.088145920E-1,6.000219584E-1,-2.351371288E0,1.114980936E0
9.188145920E-1,6.293434501E-1,-1.724013090E0,9.274454713E-1
9.288145920E-1,5.499309897E-1,-1.376431108E0,7.509055138E-1
9.388145920E-1,2.133445293E-1,-1.013577342E0,3.715584874E-1
9.488145920E-1,1.908952370E-2,-4.393644929E-1,1.901316643E-1
9.588145920E-1,-1.299614757E-1,3.223838806E-1,5.940660089E-2
9.688145920E-1,-1.299614757E-1,3.223838806E-1,5.940660089E-2
9.788145920E-1,-1.299614757E-1,3.223838806E-1,5.940660089E-2
9.888145920E-1,-1.464548260E-1,1.714544773E0,2.182314396E-1
9.988145920E-1,-3.466657549E-2,1.577100158E0,3.397935331E-1
1.008814592E0,-3.466657549E-2,1.577100158E0,3.397935331E-1
1.018814592E0,-3.466657549E-2,1.577100158E0,3.397935331E-1
1.028814592E0,-3.466657549E-2,1.577100158E0,3.397935331E-1
1.038814592E0,3.642281294E-1,3.291034102E-1,1.522580534E-1
1.048814592E0,3.715584874E-1,2.881754637E-1,1.663079411E-1
1.058814592E0,3.630063832E-1,2.869537175E-1,1.937968582E-1
1.068814592E0,3.477347791E-1,3.144426346E-1,2.157879770E-1
1.078814592E0,3.477347791E-1,3.144426346E-1,2.157879770E-1
1.088814592E0,1.595884264E-1,3.321577311E-1,2.671006322E-1
1.098814592E0,1.052214578E-1,3.596466482E-1,2.579376400E-1
1.108814592E0,3.207040019E-3,3.865246773E-1,1.748600453E-1
1.118814592E0,-4.321868345E-2,4.066832364E-1,5.513054505E-2
1.128814592E0,-7.620538026E-2,4.323395491E-1,-2.733619884E-2
1.138814592E0,-9.025526792E-2,4.873173833E-1,-1.281288862E-1
1.148814592E0,-7.254019380E-2,4.903717041E-1,-2.936732471E-1
1.158814592E0,-4.077522457E-2,4.091266990E-1,-3.211621642E-1
1.168814592E0,1.420260593E-2,3.016144931E-1,-3.437641561E-1
1.178814592E0,9.117157012E-2,1.843284518E-1,-3.724747896E-1
1.188814592E0,1.754709035E-1,5.665770918E-2,-3.865246773E-1
1.198814592E0,2.371682525E-1,-7.406735420E-2,-3.523162603E-1
1.208814592E0,2.438877672E-1,-2.096793354E-1,-2.777907550E-1
1.218814592E0,1.101083755E-1,-4.967857897E-1,-1.385135949E-1
1.228814592E0,1.542433538E-2,-6.122392416E-1,-9.697478265E-2
1.238814592E0,-5.971203372E-2,-7.136427760E-1,-7.742711157E-2
1.248814592E0,-5.971203372E-2,-7.136427760E-1,-7.742711157E-2
1.258814592E0,-5.971203372E-2,-7.136427760E-1,-7.742711157E-2
1.268814592E0,-1.183550507E-1,-7.301361561E-1,-1.495091617E-1
1.278814592E0,-8.842267841E-2,-6.287325621E-1,-1.330158114E-1
1.288814592E0,-8.842267841E-2,-6.287325621E-1,-1.330158114E-1
1.298814592E0,-8.842267841E-2,-6.287325621E-1,-1.330158114E-1
1.308814592E0,-8.842267841E-2,-6.287325621E-1,-1.330158114E-1
1.318814592E0,2.292270064E-1,-8.445205539E-2,-2.295324355E-1
1.328814592E0,2.909243405E-1,-1.247691289E-1,-2.777907550E-1
1.338814592E0,3.385718167E-1,-1.620318890E-1,-3.016144931E-1
1.348814592E0,3.819431961E-1,-1.443168074E-1,-3.297142684E-1
1.358814592E0,3.819431961E-1,-1.443168074E-1,-3.297142684E-1
1.368814592E0,3.819431961E-1,-1.443168074E-1,-3.297142684E-1
1.378814592E0,4.534143806E-1,1.360701323E-1,-1.110246703E-1
1.388814592E0,4.283689260E-1,8.903354406E-2,-1.030834317E-1
1.398814592E0,4.027126133E-1,1.000291109E-1,-1.098029464E-1
1.408814592E0,3.599520624E-1,1.085812151E-1,-8.292489499E-2
1.418814592E0,3.489564955E-1,1.061377525E-1,-8.903354406E-2
1.428814592E0,3.489564955E-1,1.061377525E-1,-8.903354406E-2
1.438814592E0,4.228711426E-1,2.356410921E-1,-2.063195854E-1
1.448814592E0,4.204276800E-1,3.339903057E-1,-2.344193608E-1
1.458814592E0,3.904953003E-1,4.867065251E-1,-2.460257858E-1
1.468814592E0,3.434587121E-1,5.966621637E-1,-2.472475171E-1
1.478814592E0,2.579376400E-1,6.241511106E-1,-2.331976295E-1
1.488814592E0,1.388190240E-1,5.820014477E-1,-1.941022873E-1
1.498814592E0,-1.018617004E-1,4.360047281E-1,-8.964440972E-2
1.508814592E0,-2.014326602E-1,3.468184769E-1,-7.131846249E-2
1.518814592E0,-2.716821134E-1,2.588539422E-1,-5.910116807E-2
1.528814592E0,-3.046688139E-1,1.568395346E-1,-3.222311661E-2
1.538814592E0,-3.034470677E-1,8.597921580E-2,8.093958721E-3
1.548814592E0,-2.692386508E-1,6.154462695E-2,4.413498193E-2
1.558814592E0,-2.136499584E-1,7.376192510E-2,6.856957078E-2
1.568814592E0,-8.536835015E-2,1.269071549E-1,7.162389904E-2
1.578814592E0,-2.428187430E-2,1.366809905E-1,6.795870513E-2
1.588814592E0,1.970038936E-2,1.568395346E-1,6.490438432E-2
1.598814592E0,2.458730713E-2,1.977674663E-1,8.506292105E-2
1.608814592E0,1.603520103E-2,2.368628234E-1,1.015562713E-1
1.618814592E0,-3.512472380E-3,2.325867712E-1,1.204930767E-1
1.628814592E0,-1.695149764E-2,1.727220118E-1,1.327103674E-1
1.638814592E0,-1.695149764E-2,1.727220118E-1,1.327103674E-1
1.648814592E0,-1.695149764E-2,1.727220118E-1,1.327103674E-1
1.658814592E0,-1.695149764E-2,1.727220118E-1,1.327103674E-1
1.668814592E0,-1.695149764E-2,1.727220118E-1,1.327103674E-1
1.678814592E0,1.021671370E-1,-6.012436748E-1,1.542433538E-2
1.688814592E0,1.033888608E-1,-6.024653912E-1,8.704823442E-3
1.698814592E0,8.750637621E-2,-4.454731345E-1,4.108065739E-2
1.708814592E0,8.750637621E-2,-4.454731345E-1,4.108065739E-2
1.718814592E0,8.750637621E-2,-4.454731345E-1,4.108065739E-2
1.728814592E0,3.069595434E-2,-5.024362728E-2,4.902189970E-2
1.738814592E0,5.635227636E-2,-6.856957078E-2,9.483675659E-2
1.748814592E0,1.058323234E-1,-6.368265301E-2,1.449276656E-1
1.758814592E0,1.656970680E-1,1.267544460E-2,1.608101577E-1
1.768814592E0,2.102901936E-1,1.030834317E-1,1.308777779E-1
1.778814592E0,2.102901936E-1,1.030834317E-1,1.308777779E-1
1.788814592E0,1.834121495E-1,1.996000707E-1,-1.287397593E-1
1.798814592E0,1.510363221E-1,1.238528341E-1,-2.002109289E-1
1.808814592E0,1.198822111E-1,2.244928107E-2,-2.417497337E-1
1.818814592E0,9.972367436E-2,-7.162389904E-2,-2.594648004E-1
1.828814592E0,9.666935354E-2,-1.889099330E-1,-2.625191510E-1
1.838814592E0,1.082757786E-1,-3.000873327E-1,-2.594648004E-1
1.848814592E0,1.803578287E-1,-3.941605091E-1,-2.484692484E-1
1.858814592E0,2.194531709E-1,-3.465130329E-1,-2.509126961E-1
1.868814592E0,2.487746775E-1,-2.469420880E-1,-2.570213675E-1
1.878814592E0,2.677114904E-1,-1.498145908E-1,-2.582430840E-1
1.888814592E0,2.787070572E-1,-7.834340632E-2,-2.417497337E-1
1.898814592E0,2.799287736E-1,-4.535670951E-2,-2.118173689E-1
1.908814592E0,2.713766694E-1,-4.841103405E-2,-1.623373181E-1
1.918814592E0,2.451094985E-1,-1.375972927E-1,-6.566796452E-3
1.928814592E0,2.237292230E-1,-1.809686869E-1,6.979130208E-2
1.938814592E0,1.956294477E-1,-1.986837685E-1,1.284343153E-1
1.948814592E0,1.455385387E-1,-1.840230078E-1,1.699731201E-1
1.958814592E0,9.117157012E-2,-1.571449637E-1,1.913533956E-1
1.968814592E0,2.458730713E-2,-4.413498193E-2,1.852447391E-1
1.978814592E0,-4.871646687E-2,8.048143238E-2,1.681405306E-1
1.988814592E0,-1.482874304E-1,2.429714650E-1,1.302669197E-1
1.998814592E0,-1.501200199E-1,2.680169344E-1,1.192713454E-1
2.008814592E0,-1.226311028E-1,2.466366589E-1,1.259908676E-1
2.018814592E0,-1.226311028E-1,2.466366589E-1,1.259908676E-1
2.028814592E0,-3.405570984E-2,6.826414168E-2,1.809686869E-1
2.038814592E0,-4.581485991E-4,-2.336557768E-2,2.017380893E-1
2.048814592E0,1.603520103E-2,-1.052214578E-1,2.078467458E-1
2.058814592E0,1.603520103E-2,-1.052214578E-1,2.078467458E-1
2.068814592E0,1.603520103E-2,-1.052214578E-1,2.078467458E-1
2.078814592E0,1.603520103E-2,-1.052214578E-1,2.078467458E-1
2.088814592E0,-9.010255337E-3,-1.156061590E-1,8.017600328E-2
2.098814592E0,-1.069013379E-3,-6.918043643E-2,4.474584386E-2
2.108814592E0,1.908952370E-2,-3.191768378E-2,1.664606482E-2
2.118814592E0,4.413498193E-2,1.023198478E-2,1.985310577E-3
2.128814592E0,4.413498193E-2,1.023198478E-2,1.985310577E-3
2.138814592E0,4.413498193E-2,1.023198478E-2,1.985310577E-3
2.148814592E0,1.601992846E-1,3.016144931E-1,-7.376192510E-2
2.148814592E0,1.601992846E-1,3.016144931E-1,-7.376192510E-2
2.168814592E0,1.449276656E-1,4.604393244E-1,-1.446222365E-1
2.178814592E0,1.082757786E-1,4.824304581E-1,-1.592829973E-1
2.188814592E0,4.657844082E-2,4.720457494E-1,-1.580612659E-1
2.198814592E0,4.657844082E-2,4.720457494E-1,-1.580612659E-1
2.208814592E0,-2.075413018E-1,3.058905303E-1,-1.006399691E-1
2.218814592E0,-2.900080681E-1,2.399171442E-1,-8.109229803E-2
2.228814592E0,-3.633118272E-1,1.831067204E-1,-7.620538026E-2
2.238814592E0,-4.341721535E-1,1.806632578E-1,-8.353576064E-2
2.248814592E0,-5.038107038E-1,1.653916389E-1,-1.275180280E-1
2.258814592E0,-5.532907844E-1,8.720094711E-2,-2.002109289E-1
2.268814592E0,-5.294670463E-1,-1.522580534E-1,-2.649625838E-1
2.278814592E0,-4.524980783E-1,-2.652680278E-1,-2.222020626E-1
2.288814592E0,-3.449858725E-1,-3.251327872E-1,-1.525634825E-1
2.298814592E0,-2.276998460E-1,-3.055851161E-1,-1.049160287E-1
2.308814592E0,-1.122464016E-1,-2.249509543E-1,-1.000291109E-1
2.318814592E0,-4.734201822E-3,-1.076649204E-1,-1.220202371E-1
2.328814592E0,8.323032409E-2,2.977965772E-2,-1.513417512E-1
2.338814592E0,1.589775532E-1,2.961167097E-1,-1.641699076E-1
2.348814592E0,1.375972927E-1,3.987419903E-1,-1.488982886E-1
2.358814592E0,8.933897316E-2,4.463894367E-1,-1.311832070E-1
2.368814592E0,2.703076601E-2,3.645335436E-1,-1.128572673E-1
2.378814592E0,2.703076601E-2,3.645335436E-1,-1.128572673E-1
2.388814592E0,-1.140789986E-1,5.665770918E-2,-4.382954910E-2
2.398814592E0,-1.818849891E-1,-4.963276163E-2,-2.901607659E-3
2.408814592E0,-1.818849891E-1,-4.963276163E-2,-2.901607659E-3
2.418814592E0,-1.818849891E-1,-4.963276163E-2,-2.901607659E-3
2.428814592E0,-1.818849891E-1,-4.963276163E-2,-2.901607659E-3
2.438814592E0,-2.044869810E-1,-1.919642538E-1,-1.328630932E-2
2.448814592E0,-1.531743407E-1,-1.559232324E-1,-3.527744114E-2
2.458814592E0,-9.880737960E-2,-1.076649204E-1,-4.993819445E-2
2.468814592E0,-5.360338464E-2,-5.268708616E-2,-5.665770918E-2
2.478814592E0,-5.360338464E-2,-5.268708616E-2,-5.665770918E-2
2.488814592E0,-5.360338464E-2,-5.268708616E-2,-5.665770918E-2
2.498814592E0,7.040216774E-2,8.475748450E-2,-4.871646687E-2
2.508814592E0,8.078686893E-2,7.192932814E-2,-2.244928107E-2
2.518814592E0,8.017600328E-2,4.321868345E-2,1.114828233E-2
2.528814592E0,7.651081681E-2,-8.093958721E-3,4.108065739E-2
2.538814592E0,6.734783947E-2,-6.979130208E-2,6.307178736E-2
2.548814592E0,6.734783947E-2,-6.979130208E-2,6.307178736E-2
2.558814592E0,4.230238497E-2,-5.268708616E-2,1.039997265E-1
2.568814592E0,3.924806044E-2,9.010255337E-3,1.015562713E-1
2.578814592E0,4.535670951E-2,5.299251899E-2,9.422589093E-2
2.588814592E0,5.879573524E-2,5.971203372E-2,1.009454057E-1
2.598814592E0,7.040216774E-2,4.382954910E-2,1.174387559E-1
2.608814592E0,8.811724186E-2,7.788525894E-3,1.015562713E-1
2.618814592E0,7.162389904E-2,2.428187430E-2,-1.206457894E-2
2.628814592E0,1.527161949E-4,7.376192510E-2,-1.024725661E-1
2.638814592E0,-8.659008145E-2,8.781181276E-2,-1.684459597E-1
2.648814592E0,-1.696676910E-1,8.170316368E-2,-1.898262352E-1
2.658814592E0,-2.356410921E-1,7.559451461E-2,-1.769980639E-1
2.668814592E0,-2.875646055E-1,6.948586553E-2,-1.568395346E-1
2.678814592E0,-3.248273432E-1,4.627300799E-2,-1.501200199E-1
2.688814592E0,-3.565923274E-1,-5.879573524E-2,-1.507308781E-1
2.698814592E0,-3.547597229E-1,-8.933897316E-2,-1.360701323E-1
2.708814592E0,-3.437641561E-1,-1.039997265E-1,-1.110246703E-1
2.718814592E0,-3.242164850E-1,-1.174387559E-1,-7.620538026E-2
2.728814592E0,-2.851211429E-1,-1.333212405E-1,-2.000582218E-2
2.738814592E0,-2.209803313E-1,-1.278234571E-1,5.513054505E-2
2.748814592E0,-1.513417512E-1,-1.284343153E-1,9.422589093E-2
2.758814592E0,-2.428187430E-2,-1.724165827E-1,6.307178736E-2
2.768814592E0,1.542433538E-2,-1.864664704E-1,2.031125315E-2
2.778814592E0,3.313941509E-2,-1.730274558E-1,-2.550360374E-2
2.788814592E0,3.680460155E-2,-1.473711282E-1,-7.315105945E-2
2.798814592E0,3.985892609E-2,-1.327103674E-1,-9.453132749E-2
2.808814592E0,4.535670951E-2,-1.699731201E-1,-8.536835015E-2
2.818814592E0,5.085449293E-2,-2.341139317E-1,-7.620538026E-2
2.828814592E0,5.085449293E-2,-2.341139317E-1,-7.620538026E-2
2.838814592E0,5.085449293E-2,-2.341139317E-1,-7.620538026E-2
2.848814592E0,5.085449293E-2,-2.341139317E-1,-7.620538026E-2
2.858814592E0,1.840230078E-1,6.566796452E-3,-5.345067009E-3
2.868814592E0,2.102901936E-1,8.536835015E-2,-1.679878100E-3
2.878814592E0,2.322813272E-1,1.641699076E-1,3.817904973E-3
2.888814592E0,2.506072819E-1,2.105956376E-1,1.725693047E-2
2.898814592E0,2.506072819E-1,2.105956376E-1,1.725693047E-2
2.908814592E0,2.506072819E-1,2.105956376E-1,1.725693047E-2
2.918814592E0,2.603811026E-1,1.849393100E-1,7.162389904E-2
2.928814592E0,2.469420880E-1,1.934914142E-1,8.017600328E-2
2.938814592E0,2.316704690E-1,1.580612659E-1,1.198822111E-1
2.948814592E0,2.206749022E-1,1.360701323E-1,1.663079411E-1
2.958814592E0,1.962403059E-1,1.360701323E-1,1.773035079E-1
2.968814592E0,1.962403059E-1,1.360701323E-1,1.773035079E-1
2.978814592E0,-4.581485991E-4,-1.786779426E-2,2.377791107E-1
2.988814592E0,-7.376192510E-2,-8.750637621E-2,2.658788860E-1
2.998814592E0,-1.287397593E-1,-1.198822111E-1,2.506072819E-1
3.008814592E0,-1.666133702E-1,-1.137735620E-1,2.011272311E-1
3.018814592E0,-1.910479665E-1,-6.856957078E-2,1.394298822E-1
3.028814592E0,-2.118173689E-1,1.389717404E-2,8.872810751E-2
3.038814592E0,-2.380845547E-1,1.024725661E-1,4.841103405E-2
3.048814592E0,-2.399171442E-1,8.231402934E-2,6.551524997E-2
3.058814592E0,-2.295324355E-1,3.711003438E-2,8.933897316E-2
3.068814592E0,-2.105956376E-1,-6.261364091E-3,8.994983882E-2
3.078814592E0,-1.751654744E-1,-4.046979174E-2,6.307178736E-2
3.088814592E0,-1.159115955E-1,-8.933897316E-2,2.641990222E-2
3.098814592E0,7.528908551E-2,-1.565341055E-1,-1.679878100E-3
3.108814592E0,1.754709035E-1,-1.656970680E-1,1.664606482E-2
3.118814592E0,2.768744528E-1,-2.194531709E-1,5.451968312E-2
3.128814592E0,3.733910918E-1,-2.396117151E-1,8.872810751E-2
3.138814592E0,4.595230222E-1,-1.956294477E-1,1.033888608E-1
3.148814592E0,5.267181396E-1,-1.021671370E-1,9.972367436E-2
3.158814592E0,5.627591610E-1,2.733619884E-2,7.040216774E-2
3.168814592E0,5.743656158E-1,2.374736816E-1,3.375028074E-2
3.178814592E0,5.590940118E-1,2.802342176E-1,4.046979174E-2
3.188814592E0,5.279398561E-1,2.936732471E-1,6.368265301E-2
3.198814592E0,4.802924395E-1,2.771798968E-1,9.850194305E-2
3.208814592E0,4.228711426E-1,2.185368687E-1,1.437059343E-1
3.218814592E0,3.642281294E-1,1.201876476E-1,1.944077164E-1
3.228814592E0,3.104720116E-1,2.855792828E-2,2.463312149E-1
3.238814592E0,3.104720116E-1,2.855792828E-2,2.463312149E-1
3.248814592E0,3.104720116E-1,2.855792828E-2,2.463312149E-1
3.258814592E0,3.104720116E-1,2.855792828E-2,2.463312149E-1
3.268814592E0,3.104720116E-1,2.855792828E-2,2.463312149E-1
3.278814592E0,6.795870513E-2,-4.014908671E-1,2.542724609E-1
3.288814592E0,6.551524997E-2,-5.041161776E-1,2.310595959E-1
3.298814592E0,7.895427197E-2,-5.377137065E-1,2.096793354E-1
3.308814592E0,7.895427197E-2,-5.377137065E-1,2.096793354E-1
3.318814592E0,7.895427197E-2,-5.377137065E-1,2.096793354E-1
3.328814592E0,7.895427197E-2,-5.377137065E-1,2.096793354E-1
3.338814592E0,7.712167501E-2,-3.361283541E-1,1.162170246E-1
3.348814592E0,3.924806044E-2,-3.452913165E-1,1.797469556E-1
3.358814592E0,6.872228812E-3,-3.776671588E-1,2.762635946E-1
3.368814592E0,-2.794706449E-2,-4.051560760E-1,3.410152495E-1
3.378814592E0,-2.794706449E-2,-4.051560760E-1,3.410152495E-1
3.388814592E0,-2.794706449E-2,-4.051560760E-1,3.410152495E-1
3.398814592E0,-1.782197952E-1,-6.928733587E-1,3.245218992E-1
3.408814592E0,-1.983783394E-1,-7.826704979E-1,3.294088244E-1
3.418814592E0,-2.423606068E-1,-1.051450968E0,3.110828996E-1
3.428814592E0,-2.472475171E-1,-9.256128669E-1,2.860374451E-1
3.438814592E0,-2.313650399E-1,-5.688678026E-1,2.267835438E-1
3.448814592E0,-1.941022873E-1,-2.041815519E-1,6.185005978E-2
3.458814592E0,-1.598938555E-1,-1.217148080E-1,1.237001177E-2
3.468814592E0,-1.207985133E-1,-3.252854943E-2,1.374445739E-3
3.478814592E0,-8.536835015E-2,6.276635826E-2,2.825249545E-2
3.488814592E0,-5.604684353E-2,1.519526094E-1,7.528908551E-2
3.498814592E0,-3.833176568E-2,2.594648004E-1,1.076649204E-1
3.508814592E0,-4.260781780E-2,3.773617148E-1,1.015562713E-1
3.518814592E0,-1.256854236E-1,5.844448805E-1,1.298087649E-2
3.528814592E0,-1.904370934E-1,6.449204683E-1,-1.267544460E-2
3.538814592E0,-2.551887631E-1,6.785180569E-1,-1.328630932E-2
3.548814592E0,-3.089448512E-1,6.669116020E-1,-2.901607659E-3
3.558814592E0,-3.388772309E-1,6.125446558E-1,1.542433538E-2
3.568814592E0,-3.382663727E-1,5.422952175E-1,2.886336111E-2
3.578814592E0,-3.101665974E-1,4.830413163E-1,3.375028074E-2
3.588814592E0,-2.313650399E-1,4.958694875E-1,1.908952370E-2
3.598814592E0,-2.105956376E-1,5.520690680E-1,3.207040019E-3
3.608814592E0,-2.118173689E-1,6.107120514E-1,-4.734201822E-3
3.618814592E0,-2.307541668E-1,6.516399980E-1,-4.581485991E-4
3.628814592E0,-2.674060464E-1,6.791289449E-1,1.481347065E-2
3.638814592E0,-3.156643808E-1,7.115047574E-1,4.230238497E-2
3.648814592E0,-3.657552898E-1,7.560978532E-1,7.528908551E-2
3.658814592E0,-4.408916533E-1,8.672752976E-1,1.937968582E-1
3.668814592E0,-4.720457494E-1,8.849903345E-1,2.622137070E-1
3.678814592E0,-4.879282415E-1,8.458949924E-1,3.263545036E-1
3.688814592E0,-4.879282415E-1,8.458949924E-1,3.263545036E-1
3.698814592E0,-4.879282415E-1,8.458949924E-1,3.263545036E-1
3.708814592E0,-4.922043085E-1,6.296488643E-1,4.656316638E-1
3.718814592E0,-4.763218164E-1,5.459604263E-1,4.857902229E-1
3.728814592E0,-4.763218164E-1,5.459604263E-1,4.857902229E-1
3.738814592E0,-4.763218164E-1,5.459604263E-1,4.857902229E-1
3.748814592E0,-4.763218164E-1,5.459604263E-1,4.857902229E-1
3.758814592E0,-4.763218164E-1,5.459604263E-1,4.857902229E-1
3.768814592E0,-2.244928107E-2,-2.011272311E-1,3.972148299E-1
3.778814592E0,6.368265301E-2,-2.677114904E-1,3.220784664E-1
3.788814592E0,1.430950761E-1,-3.513999581E-1,2.316704690E-1
3.798814592E0,1.430950761E-1,-3.513999581E-1,2.316704690E-1
3.808814592E0,1.430950761E-1,-3.513999581E-1,2.316704690E-1
3.818814592E0,1.430950761E-1,-3.513999581E-1,2.316704690E-1
3.828814592E0,2.671006322E-1,-2.970330119E-1,5.268708616E-2
3.838814592E0,2.377791107E-1,-1.742491722E-1,1.143844277E-1
3.848814592E0,1.925751269E-1,-4.291325063E-2,1.718057245E-1
3.858814592E0,1.302669197E-1,6.215549260E-2,2.127336562E-1
3.868814592E0,1.302669197E-1,6.215549260E-2,2.127336562E-1
3.878814592E0,1.302669197E-1,6.215549260E-2,2.127336562E-1
3.888814592E0,-1.550069451E-1,1.989891976E-1,2.011272311E-1
3.898814592E0,-2.002109289E-1,1.922696829E-1,1.644753367E-1
3.908814592E0,-2.313650399E-1,1.892153621E-1,1.290451884E-1
3.918814592E0,-2.448040545E-1,1.892153621E-1,1.027780026E-1
3.928814592E0,-2.380845547E-1,1.794415265E-1,8.261945844E-2
3.938814592E0,-2.380845547E-1,1.794415265E-1,8.261945844E-2
3.948814592E0,-2.380845547E-1,1.794415265E-1,8.261945844E-2
3.958814592E0,-7.681624591E-2,5.177079141E-2,-4.123337101E-3
3.968814592E0,-4.260781780E-2,6.887500733E-2,-3.512472380E-3
3.978814592E0,-9.010255337E-3,9.392046183E-2,1.985310577E-3
3.988814592E0,2.641990222E-2,1.226311028E-1,8.704823442E-3
3.998814592E0,6.307178736E-2,1.513417512E-1,3.313941509E-2
4.008814592E0,6.307178736E-2,1.513417512E-1,3.313941509E-2
4.018814592E0,9.300415963E-2,2.429714650E-1,1.375972927E-1
4.028814592E0,8.872810751E-2,2.222020626E-1,1.693622619E-1
4.038814592E0,6.918043643E-2,2.179260105E-1,1.876882017E-1
4.048814592E0,3.313941509E-2,2.142608166E-1,2.127336562E-1
4.058814592E0,-1.023198478E-2,2.386954129E-1,2.408334464E-1
4.068814592E0,-6.887500733E-2,2.955058515E-1,2.597702444E-1
4.078814592E0,-6.887500733E-2,2.955058515E-1,2.597702444E-1
4.088814592E0,-1.922696829E-1,2.570213675E-1,2.487746775E-1
4.098814592E0,-1.934914142E-1,2.032652497E-1,2.237292230E-1
4.108814592E0,-1.715002805E-1,2.050978541E-1,1.852447391E-1
4.118814592E0,-1.281288862E-1,1.574503928E-1,1.327103674E-1
4.128814592E0,-7.315105945E-2,6.765327603E-2,8.872810751E-2
4.138814592E0,-1.206457894E-2,-8.078686893E-2,6.856957078E-2
4.148814592E0,1.021671370E-1,-3.680460155E-2,1.492037177E-1
4.158814592E0,1.479819864E-1,5.421425030E-2,1.925751269E-1
4.168814592E0,1.852447391E-1,1.189659163E-1,2.414443046E-1
4.178814592E0,2.139553875E-1,1.653916389E-1,2.884808779E-1
4.188814592E0,2.322813272E-1,1.989891976E-1,3.318522871E-1
4.198814592E0,2.444986254E-1,1.947131455E-1,3.623955250E-1
4.208814592E0,2.542724609E-1,1.855501831E-1,3.709476292E-1
4.218814592E0,2.432768941E-1,1.348484010E-1,3.049742281E-1
4.228814592E0,2.157879770E-1,9.636391699E-2,2.561050653E-1
4.238814592E0,1.693622619E-1,9.697478265E-2,2.286161482E-1
4.248814592E0,1.107192412E-1,1.379027218E-1,2.176205814E-1
4.258814592E0,3.924806044E-2,1.702785641E-1,2.243400961E-1
4.268814592E0,-2.855792828E-2,1.947131455E-1,2.176205814E-1
4.278814592E0,-9.330959618E-2,1.831067204E-1,2.170097083E-1
4.288814592E0,-2.350302190E-1,2.977965772E-2,2.652680278E-1
4.298814592E0,-2.674060464E-1,-7.406735420E-2,2.793179154E-1
4.308814592E0,-2.741255760E-1,-1.614210159E-1,2.835939825E-1
4.318814592E0,-2.686277926E-1,-2.035706937E-1,2.945895493E-1
4.328814592E0,-2.441931963E-1,-2.231183648E-1,3.367392123E-1
4.338814592E0,-2.185368687E-1,-1.913533956E-1,3.746128380E-1
4.348814592E0,-1.953240186E-1,-1.418733448E-1,3.843866587E-1
4.358814592E0,-1.574503928E-1,-3.252854943E-2,3.568977416E-1
4.368814592E0,-1.330158114E-1,-6.185005978E-2,3.434587121E-1
4.378814592E0,-9.575305134E-2,-1.308777779E-1,3.318522871E-1
4.388814592E0,-4.932733253E-2,-1.467602700E-1,3.410152495E-1
4.398814592E0,1.175914705E-2,-1.656970680E-1,3.367392123E-1
4.408814592E0,7.895427197E-2,-1.705839932E-1,3.190241456E-1
4.418814592E0,1.363755614E-1,-1.363755614E-1,3.104720116E-1
4.428814592E0,1.889099330E-1,4.581485991E-4,3.153589368E-1
4.438814592E0,1.846338809E-1,5.054906011E-2,3.098611534E-1
4.448814592E0,1.644753367E-1,7.315105945E-2,2.994764447E-1
4.458814592E0,1.644753367E-1,7.315105945E-2,2.994764447E-1
4.468814592E0,1.644753367E-1,7.315105945E-2,2.994764447E-1
4.478814592E0,4.963276163E-2,3.894263133E-2,2.573267817E-1
4.488814592E0,-2.306014486E-2,-3.436114267E-2,2.750418782E-1
4.498814592E0,-2.306014486E-2,-3.436114267E-2,2.750418782E-1
4.508814592E0,-2.306014486E-2,-3.436114267E-2,2.750418782E-1
4.518814592E0,-2.306014486E-2,-3.436114267E-2,2.750418782E-1
4.528814592E0,-3.156643808E-1,-2.383899838E-1,3.147480786E-1
4.538814592E0,-3.132209182E-1,-1.626427472E-1,3.239110410E-1
4.548814592E0,-2.814559340E-1,-8.689551800E-2,3.379609287E-1
4.558814592E0,-2.814559340E-1,-8.689551800E-2,3.379609287E-1
4.568814592E0,-2.814559340E-1,-8.689551800E-2,3.379609287E-1
4.578814592E0,-2.814559340E-1,-8.689551800E-2,3.379609287E-1
4.588814592E0,-2.814559340E-1,-8.689551800E-2,3.379609287E-1
4.598814592E0,-2.814559340E-1,-8.689551800E-2,3.379609287E-1
4.608814592E0,-1.206457894E-2,1.647807807E-1,2.078467458E-1
4.618814592E0,-4.581485991E-4,1.488982886E-1,1.937968582E-1
4.628814592E0,2.336557768E-2,1.287397593E-1,1.913533956E-1
4.638814592E0,2.336557768E-2,1.287397593E-1,1.913533956E-1
4.648814592E0,1.601992846E-1,1.928805560E-1,2.041815519E-1
4.658814592E0,1.821904182E-1,2.374736816E-1,2.017380893E-1
4.668814592E0,1.901316643E-1,2.771798968E-1,1.931859851E-1
4.678814592E0,1.895207912E-1,2.955058515E-1,1.846338809E-1
4.688814592E0,1.797469556E-1,3.083339930E-1,1.785252392E-1
4.698814592E0,1.663079411E-1,2.967275679E-1,1.785252392E-1
4.708814592E0,1.663079411E-1,2.967275679E-1,1.785252392E-1
4.718814592E0,6.612611562E-2,1.782197952E-1,2.035706937E-1
4.728814592E0,1.786779426E-2,1.653916389E-1,2.115119249E-1
4.738814592E0,-2.122755162E-2,1.568395346E-1,2.225074917E-1
4.748814592E0,-6.215549260E-2,1.745546162E-1,2.444986254E-1
4.758814592E0,-9.941824526E-2,2.069304436E-1,2.561050653E-1
4.768814592E0,-1.299614757E-1,2.466366589E-1,2.493855506E-1
4.778814592E0,-1.476765573E-1,2.466366589E-1,2.286161482E-1
4.788814592E0,-1.250745654E-1,2.044869810E-1,2.475529462E-1
4.798814592E0,-8.414662629E-2,1.385135949E-1,2.787070572E-1
4.808814592E0,-4.138609022E-2,8.475748450E-2,3.080285788E-1
4.818814592E0,-4.734201822E-3,6.643154472E-2,3.184132576E-1
4.828814592E0,2.031125315E-2,7.864884287E-2,2.970330119E-1
4.838814592E0,3.558287397E-2,1.189659163E-1,2.628245652E-1
4.848814592E0,3.313941509E-2,2.063195854E-1,2.121227980E-1
4.858814592E0,1.527161949E-4,2.215912044E-1,1.962403059E-1
4.868814592E0,-4.627300799E-2,2.112064958E-1,1.956294477E-1
4.878814592E0,-9.025526792E-2,1.788306683E-1,2.206749022E-1
4.888814592E0,-1.159115955E-1,1.006399691E-1,2.585485280E-1
4.898814592E0,-1.207985133E-1,5.345067009E-3,2.982547283E-1
4.908814592E0,-1.098029464E-1,-7.345648855E-2,3.245218992E-1
4.918814592E0,-1.098029464E-1,-7.345648855E-2,3.245218992E-1
4.928814592E0,-1.098029464E-1,-7.345648855E-2,3.245218992E-1
4.938814592E0,-1.098029464E-1,-7.345648855E-2,3.245218992E-1
4.948814592E0,-1.098029464E-1,-7.345648855E-2,3.245218992E-1
4.958814592E0,1.114828233E-2,2.246455252E-1,2.377791107E-1
4.968814592E0,2.031125315E-2,1.983783394E-1,2.542724609E-1
4.978814592E0,2.031125315E-2,1.403461844E-1,2.805396616E-1
4.988814592E0,2.031125315E-2,1.403461844E-1,2.805396616E-1
4.998814592E0,2.031125315E-2,1.403461844E-1,2.805396616E-1
5.008814592E0,2.031125315E-2,1.403461844E-1,2.805396616E-1
5.018814592E0,2.519817278E-2,4.382954910E-2,3.049742281E-1
5.028814592E0,3.802633286E-2,7.437278330E-2,2.695440948E-1
5.038814592E0,4.108065739E-2,1.324049383E-1,2.365573794E-1
5.048814592E0,3.985892609E-2,1.831067204E-1,2.127336562E-1
5.058814592E0,3.985892609E-2,1.831067204E-1,2.127336562E-1
5.068814592E0,3.619373962E-2,1.128572673E-1,2.530507445E-1
5.078814592E0,3.619373962E-2,1.128572673E-1,2.530507445E-1
5.088814592E0,3.313941509E-2,1.206457894E-2,2.585485280E-1
5.098814592E0,2.336557768E-2,2.794706449E-2,2.499964088E-1
5.108814592E0,1.603520103E-2,4.199695215E-2,2.371682525E-1
5.118814592E0,1.542433538E-2,3.649916872E-2,2.328922004E-1
5.128814592E0,9.315688163E-3,7.788525894E-3,2.408334464E-1
5.138814592E0,1.527161949E-4,2.901607659E-3,2.438877672E-1
5.148814592E0,-1.389717404E-2,1.084284950E-2,2.432768941E-1
5.158814592E0,-3.711003438E-2,2.244928107E-2,2.579376400E-1
5.168814592E0,-5.971203372E-2,3.344484791E-2,2.780961990E-1
5.178814592E0,-7.131846249E-2,5.971203372E-2,3.013090491E-1
5.188814592E0,-6.215549260E-2,8.048143238E-2,3.171915412E-1
5.198814592E0,-1.695149764E-2,1.434005052E-1,3.214675784E-1
5.208814592E0,8.093958721E-3,1.959348768E-1,3.208567202E-1
5.218814592E0,2.825249545E-2,2.301433086E-1,3.165806830E-1
5.228814592E0,3.924806044E-2,2.246455252E-1,3.086394370E-1
5.238814592E0,4.474584386E-2,1.727220118E-1,2.848156989E-1
5.248814592E0,3.863719851E-2,1.434005052E-1,2.616028488E-1
5.258814592E0,2.397644334E-2,1.256854236E-1,2.457203567E-1
5.268814592E0,-1.069013379E-3,1.024725661E-1,2.121227980E-1
5.278814592E0,-4.734201822E-3,9.086613357E-2,1.968511790E-1
5.288814592E0,-6.566796452E-3,5.543597788E-2,1.876882017E-1
5.298814592E0,-1.267544460E-2,1.389717404E-2,1.858556122E-1
5.308814592E0,-2.306014486E-2,-1.298087649E-2,1.950185746E-1
5.318814592E0,-4.566214234E-2,-1.298087649E-2,2.078467458E-1
5.328814592E0,-7.131846249E-2,5.955931731E-3,2.194531709E-1
5.338814592E0,-7.131846249E-2,5.955931731E-3,2.194531709E-1
5.348814592E0,-7.131846249E-2,5.955931731E-3,2.194531709E-1
5.358814592E0,-7.131846249E-2,5.955931731E-3,2.194531709E-1
5.368814592E0,-7.131846249E-2,5.955931731E-3,2.194531709E-1
5.378814592E0,-1.098029464E-1,-7.773254067E-2,2.707658112E-1
5.388814592E0,-9.819651395E-2,-9.666935354E-2,2.866483033E-1
5.398814592E0,-8.842267841E-2,-7.834340632E-2,3.025307953E-1
5.408814592E0,-8.842267841E-2,-7.834340632E-2,3.025307953E-1
5.418814592E0,-8.842267841E-2,-7.834340632E-2,3.025307953E-1
5.428814592E0,-8.842267841E-2,-7.834340632E-2,3.025307953E-1
5.438814592E0,4.428769462E-3,1.067486182E-1,2.952004075E-1
5.448814592E0,4.230238497E-2,1.550069451E-1,2.842048407E-1
5.458814592E0,6.551524997E-2,1.812741160E-1,2.677114904E-1
5.468814592E0,6.490438432E-2,1.831067204E-1,2.518289983E-1
5.478814592E0,6.490438432E-2,1.831067204E-1,2.518289983E-1
5.488814592E0,6.490438432E-2,1.831067204E-1,2.518289983E-1
5.498814592E0,6.490438432E-2,1.831067204E-1,2.518289983E-1
5.508814592E0,-5.849030241E-2,-1.027780026E-1,1.968511790E-1
5.518814592E0,-6.704241037E-2,-8.506292105E-2,1.882990748E-1
5.528814592E0,-6.093376130E-2,-5.146535859E-2,1.815795600E-1
5.538814592E0,-4.688387364E-2,-1.786779426E-2,1.925751269E-1
5.548814592E0,-4.688387364E-2,-1.786779426E-2,1.925751269E-1
5.558814592E0,1.985310577E-3,1.030834317E-1,2.579376400E-1
5.568814592E0,-3.512472380E-3,1.262962967E-1,2.585485280E-1
5.578814592E0,-1.328630932E-2,1.592829973E-1,2.597702444E-1
5.588814592E0,-2.306014486E-2,1.550069451E-1,2.671006322E-1
5.598814592E0,-3.955349326E-2,1.159115955E-1,2.811505198E-1
5.608814592E0,-6.215549260E-2,8.475748450E-2,2.982547283E-1
5.618814592E0,-9.025526792E-2,7.864884287E-2,3.104720116E-1
5.628814592E0,-7.254019380E-2,1.061377525E-1,3.037525117E-1
5.638814592E0,-3.039052337E-2,1.360701323E-1,2.884808779E-1
5.648814592E0,2.458730713E-2,1.366809905E-1,2.719875574E-1
5.658814592E0,8.628465235E-2,9.392046183E-2,2.542724609E-1
5.668814592E0,1.388190240E-1,5.482511222E-2,2.390008420E-1
5.678814592E0,1.736383140E-1,5.726857483E-2,2.267835438E-1
5.688814592E0,1.638644785E-1,1.311832070E-1,2.005163580E-1
5.698814592E0,1.284343153E-1,1.745546162E-1,1.852447391E-1
5.708814592E0,7.712167501E-2,1.849393100E-1,1.779143661E-1
5.718814592E0,2.519817278E-2,1.556178033E-1,1.791360974E-1
5.728814592E0,-1.878409274E-2,8.475748450E-2,1.876882017E-1
5.738814592E0,-6.032289565E-2,-2.397644334E-2,1.962403059E-1
5.748814592E0,-9.880737960E-2,-1.272125840E-1,2.090684772E-1
5.758814592E0,-1.531743407E-1,-2.200640440E-1,2.444986254E-1
5.768814592E0,-1.592829973E-1,-2.102901936E-1,2.658788860E-1
5.778814592E0,-1.434005052E-1,-1.473711282E-1,3.043633699E-1
5.788814592E0,-8.964440972E-2,2.061668597E-2,3.361283541E-1
5.798814592E0,-3.588830680E-2,1.324049383E-1,3.367392123E-1
5.808814592E0,1.970038936E-2,2.448040545E-1,3.086394370E-1
5.818814592E0,6.246092543E-2,3.486510813E-1,2.799287736E-1
5.828814592E0,6.246092543E-2,3.486510813E-1,2.799287736E-1
5.838814592E0,6.246092543E-2,3.486510813E-1,2.799287736E-1
5.848814592E0,6.246092543E-2,3.486510813E-1,2.799287736E-1
5.858814592E0,6.246092543E-2,3.486510813E-1,2.799287736E-1
5.868814592E0,7.635809598E-4,2.631300092E-1,2.701549530E-1
5.878814592E0,-4.382954910E-2,1.452330947E-1,2.732092738E-1
5.888814592E0,-9.147699922E-2,1.023198478E-2,2.622137070E-1
5.898814592E0,-9.147699922E-2,1.023198478E-2,2.622137070E-1
5.908814592E0,-9.147699922E-2,1.023198478E-2,2.622137070E-1
5.918814592E0,-9.147699922E-2,1.023198478E-2,2.622137070E-1
5.928814592E0,-5.787943676E-2,-2.420551628E-1,2.414443046E-1
5.938814592E0,-1.695149764E-2,-1.773035079E-1,2.487746775E-1
5.948814592E0,1.175914705E-2,-7.345648855E-2,2.597702444E-1
5.958814592E0,3.191768378E-2,9.010255337E-3,2.634354234E-1
5.968814592E0,3.191768378E-2,9.010255337E-3,2.634354234E-1
5.978814592E0,6.368265301E-2,1.122464016E-1,2.866483033E-1
5.988814592E0,6.918043643E-2,1.470656991E-1,2.866483033E-1
5.998814592E0,8.139773458E-2,1.867718995E-1,2.725984156E-1
6.008814592E0,9.178243577E-2,1.959348768E-1,2.512181401E-1
6.018814592E0,8.506292105E-2,1.568395346E-1,2.353356630E-1
6.028814592E0,6.062832847E-2,7.864884287E-2,2.286161482E-1
6.038814592E0,-8.399390616E-3,-8.994983882E-2,2.231183648E-1
6.048814592E0,-3.894263133E-2,-1.223256737E-1,2.218966335E-1
6.058814592E0,-6.154462695E-2,-9.850194305E-2,2.151771188E-1
6.068814592E0,-7.681624591E-2,-4.657844082E-2,2.102901936E-1
6.078814592E0,-8.536835015E-2,2.290742937E-3,2.109010667E-1
6.088814592E0,-8.475748450E-2,2.244928107E-2,2.237292230E-1
6.098814592E0,-7.192932814E-2,2.428187430E-2,2.451094985E-1
6.108814592E0,-2.061668597E-2,3.100138716E-2,2.878700197E-1
6.118814592E0,-1.069013379E-3,6.093376130E-2,2.884808779E-1
6.128814592E0,1.237001177E-2,1.299614757E-1,2.719875574E-1
6.138814592E0,1.786779426E-2,2.099847645E-1,2.475529462E-1
6.148814592E0,2.153298259E-2,2.582430840E-1,2.273944169E-1
6.158814592E0,2.153298259E-2,2.533561587E-1,2.292270064E-1
6.168814592E0,1.374445739E-3,1.140789986E-1,2.707658112E-1
6.178814592E0,-1.328630932E-2,1.206457894E-2,2.780961990E-1
6.188814592E0,-2.855792828E-2,-7.589995116E-2,2.713766694E-1
6.198814592E0,-3.772090003E-2,-1.204930767E-1,2.542724609E-1
6.208814592E0,-3.222311661E-2,-1.027780026E-1,2.322813272E-1
6.218814592E0,-1.267544460E-2,-5.268708616E-2,2.163988501E-1
6.228814592E0,1.725693047E-2,-1.527161949E-4,2.200640440E-1
6.238814592E0,6.490438432E-2,1.421787739E-1,2.597702444E-1
6.248814592E0,6.734783947E-2,2.099847645E-1,2.609919906E-1
6.258814592E0,6.734783947E-2,2.099847645E-1,2.609919906E-1
6.268814592E0,6.734783947E-2,2.099847645E-1,2.609919906E-1
6.278814592E0,6.734783947E-2,2.099847645E-1,2.609919906E-1
6.288814592E0,-1.695149764E-2,-1.664606482E-2,2.567159235E-1
6.298814592E0,-4.688387364E-2,-8.628465235E-2,2.652680278E-1
6.308814592E0,-4.688387364E-2,-8.628465235E-2,2.652680278E-1
6.318814592E0,-4.688387364E-2,-8.628465235E-2,2.652680278E-1
6.328814592E0,-4.688387364E-2,-8.628465235E-2,2.652680278E-1
6.338814592E0,-4.688387364E-2,-8.628465235E-2,2.652680278E-1
6.348814592E0,-9.147699922E-2,-1.485928595E-1,3.911061883E-1
6.358814592E0,-7.681624591E-2,-1.388190240E-1,4.106538594E-1
6.368814592E0,-6.459894776E-2,-1.107192412E-1,4.021017551E-1
6.378814592E0,-6.459894776E-2,-1.107192412E-1,4.021017551E-1
6.388814592E0,-6.459894776E-2,-1.107192412E-1,4.021017551E-1
6.398814592E0,-2.901607659E-3,2.362519503E-1,2.359465212E-1
6.408814592E0,9.315688163E-3,2.222020626E-1,2.212857604E-1
6.418814592E0,1.542433538E-2,1.562286615E-1,2.200640440E-1
6.428814592E0,5.650499370E-3,8.659008145E-2,2.255618125E-1
6.438814592E0,-1.939495653E-2,2.611446939E-2,2.328922004E-1
6.448814592E0,-1.939495653E-2,2.611446939E-2,2.328922004E-1
6.458814592E0,-7.987056673E-2,-4.108065739E-2,2.188423127E-1
6.468814592E0,-8.536835015E-2,-3.985892609E-2,2.255618125E-1
6.478814592E0,-8.353576064E-2,-2.397644334E-2,2.341139317E-1
6.488814592E0,-7.742711157E-2,1.023198478E-2,2.432768941E-1
6.498814592E0,-6.765327603E-2,5.421425030E-2,2.444986254E-1
6.508814592E0,-5.299251899E-2,9.514218569E-2,2.390008420E-1
6.518814592E0,-5.299251899E-2,9.514218569E-2,2.390008420E-1
6.528814592E0,5.329795182E-2,1.543960720E-1,2.725984156E-1
6.538814592E0,9.361502528E-2,1.550069451E-1,2.897026241E-1
6.548814592E0,1.272125840E-1,1.672242284E-1,3.092502952E-1
6.558814592E0,1.540906429E-1,1.733328849E-1,3.373500705E-1
6.568814592E0,1.693622619E-1,1.843284518E-1,3.660607338E-1
6.578814592E0,1.693622619E-1,2.014326602E-1,3.770562708E-1
6.588814592E0,1.553123742E-1,2.063195854E-1,3.471239209E-1
6.598814592E0,1.412624866E-1,1.708894223E-1,3.287979662E-1
6.608814592E0,1.467602700E-1,2.270889878E-1,3.086394370E-1
6.618814592E0,1.388190240E-1,2.845102847E-1,2.866483033E-1
6.628814592E0,1.003345400E-1,3.712530732E-1,2.499964088E-1
6.638814592E0,4.657844082E-2,4.390590489E-1,2.054032832E-1
6.648814592E0,-1.328630932E-2,4.066832364E-1,1.449276656E-1
6.658814592E0,-1.366809905E-1,1.177441850E-1,1.443168074E-1
6.668814592E0,-2.032652497E-1,-6.062832847E-2,1.809686869E-1
6.678814592E0,-2.643517256E-1,-1.992946416E-1,2.084576041E-1
6.688814592E0,-2.973384261E-1,-2.603811026E-1,2.225074917E-1
6.698814592E0,-2.716821134E-1,-1.779143661E-1,2.255618125E-1
6.708814592E0,-1.727220118E-1,-1.125518382E-1,2.041815519E-1
6.718814592E0,-2.061668597E-2,-1.015562713E-1,1.931859851E-1
6.728814592E0,-2.061668597E-2,-1.015562713E-1,1.931859851E-1
6.738814592E0,-2.061668597E-2,-1.015562713E-1,1.931859851E-1
6.748814592E0,-2.061668597E-2,-1.015562713E-1,1.931859851E-1
6.758814592E0,-2.061668597E-2,-1.015562713E-1,1.931859851E-1
6.768814592E0,2.634354234E-1,1.427896470E-1,4.033234715E-1
6.778814592E0,1.681405306E-1,1.507308781E-1,4.173733592E-1
6.788814592E0,5.329795182E-2,1.464548260E-1,4.100429714E-1
6.798814592E0,5.329795182E-2,1.464548260E-1,4.100429714E-1
6.808814592E0,5.329795182E-2,1.464548260E-1,4.100429714E-1
6.818814592E0,5.329795182E-2,1.464548260E-1,4.100429714E-1
6.828814592E0,-1.941022873E-1,-5.879573524E-2,3.049742281E-1
6.838814592E0,-1.305723488E-1,-1.058323234E-1,2.823722363E-1
6.848814592E0,-5.177079141E-2,-1.107192412E-1,2.438877672E-1
6.858814592E0,2.153298259E-2,-6.429351866E-2,1.980729103E-1
6.868814592E0,2.153298259E-2,-6.429351866E-2,1.980729103E-1
6.878814592E0,2.153298259E-2,-6.429351866E-2,1.980729103E-1
6.888814592E0,1.114828233E-2,1.069013379E-3,2.121227980E-1
6.898814592E0,-6.215549260E-2,-5.757400393E-2,2.616028488E-1
6.908814592E0,-1.446222365E-1,-9.972367436E-2,3.019199073E-1
6.918814592E0,-2.148716897E-1,-1.009454057E-1,3.153589368E-1
6.928814592E0,-2.521344423E-1,-6.918043643E-2,3.006981909E-1
6.938814592E0,-2.521344423E-1,-6.918043643E-2,3.006981909E-1
6.948814592E0,-9.269873053E-2,4.566214234E-2,2.499964088E-1
6.958814592E0,1.359174121E-2,7.376192510E-2,2.548833191E-1
6.968814592E0,1.143844277E-1,1.183550507E-1,2.664897740E-1
6.978814592E0,1.931859851E-1,1.751654744E-1,2.805396616E-1
6.988814592E0,2.402225733E-1,2.307541668E-1,2.958112657E-1
6.998814592E0,2.548833191E-1,2.826776803E-1,3.116937578E-1
7.008814592E0,1.999054998E-1,3.718639314E-1,3.324631453E-1
7.018814592E0,1.492037177E-1,3.804160357E-1,3.294088244E-1
7.028814592E0,9.056070447E-2,3.523162603E-1,3.220784664E-1
7.038814592E0,2.825249545E-2,3.016144931E-1,3.123046160E-1
7.048814592E0,-3.527744114E-2,2.435823381E-1,3.019199073E-1
7.058814592E0,-9.880737960E-2,1.873827726E-1,2.976438701E-1
7.068814592E0,-1.574503928E-1,1.672242284E-1,2.921460867E-1
7.078814592E0,-2.044869810E-1,1.550069451E-1,2.622137070E-1
7.088814592E0,-1.592829973E-1,1.391244531E-1,2.780961990E-1
7.098814592E0,-7.742711157E-2,1.183550507E-1,2.872591615E-1
7.108814592E0,1.664606482E-2,7.864884287E-2,2.750418782E-1
7.118814592E0,1.058323234E-1,6.765327603E-2,2.512181401E-1
7.128814592E0,1.656970680E-1,8.536835015E-2,2.273944169E-1
7.138814592E0,1.895207912E-1,1.043051630E-1,2.170097083E-1
7.148814592E0,1.504254490E-1,5.910116807E-2,2.823722363E-1
7.158814592E0,1.027780026E-1,-2.596175298E-3,3.342957497E-1
7.168814592E0,4.841103405E-2,-6.307178736E-2,3.666715920E-1
7.178814592E0,-4.734201822E-3,-1.046105921E-1,3.654498458E-1
7.188814592E0,-4.932733253E-2,-1.082757786E-1,3.349066079E-1
7.198814592E0,-7.987056673E-2,-6.551524997E-2,2.970330119E-1
7.208814592E0,-8.903354406E-2,-7.635809598E-4,2.744309902E-1
7.218814592E0,-3.161225095E-2,1.079703495E-1,2.988655865E-1
7.228814592E0,-3.161225095E-2,1.079703495E-1,2.988655865E-1
7.238814592E0,-3.161225095E-2,1.079703495E-1,2.988655865E-1
7.248814592E0,-3.161225095E-2,1.079703495E-1,2.988655865E-1
7.258814592E0,4.428769462E-3,2.173151523E-1,2.609919906E-1
7.268814592E0,-1.756236330E-2,1.482874304E-1,2.426660359E-1
7.278814592E0,-3.283398226E-2,4.260781780E-2,2.426660359E-1
7.288814592E0,-3.283398226E-2,4.260781780E-2,2.426660359E-1
7.298814592E0,-3.283398226E-2,4.260781780E-2,2.426660359E-1
7.308814592E0,-3.283398226E-2,4.260781780E-2,2.426660359E-1
7.318814592E0,-3.283398226E-2,4.260781780E-2,2.426660359E-1
7.328814592E0,6.872228812E-3,1.440113783E-1,3.294088244E-1
7.338814592E0,3.436114267E-2,2.099847645E-1,3.617846668E-1
7.348814592E0,5.818486959E-2,2.674060464E-1,3.959930837E-1
7.358814592E0,5.818486959E-2,2.674060464E-1,3.959930837E-1
7.368814592E0,5.818486959E-2,2.674060464E-1,3.959930837E-1
7.378814592E0,4.474584386E-2,3.089448512E-1,3.935496211E-1
7.388814592E0,2.825249545E-2,2.545779049E-1,3.776671588E-1
7.398814592E0,4.428769462E-3,1.617264450E-1,3.452913165E-1
7.408814592E0,-8.399390616E-3,8.842267841E-2,3.330740333E-1
7.418814592E0,4.428769462E-3,6.765327603E-2,3.440696001E-1
7.428814592E0,1.003345400E-1,1.647807807E-1,3.281871080E-1
7.438814592E0,1.571449637E-1,2.234237939E-1,2.958112657E-1
7.448814592E0,1.840230078E-1,2.863428593E-1,2.780961990E-1
7.458814592E0,1.736383140E-1,3.419315517E-1,2.732092738E-1
7.468814592E0,1.339320987E-1,3.572031856E-1,2.768744528E-1
7.478814592E0,6.185005978E-2,3.089448512E-1,2.866483033E-1
7.488814592E0,-4.016435891E-2,1.873827726E-1,2.872591615E-1
7.498814592E0,-2.741255760E-1,-6.673697382E-2,3.086394370E-1
7.508814592E0,-3.358229101E-1,-9.850194305E-2,3.513999581E-1
7.518814592E0,-3.437641561E-1,1.069013379E-3,3.801106215E-1
7.528814592E0,-2.350302190E-1,-6.734783947E-2,4.137081802E-1
7.538814592E0,-8.903354406E-2,-1.644753367E-1,3.923279047E-1
7.548814592E0,1.527161949E-4,-1.327103674E-1,3.110828996E-1
7.558814592E0,3.863719851E-2,-9.605848789E-2,2.793179154E-1
7.568814592E0,8.139773458E-2,-1.473711282E-1,3.092502952E-1
7.578814592E0,9.605848789E-2,-1.461493969E-1,3.300196826E-1
7.588814592E0,1.033888608E-1,-9.239330143E-2,3.300196826E-1
7.598814592E0,8.384118974E-2,-1.527161949E-4,3.251327872E-1
7.608814592E0,4.291325063E-2,7.987056673E-2,3.147480786E-1
7.618814592E0,-1.679878100E-3,1.036942974E-1,3.068068326E-1
7.628814592E0,-3.588830680E-2,7.376192510E-2,3.159697950E-1
7.638814592E0,1.527161949E-4,1.389717404E-2,3.709476292E-1
7.648814592E0,4.352411628E-2,-4.718930274E-2,3.880518377E-1
7.658814592E0,8.689551800E-2,-7.345648855E-2,3.746128380E-1
7.668814592E0,1.204930767E-1,-6.368265301E-2,3.568977416E-1
7.678814592E0,1.302669197E-1,-3.817904973E-3,3.471239209E-1
7.688814592E0,1.137735620E-1,5.115992576E-2,3.452913165E-1
7.698814592E0,7.834340632E-2,1.220202371E-1,3.391826749E-1
7.708814592E0,7.834340632E-2,1.220202371E-1,3.391826749E-1
7.718814592E0,7.834340632E-2,1.220202371E-1,3.391826749E-1
7.728814592E0,7.834340632E-2,1.220202371E-1,3.391826749E-1
7.738814592E0,7.834340632E-2,1.220202371E-1,3.391826749E-1
7.748814592E0,-1.317940801E-1,4.005745649E-1,3.568977416E-1
7.758814592E0,-1.122464016E-1,3.779725730E-1,3.782780170E-1
7.768814592E0,-8.292489499E-2,3.254382014E-1,3.923279047E-1
7.778814592E0,-8.292489499E-2,3.254382014E-1,3.923279047E-1
7.788814592E0,-8.292489499E-2,3.254382014E-1,3.923279047E-1
7.798814592E0,-8.292489499E-2,3.254382014E-1,3.923279047E-1
7.808814592E0,4.657844082E-2,3.565923274E-1,4.363101721E-1
7.818814592E0,4.291325063E-2,3.859138191E-1,4.393644929E-1
7.828814592E0,3.436114267E-2,4.103484154E-1,4.485274553E-1
7.838814592E0,1.542433538E-2,4.311178327E-1,4.601338804E-1
7.848814592E0,1.542433538E-2,4.311178327E-1,4.601338804E-1
7.858814592E0,1.542433538E-2,4.311178327E-1,4.601338804E-1
7.868814592E0,-8.903354406E-2,3.761399984E-1,3.746128380E-1
7.878814592E0,-1.036942974E-1,2.612974048E-1,3.513999581E-1
7.888814592E0,-1.104138121E-1,1.018617004E-1,3.471239209E-1
7.898814592E0,-1.122464016E-1,-8.811724186E-2,3.617846668E-1
7.908814592E0,-1.073594838E-1,-2.952004075E-1,3.947713673E-1
7.918814592E0,-1.073594838E-1,-2.952004075E-1,3.947713673E-1
7.928814592E0,-4.260781780E-2,-5.664243698E-1,4.576904476E-1
7.938814592E0,-4.734201822E-3,-4.864010811E-1,4.130973220E-1
7.948814592E0,2.092211880E-2,-3.837758005E-1,3.727802336E-1
7.958814592E0,4.169152305E-2,-3.019199073E-1,3.355174661E-1
7.968814592E0,5.207622424E-2,-2.402225733E-1,3.220784664E-1
7.978814592E0,4.596757516E-2,-1.834121495E-1,3.336848915E-1
7.988814592E0,4.428769462E-3,-1.174387559E-1,3.593412042E-1
7.998814592E0,-1.328630932E-2,-8.872810751E-2,3.617846668E-1
8.008814592E0,-2.733619884E-2,-3.008509055E-2,3.544542789E-1
8.018814592E0,-4.138609022E-2,5.604684353E-2,3.379609287E-1
8.028814592E0,-5.543597788E-2,1.476765573E-1,3.171915412E-1
8.038814592E0,-6.215549260E-2,2.350302190E-1,2.927569449E-1
8.048814592E0,-6.459894776E-2,2.857320011E-1,2.683223486E-1
8.058814592E0,-6.276635826E-2,2.167042792E-1,2.371682525E-1
8.068814592E0,-6.520981342E-2,1.342375278E-1,2.481638193E-1
8.078814592E0,-7.254019380E-2,4.505127668E-2,2.664897740E-1
8.088814592E0,-7.987056673E-2,-3.252854943E-2,2.842048407E-1
8.098814592E0,-8.170316368E-2,-8.384118974E-2,3.000873327E-1
8.108814592E0,-7.192932814E-2,-1.015562713E-1,3.153589368E-1
8.118814592E0,-5.177079141E-2,-9.605848789E-2,3.269653618E-1
8.128814592E0,-1.389717404E-2,-4.657844082E-2,3.459021747E-1
8.138814592E0,5.650499370E-3,-8.704823442E-3,3.636172712E-1
8.148814592E0,2.458730713E-2,1.389717404E-2,3.898844421E-1
8.158814592E0,3.924806044E-2,2.733619884E-2,4.155407548E-1
8.168814592E0,3.741546720E-2,5.238165334E-2,4.308123887E-1
8.178814592E0,1.725693047E-2,1.006399691E-1,4.277580678E-1
8.188814592E0,-9.621120058E-3,1.617264450E-1,4.069886506E-1
8.198814592E0,-6.398808211E-2,3.437641561E-1,3.440696001E-1
8.208814592E0,-8.720094711E-2,4.702131748E-1,3.147480786E-1
8.218814592E0,-1.159115955E-1,5.734493136E-1,2.677114904E-1
8.228814592E0,-1.458439678E-1,6.388118267E-1,2.286161482E-1
8.238814592E0,-1.702785641E-1,6.760746241E-1,2.255618125E-1
8.248814592E0,-1.886045039E-1,6.675224900E-1,2.475529462E-1
8.258814592E0,-1.941022873E-1,6.064360142E-1,2.664897740E-1
8.268814592E0,-1.941022873E-1,6.064360142E-1,2.664897740E-1
8.278814592E0,-1.941022873E-1,6.064360142E-1,2.664897740E-1
8.288814592E0,-1.941022873E-1,6.064360142E-1,2.664897740E-1
8.298814592E0,-1.941022873E-1,6.064360142E-1,2.664897740E-1
8.308814592E0,-4.016435891E-2,3.596466482E-1,3.501782417E-1
8.318814592E0,-2.244928107E-2,3.407098353E-1,3.483456373E-1
8.328814592E0,-1.069013379E-3,3.510945439E-1,3.471239209E-1
8.338814592E0,-1.069013379E-3,3.510945439E-1,3.471239209E-1
8.348814592E0,-1.069013379E-3,3.510945439E-1,3.471239209E-1
8.358814592E0,-1.069013379E-3,3.510945439E-1,3.471239209E-1
8.368814592E0,-5.543597788E-2,5.360338464E-2,3.061959743E-1
8.378814592E0,-9.269873053E-2,-1.064431891E-1,3.043633699E-1
8.388814592E0,-1.317940801E-1,-2.579376400E-1,3.104720116E-1
8.398814592E0,-1.397353113E-1,-3.648389876E-1,3.495673835E-1
8.408814592E0,-1.397353113E-1,-3.648389876E-1,3.495673835E-1
8.418814592E0,-1.397353113E-1,-3.648389876E-1,3.495673835E-1
8.428814592E0,-1.397353113E-1,-3.648389876E-1,3.495673835E-1
8.438814592E0,-2.722929716E-1,-1.589775532E-1,2.683223486E-1
8.448814592E0,-2.741255760E-1,-9.361502528E-2,2.793179154E-1
8.458814592E0,-2.399171442E-1,-5.696314201E-2,2.988655865E-1
8.468814592E0,2.275471389E-2,-3.941605091E-1,4.925097227E-1
8.478814592E0,2.275471389E-2,-3.941605091E-1,4.925097227E-1
8.488814592E0,4.291325063E-2,-4.051560760E-1,2.817613780E-1
8.498814592E0,-9.621120058E-3,-4.466948807E-1,2.432768941E-1
8.508814592E0,-8.842267841E-2,-4.381427765E-1,2.310595959E-1
8.518814592E0,-1.861610413E-1,-4.253146052E-1,2.371682525E-1
8.528814592E0,-2.545779049E-1,-4.528035223E-1,1.944077164E-1
8.538814592E0,-2.435823381E-1,-5.236638188E-1,1.528689116E-1
8.548814592E0,-7.864884287E-2,-4.625773430E-1,1.608101577E-1
8.558814592E0,-1.389717404E-2,-3.654498458E-1,2.542724609E-1
8.568814592E0,3.008509055E-2,-2.671006322E-1,2.701549530E-1
8.578814592E0,-3.405570984E-2,-3.985892609E-2,2.725984156E-1
8.588814592E0,-1.769980639E-1,1.959348768E-1,3.239110410E-1
8.598814592E0,-2.594648004E-1,4.152353406E-1,3.654498458E-1
8.608814592E0,-3.315468729E-1,4.702131748E-1,3.941605091E-1
8.618814592E0,-2.386954129E-1,5.386300087E-1,2.878700197E-1
8.628814592E0,8.704823442E-3,5.105302334E-1,2.609919906E-1
8.638814592E0,2.548833191E-1,5.606211424E-1,2.780961990E-1
8.648814592E0,4.118755758E-1,6.339249015E-1,3.196350038E-1
8.658814592E0,4.314232469E-1,6.901245117E-1,3.318522871E-1
8.668814592E0,3.452913165E-1,6.522508860E-1,3.459021747E-1
8.678814592E0,2.335030586E-1,5.178605914E-1,3.709476292E-1
8.688814592E0,6.062832847E-2,2.136499584E-1,5.102248192E-1
8.698814592E0,3.069595434E-2,9.514218569E-2,5.725330114E-1
8.708814592E0,2.886336111E-2,9.758564830E-2,5.676460862E-1
8.718814592E0,3.863719851E-2,2.276998460E-1,5.053378940E-1
8.728814592E0,5.635227636E-2,4.134027362E-1,4.393644929E-1
8.738814592E0,9.117157012E-2,5.337430835E-1,4.088212550E-1
8.748814592E0,1.388190240E-1,5.807796717E-1,4.173733592E-1
8.758814592E0,1.614210159E-1,5.209149122E-1,4.864010811E-1
8.768814592E0,1.614210159E-1,5.209149122E-1,4.864010811E-1
8.778814592E0,1.614210159E-1,5.209149122E-1,4.864010811E-1
8.788814592E0,1.614210159E-1,5.209149122E-1,4.864010811E-1
8.798814592E0,-4.734201822E-3,2.893971801E-1,5.700895786E-1
8.808814592E0,-4.993819445E-2,2.197586000E-1,5.535961986E-1
8.818814592E0,-8.536835015E-2,1.745546162E-1,5.261073112E-1
8.828814592E0,-8.536835015E-2,1.745546162E-1,5.261073112E-1
8.838814592E0,-8.536835015E-2,1.745546162E-1,5.261073112E-1
8.848814592E0,-7.254019380E-2,-1.498145908E-1,4.302015305E-1
8.858814592E0,-2.794706449E-2,-2.860374451E-1,4.277580678E-1
8.868814592E0,1.664606482E-2,-4.088212550E-1,4.314232469E-1
8.878814592E0,7.223475724E-2,-4.900662601E-1,4.069886506E-1
8.888814592E0,1.162170246E-1,-5.352702737E-1,3.825540543E-1
8.898814592E0,1.162170246E-1,-5.352702737E-1,3.825540543E-1
8.908814592E0,1.266017258E-1,-5.316050649E-1,3.715584874E-1
8.918814592E0,9.850194305E-2,-5.371028781E-1,3.623955250E-1
8.928814592E0,5.757400393E-2,-5.364919901E-1,3.660607338E-1
8.938814592E0,9.926552884E-3,-4.864010811E-1,3.782780170E-1
8.948814592E0,-3.405570984E-2,-3.923279047E-1,3.898844421E-1
8.958814592E0,-6.887500733E-2,-2.848156989E-1,3.953822255E-1
8.968814592E0,-1.012508348E-1,-5.513054505E-2,3.660607338E-1
8.978814592E0,-1.067486182E-1,8.170316368E-2,3.257436454E-1
8.988814592E0,-1.140789986E-1,2.289215773E-1,2.805396616E-1
8.998814592E0,-1.122464016E-1,3.504836559E-1,2.414443046E-1
9.008814592E0,-9.392046183E-2,4.268417656E-1,2.212857604E-1
9.018814592E0,-6.093376130E-2,4.470002949E-1,2.206749022E-1
9.028814592E0,-2.672533318E-2,4.341721535E-1,2.328922004E-1
9.038814592E0,1.237001177E-2,3.627009690E-1,2.554942071E-1
9.048814592E0,1.664606482E-2,3.046688139E-1,2.677114904E-1
9.058814592E0,1.175914705E-2,2.307541668E-1,2.915352285E-1
9.068814592E0,2.596175298E-3,1.372918636E-1,3.263545036E-1
9.078814592E0,-4.734201822E-3,2.672533318E-2,3.721693754E-1
9.088814592E0,-7.788525894E-3,-6.185005978E-2,4.234820008E-1
9.098814592E0,-1.267544460E-2,-9.972367436E-2,4.662425518E-1
9.108814592E0,-3.100138716E-2,-4.291325063E-2,4.686860144E-1
9.118814592E0,-3.283398226E-2,1.511890348E-2,4.430296719E-1
9.128814592E0,-3.405570984E-2,8.414662629E-2,4.271472096E-1
9.138814592E0,-3.405570984E-2,8.414662629E-2,4.271472096E-1
9.148814592E0,-3.833176568E-2,1.989891976E-1,4.143190384E-1
9.158814592E0,-2.855792828E-2,2.258672565E-1,4.008800089E-1
9.168814592E0,-1.511890348E-2,2.472475171E-1,3.721693754E-1
9.178814592E0,-1.511890348E-2,2.472475171E-1,3.721693754E-1
9.188814592E0,-1.511890348E-2,2.472475171E-1,3.721693754E-1
9.198814592E0,-1.511890348E-2,2.472475171E-1,3.721693754E-1
9.208814592E0,-1.511890348E-2,2.472475171E-1,3.721693754E-1
9.218814592E0,1.786779426E-2,-6.918043643E-2,3.862192631E-1
9.228814592E0,2.153298259E-2,-1.498145908E-1,4.405862093E-1
9.238814592E0,2.153298259E-2,-1.498145908E-1,4.405862093E-1
9.248814592E0,2.153298259E-2,-1.498145908E-1,4.405862093E-1
9.258814592E0,2.153298259E-2,-1.498145908E-1,4.405862093E-1
9.268814592E0,6.368265301E-2,-8.811724186E-2,2.255618125E-1
9.278814592E0,6.918043643E-2,-1.327103674E-1,3.086394370E-1
9.288814592E0,7.040216774E-2,-2.218966335E-1,4.149298966E-1
9.298814592E0,5.146535859E-2,-2.964221239E-1,4.900662601E-1
9.308814592E0,5.146535859E-2,-2.964221239E-1,4.900662601E-1
9.318814592E0,5.146535859E-2,-2.964221239E-1,4.900662601E-1
9.328814592E0,-2.290742937E-3,8.231402934E-2,3.251327872E-1
9.338814592E0,3.741546720E-2,2.154825479E-1,2.664897740E-1
9.348814592E0,6.979130208E-2,3.315468729E-1,2.121227980E-1
9.358814592E0,8.017600328E-2,3.969093859E-1,1.730274558E-1
9.368814592E0,6.612611562E-2,3.773617148E-1,1.663079411E-1
9.378814592E0,6.612611562E-2,3.773617148E-1,1.663079411E-1
9.388814592E0,-5.421425030E-2,-1.192713454E-1,3.159697950E-1
9.398814592E0,-7.131846249E-2,-2.426660359E-1,3.666715920E-1
9.408814592E0,-6.643154472E-2,-3.043633699E-1,3.929387629E-1
9.418814592E0,-4.382954910E-2,-3.184132576E-1,4.082103968E-1
9.428814592E0,-9.010255337E-3,-2.994764447E-1,4.240928590E-1
9.438814592E0,3.558287397E-2,-2.335030586E-1,4.558578432E-1
9.448814592E0,1.180496216E-1,-1.359174121E-2,4.497492015E-1
9.458814592E0,1.266017258E-1,1.220202371E-1,3.685041666E-1
9.468814592E0,1.180496216E-1,2.228129357E-1,2.933678031E-1
9.478814592E0,1.033888608E-1,2.814559340E-1,2.878700197E-1
9.488814592E0,7.895427197E-2,2.814559340E-1,3.367392123E-1
9.498814592E0,3.924806044E-2,2.307541668E-1,3.752236962E-1
9.508814592E0,-1.878409274E-2,1.788306683E-1,3.727802336E-1
9.518814592E0,-1.507308781E-1,1.385135949E-1,3.098611534E-1
9.528814592E0,-1.818849891E-1,1.171333194E-1,3.110828996E-1
9.538814592E0,-1.769980639E-1,8.597921580E-2,3.434587121E-1
9.548814592E0,-1.397353113E-1,6.154462695E-2,3.917170465E-1
9.558814592E0,-8.170316368E-2,6.582067907E-2,4.344775677E-1
9.568814592E0,-2.244928107E-2,1.098029464E-1,4.509709179E-1
9.578814592E0,2.764163166E-2,1.873827726E-1,4.308123887E-1
9.588814592E0,6.062832847E-2,3.187187016E-1,3.538434207E-1
9.598814592E0,4.902189970E-2,3.321577311E-1,3.361283541E-1
9.608814592E0,3.558287397E-2,2.796233594E-1,3.410152495E-1
9.618814592E0,2.947422490E-2,1.635590494E-1,3.685041666E-1
9.628814592E0,2.886336111E-2,4.077522457E-2,4.027126133E-1
9.638814592E0,2.886336111E-2,-2.947422490E-2,4.155407548E-1
9.648814592E0,2.580903657E-2,-3.191768378E-2,4.002691507E-1
9.658814592E0,2.580903657E-2,-3.191768378E-2,4.002691507E-1
9.668814592E0,2.580903657E-2,-3.191768378E-2,4.002691507E-1
9.678814592E0,2.580903657E-2,-3.191768378E-2,4.002691507E-1
9.688814592E0,2.580903657E-2,-3.191768378E-2,4.002691507E-1
9.698814592E0,-4.382954910E-2,-1.638644785E-1,3.898844421E-1
9.708814592E0,-6.704241037E-2,-1.736383140E-1,3.794997334E-1
9.718814592E0,-8.475748450E-2,-1.504254490E-1,3.630063832E-1
9.728814592E0,-8.475748450E-2,-1.504254490E-1,3.630063832E-1
9.738814592E0,-8.475748450E-2,-1.504254490E-1,3.630063832E-1
9.748814592E0,-8.475748450E-2,-1.504254490E-1,3.630063832E-1
9.758814592E0,-5.299251899E-2,-4.108065739E-2,3.422369957E-1
9.768814592E0,-4.321868345E-2,3.405570984E-2,3.178023994E-1
9.778814592E0,-3.649916872E-2,1.128572673E-1,2.890917659E-1
9.788814592E0,-3.100138716E-2,1.812741160E-1,2.695440948E-1
9.798814592E0,-3.100138716E-2,1.812741160E-1,2.695440948E-1
9.808814592E0,-3.100138716E-2,1.812741160E-1,2.695440948E-1
9.818814592E0,1.298087649E-2,2.093739063E-1,2.982547283E-1
9.828814592E0,2.580903657E-2,1.586721241E-1,3.110828996E-1
9.838814592E0,3.008509055E-2,1.348484010E-1,3.208567202E-1
9.848814592E0,2.397644334E-2,1.024725661E-1,3.147480786E-1
9.858814592E0,8.093958721E-3,6.765327603E-2,3.006981909E-1
9.868814592E0,8.093958721E-3,6.765327603E-2,3.006981909E-1
9.878814592E0,-2.306014486E-2,-9.728021920E-2,3.483456373E-1
9.888814592E0,-3.100138716E-2,-1.858556122E-1,3.611738086E-1
9.898814592E0,-3.527744114E-2,-2.475529462E-1,3.513999581E-1
9.908814592E0,-2.489273995E-2,-2.597702444E-1,3.306305707E-1
9.918814592E0,1.374445739E-3,-2.280052751E-1,3.184132576E-1
9.928814592E0,3.741546720E-2,-1.528689116E-1,3.257436454E-1
9.938814592E0,7.162389904E-2,1.177441850E-1,3.562868834E-1
9.948814592E0,5.818486959E-2,2.557996213E-1,3.355174661E-1
9.958814592E0,2.947422490E-2,3.639226854E-1,2.994764447E-1
9.968814592E0,-1.679878100E-3,4.250091612E-1,2.689332068E-1
9.978814592E0,-2.794706449E-2,4.335612655E-1,2.554942071E-1
9.988814592E0,-4.444041103E-2,3.816377819E-1,2.671006322E-1
9.998814592E0,-5.115992576E-2,2.838993967E-1,2.976438701E-1
1.000881459E1,-4.321868345E-2,5.115992576E-2,3.575085998E-1
1.001881459E1,-3.283398226E-2,-3.191768378E-2,3.654498458E-1
1.002881459E1,-2.672533318E-2,-6.123919412E-2,3.562868834E-1
1.003881459E1,-2.367101051E-2,-6.734783947E-2,3.422369957E-1
1.004881459E1,-1.756236330E-2,-7.040216774E-2,3.391826749E-1
1.005881459E1,-4.734201822E-3,-7.406735420E-2,3.513999581E-1
1.006881459E1,8.704823442E-3,-6.185005978E-2,3.660607338E-1
1.007881459E1,2.764163166E-2,3.588830680E-2,3.630063832E-1
1.008881459E1,3.008509055E-2,1.104138121E-1,3.507890999E-1
1.009881459E1,3.375028074E-2,1.886045039E-1,3.434587121E-1
1.010881459E1,3.436114267E-2,2.448040545E-1,3.422369957E-1
1.011881459E1,3.375028074E-2,2.484692484E-1,3.513999581E-1
1.012881459E1,3.375028074E-2,2.014326602E-1,3.648389876E-1
1.013881459E1,3.130681813E-2,1.427896470E-1,3.794997334E-1
1.014881459E1,2.092211880E-2,7.864884287E-2,3.666715920E-1
1.015881459E1,2.092211880E-2,7.864884287E-2,3.666715920E-1
1.016881459E1,2.092211880E-2,7.864884287E-2,3.666715920E-1
1.017881459E1,2.092211880E-2,7.864884287E-2,3.666715920E-1
1.018881459E1,5.268708616E-2,5.238165334E-2,3.178023994E-1
1.019881459E1,7.467821985E-2,2.550360374E-2,3.306305707E-1
1.020881459E1,9.361502528E-2,5.345067009E-3,3.471239209E-1
1.021881459E1,9.361502528E-2,5.345067009E-3,3.471239209E-1
1.022881459E1,9.361502528E-2,5.345067009E-3,3.471239209E-1
1.023881459E1,9.361502528E-2,5.345067009E-3,3.471239209E-1
1.024881459E1,-5.482511222E-2,5.665770918E-2,3.703367710E-1
1.025881459E1,-1.061377525E-1,1.287397593E-1,3.630063832E-1
1.026881459E1,-1.470656991E-1,1.977674663E-1,3.507890999E-1
1.027881459E1,-1.660024971E-1,2.393062711E-1,3.434587121E-1
1.028881459E1,-1.660024971E-1,2.393062711E-1,3.434587121E-1
1.029881459E1,-1.660024971E-1,2.393062711E-1,3.434587121E-1
1.030881459E1,-1.511890348E-2,1.495091617E-1,3.758345544E-1
1.031881459E1,2.886336111E-2,1.409570426E-1,3.715584874E-1
1.032881459E1,5.390881747E-2,1.745546162E-1,3.513999581E-1
1.033881459E1,5.085449293E-2,2.099847645E-1,3.336848915E-1
1.034881459E1,3.252854943E-2,2.325867712E-1,3.129154742E-1
1.035881459E1,3.252854943E-2,2.325867712E-1,3.129154742E-1
1.036881459E1,3.252854943E-2,2.325867712E-1,3.129154742E-1
1.037881459E1,-1.488982886E-1,3.527744114E-2,3.306305707E-1
1.038881459E1,-1.886045039E-1,1.084284950E-2,3.550651670E-1
1.039881459E1,-2.167042792E-1,2.061668597E-2,3.599520624E-1
1.040881459E1,-2.289215773E-1,4.138609022E-2,3.532325625E-1
1.041881459E1,-2.203694731E-1,6.398808211E-2,3.544542789E-1
1.042881459E1,-2.203694731E-1,6.398808211E-2,3.544542789E-1
1.043881459E1,-5.177079141E-2,6.154462695E-2,3.477347791E-1
1.044881459E1,2.214384824E-2,3.039052337E-2,3.581194878E-1
1.045881459E1,7.773254067E-2,1.328630932E-2,3.685041666E-1
1.046881459E1,1.088866442E-1,2.977965772E-2,3.691150546E-1
1.047881459E1,1.156061590E-1,7.009673119E-2,3.501782417E-1
1.048881459E1,9.850194305E-2,1.275180280E-1,3.251327872E-1
1.049881459E1,2.825249545E-2,1.983783394E-1,2.854265571E-1
1.050881459E1,-1.939495653E-2,2.014326602E-1,2.805396616E-1
1.051881459E1,-7.009673119E-2,1.635590494E-1,2.835939825E-1
1.052881459E1,-1.171333194E-1,6.582067907E-2,2.945895493E-1
1.053881459E1,-1.617264450E-1,-3.558287397E-2,3.068068326E-1
1.054881459E1,-2.044869810E-1,-1.113301069E-1,3.245218992E-1
1.055881459E1,-2.393062711E-1,-1.357647032E-1,3.397935331E-1
1.056881459E1,-2.576322258E-1,-5.085449293E-2,2.768744528E-1
1.057881459E1,-2.405280024E-1,7.177661173E-3,2.286161482E-1
1.058881459E1,-1.928805560E-1,5.971203372E-2,1.968511790E-1
1.059881459E1,-1.226311028E-1,7.131846249E-2,1.980729103E-1
1.060881459E1,-5.177079141E-2,3.772090003E-2,2.316704690E-1
1.061881459E1,-4.581485991E-4,-1.664606482E-2,2.738201320E-1
1.062881459E1,2.336557768E-2,-7.528908551E-2,3.000873327E-1
1.063881459E1,-1.679878100E-3,-1.308777779E-1,2.756527364E-1
1.064881459E1,-2.489273995E-2,-1.327103674E-1,2.524398565E-1
1.065881459E1,-4.077522457E-2,-1.571449637E-1,2.359465212E-1
1.066881459E1,-4.077522457E-2,-1.571449637E-1,2.359465212E-1
1.067881459E1,-4.077522457E-2,-1.571449637E-1,2.359465212E-1
1.068881459E1,-4.810560122E-2,-3.098611534E-1,2.054032832E-1
1.069881459E1,-4.321868345E-2,-3.324631453E-1,1.956294477E-1
1.070881459E1,-4.321868345E-2,-3.324631453E-1,1.956294477E-1
1.071881459E1,-4.321868345E-2,-3.324631453E-1,1.956294477E-1
1.072881459E1,-4.321868345E-2,-3.324631453E-1,1.956294477E-1
1.073881459E1,-4.321868345E-2,-3.324631453E-1,1.956294477E-1
1.074881459E1,-4.321868345E-2,-3.324631453E-1,1.956294477E-1
1.075881459E1,-1.189659163E-1,-2.493855506E-1,1.937968582E-1
1.076881459E1,-1.415679157E-1,-2.487746775E-1,1.950185746E-1
1.077881459E1,-1.415679157E-1,-2.487746775E-1,1.950185746E-1
1.078881459E1,-1.415679157E-1,-2.487746775E-1,1.950185746E-1
1.079881459E1,-1.415679157E-1,-2.487746775E-1,1.950185746E-1
1.080881459E1,-1.721111536E-1,4.581485991E-4,1.492037177E-1
1.081881459E1,-1.788306683E-1,9.819651395E-2,1.369864196E-1
1.082881459E1,-1.928805560E-1,1.892153621E-1,1.314886510E-1
1.083881459E1,-2.081521749E-1,2.637408674E-1,1.296560466E-1
1.084881459E1,-2.081521749E-1,2.637408674E-1,1.296560466E-1
1.085881459E1,-1.886045039E-1,2.087630332E-1,1.589775532E-1
1.086881459E1,-1.440113783E-1,7.437278330E-2,1.852447391E-1
1.087881459E1,-9.208786488E-2,-1.970038936E-2,2.005163580E-1
1.088881459E1,-4.016435891E-2,-6.307178736E-2,2.121227980E-1
1.089881459E1,8.704823442E-3,-7.406735420E-2,2.200640440E-1
1.090881459E1,5.635227636E-2,-8.811724186E-2,2.273944169E-1
1.091881459E1,5.635227636E-2,-8.811724186E-2,2.273944169E-1
1.092881459E1,1.046105921E-1,-1.620318890E-1,2.090684772E-1
1.093881459E1,7.956513762E-2,-1.443168074E-1,1.974620372E-1
1.094881459E1,4.718930274E-2,-1.143844277E-1,1.913533956E-1
1.095881459E1,1.359174121E-2,-8.567378670E-2,1.889099330E-1
1.096881459E1,-2.061668597E-2,-6.062832847E-2,1.773035079E-1
1.097881459E1,-5.543597788E-2,-3.680460155E-2,1.687513888E-1
1.098881459E1,-1.018617004E-1,4.444041103E-2,2.035706937E-1
1.099881459E1,-1.079703495E-1,7.987056673E-2,2.176205814E-1
1.100881459E1,-1.024725661E-1,9.453132749E-2,2.249509543E-1
1.101881459E1,-8.414662629E-2,8.536835015E-2,2.267835438E-1
1.102881459E1,-5.421425030E-2,6.520981342E-2,2.249509543E-1
1.103881459E1,-1.878409274E-2,5.726857483E-2,2.170097083E-1
1.104881459E1,1.542433538E-2,7.192932814E-2,1.962403059E-1
1.105881459E1,6.062832847E-2,1.195767820E-1,1.589775532E-1
1.106881459E1,6.612611562E-2,1.091920808E-1,1.577558219E-1
1.107881459E1,6.734783947E-2,7.620538026E-2,1.650862098E-1
1.108881459E1,6.612611562E-2,3.039052337E-2,1.736383140E-1
1.109881459E1,6.062832847E-2,-8.093958721E-3,1.791360974E-1
1.110881459E1,5.207622424E-2,-4.657844082E-2,1.748600453E-1
1.111881459E1,4.841103405E-2,-7.162389904E-2,1.754709035E-1
1.112881459E1,5.451968312E-2,-5.635227636E-2,1.779143661E-1
1.113881459E1,5.451968312E-2,-5.635227636E-2,1.779143661E-1
1.114881459E1,5.451968312E-2,-5.635227636E-2,1.779143661E-1
1.115881459E1,5.451968312E-2,-5.635227636E-2,1.779143661E-1
1.116881459E1,3.741546720E-2,1.250745654E-1,1.204930767E-1
1.117881459E1,3.863719851E-2,1.000291109E-1,1.162170246E-1
1.118881459E1,3.863719851E-2,4.016435891E-2,1.211039424E-1
1.119881459E1,3.863719851E-2,4.016435891E-2,1.211039424E-1
1.120881459E1,3.863719851E-2,4.016435891E-2,1.211039424E-1
1.121881459E1,3.863719851E-2,4.016435891E-2,1.211039424E-1
1.122881459E1,3.863719851E-2,4.016435891E-2,1.211039424E-1
1.123881459E1,-2.428187430E-2,-1.119409725E-1,1.198822111E-1
1.124881459E1,-2.367101051E-2,-8.445205539E-2,1.070540547E-1
1.125881459E1,-1.878409274E-2,-3.680460155E-2,8.872810751E-2
1.126881459E1,-1.878409274E-2,-3.680460155E-2,8.872810751E-2
1.127881459E1,-1.878409274E-2,-3.680460155E-2,8.872810751E-2
1.128881459E1,2.153298259E-2,6.566796452E-3,1.198822111E-1
1.129881459E1,2.031125315E-2,-3.558287397E-2,1.314886510E-1
1.130881459E1,1.298087649E-2,-5.024362728E-2,1.424842030E-1
1.131881459E1,3.817904973E-3,-2.580903657E-2,1.461493969E-1
1.132881459E1,-2.901607659E-3,2.000582218E-2,1.363755614E-1
1.133881459E1,-2.901607659E-3,2.000582218E-2,1.363755614E-1
1.134881459E1,-4.123337101E-3,7.987056673E-2,1.186604798E-1
1.135881459E1,-4.123337101E-3,4.199695215E-2,1.143844277E-1
1.136881459E1,-1.023198478E-2,-8.704823442E-3,9.911280870E-2
1.137881459E1,-2.244928107E-2,-3.130681813E-2,8.506292105E-2
1.138881459E1,-3.649916872E-2,-3.741546720E-2,8.200860023E-2
1.139881459E1,-5.421425030E-2,-3.741546720E-2,9.056070447E-2
1.140881459E1,-7.315105945E-2,-1.664606482E-2,1.088866442E-1
1.141881459E1,-7.070759684E-2,1.023198478E-2,1.131627038E-1
1.142881459E1,-5.299251899E-2,7.498364896E-2,1.082757786E-1
1.143881459E1,-5.955931731E-3,1.592829973E-1,8.750637621E-2
1.144881459E1,4.718930274E-2,1.611155868E-1,6.856957078E-2
1.145881459E1,1.088866442E-1,1.495091617E-1,6.429351866E-2
1.146881459E1,1.632536054E-1,1.085812151E-1,7.406735420E-2
1.147881459E1,2.188423127E-1,-1.603520103E-2,1.131627038E-1
1.148881459E1,2.170097083E-1,-6.307178736E-2,1.363755614E-1
1.149881459E1,2.066250145E-1,-1.485928595E-1,1.485928595E-1
1.150881459E1,1.876882017E-1,-2.701549530E-1,1.375972927E-1
1.151881459E1,1.553123742E-1,-3.666715920E-1,1.052214578E-1
1.152881459E1,1.149952933E-1,-3.966039717E-1,5.818486959E-2
1.153881459E1,7.589995116E-2,-3.740019500E-1,6.872228812E-3
1.154881459E1,4.108065739E-2,-1.681405306E-1,-2.306014486E-2
1.155881459E1,4.474584386E-2,-5.574141070E-2,-2.733619884E-2
1.156881459E1,5.696314201E-2,4.123337101E-3,-6.398808211E-2
1.157881459E1,6.612611562E-2,6.154462695E-2,-8.903354406E-2
1.158881459E1,6.673697382E-2,1.079703495E-1,-7.925970852E-2
1.159881459E1,5.451968312E-2,1.122464016E-1,-4.016435891E-2
1.160881459E1,2.947422490E-2,5.299251899E-2,1.237001177E-2
1.161881459E1,-3.711003438E-2,-8.261945844E-2,9.666935354E-2
1.162881459E1,-5.910116807E-2,-1.131627038E-1,1.101083755E-1
1.163881459E1,-5.910116807E-2,-1.131627038E-1,1.101083755E-1
1.164881459E1,-5.910116807E-2,-1.131627038E-1,1.101083755E-1
1.165881459E1,-5.299251899E-2,-8.567378670E-2,7.834340632E-2
1.166881459E1,-2.428187430E-2,-7.101303339E-2,6.979130208E-2
1.167881459E1,5.039634649E-3,-3.619373962E-2,5.696314201E-2
1.168881459E1,5.039634649E-3,-3.619373962E-2,5.696314201E-2
1.169881459E1,5.039634649E-3,-3.619373962E-2,5.696314201E-2
1.170881459E1,5.039634649E-3,-3.619373962E-2,5.696314201E-2
1.171881459E1,3.802633286E-2,-1.664606482E-2,1.908952370E-2
1.172881459E1,9.315688163E-3,-6.872228812E-3,1.420260593E-2
1.173881459E1,-7.177661173E-3,-7.483093534E-3,-2.061668597E-2
1.174881459E1,-5.345067009E-3,-1.970038936E-2,-5.726857483E-2
1.175881459E1,-5.345067009E-3,-1.970038936E-2,-5.726857483E-2
1.176881459E1,6.872228812E-3,1.817322709E-2,-1.267544460E-2
1.177881459E1,-2.901607659E-3,3.588830680E-2,-2.122755162E-2
1.178881459E1,-1.328630932E-2,4.566214234E-2,-2.611446939E-2
1.179881459E1,-1.206457894E-2,1.817322709E-2,-1.878409274E-2
1.180881459E1,-1.069013379E-3,-3.313941509E-2,1.374445739E-3
1.181881459E1,1.359174121E-2,-8.994983882E-2,3.130681813E-2
1.182881459E1,3.863719851E-2,-1.082757786E-1,8.139773458E-2
1.183881459E1,4.780016840E-2,-5.818486959E-2,7.345648855E-2
1.184881459E1,5.757400393E-2,1.450803876E-2,5.085449293E-2
1.185881459E1,6.795870513E-2,6.520981342E-2,3.130681813E-2
1.186881459E1,7.712167501E-2,8.903354406E-2,2.214384824E-2
1.187881459E1,8.384118974E-2,8.170316368E-2,1.847865991E-2
1.188881459E1,8.261945844E-2,4.932733253E-2,1.420260593E-2
1.189881459E1,5.696314201E-2,-2.092211880E-2,-4.734201822E-3
1.190881459E1,3.924806044E-2,-4.352411628E-2,-9.621120058E-3
1.191881459E1,2.764163166E-2,-5.329795182E-2,-4.581485991E-4
1.192881459E1,2.703076601E-2,-5.024362728E-2,1.603520103E-2
1.193881459E1,3.558287397E-2,-2.031125315E-2,2.641990222E-2
1.194881459E1,4.963276163E-2,4.810560122E-2,2.214384824E-2
1.195881459E1,6.185005978E-2,1.134681329E-1,3.817904973E-3
1.196881459E1,6.185005978E-2,1.134681329E-1,3.817904973E-3
1.197881459E1,6.185005978E-2,1.134681329E-1,3.817904973E-3
1.198881459E1,6.185005978E-2,1.134681329E-1,3.817904973E-3
1.199881459E1,6.185005978E-2,1.134681329E-1,3.817904973E-3
1.200881459E1,3.375028074E-2,-1.137735620E-1,9.315688163E-3
1.201881459E1,-2.290742937E-3,-1.229365394E-1,9.926552884E-3
1.202881459E1,-3.588830680E-2,-1.345429718E-1,4.428769462E-3
1.203881459E1,-3.588830680E-2,-1.345429718E-1,4.428769462E-3
1.204881459E1,-3.588830680E-2,-1.345429718E-1,4.428769462E-3
1.205881459E1,-3.588830680E-2,-1.345429718E-1,4.428769462E-3
1.206881459E1,-4.199695215E-2,-5.039634649E-3,-4.581485991E-4
1.207881459E1,-3.039052337E-2,8.536835015E-2,-1.206457894E-2
1.208881459E1,-2.183841541E-2,1.446222365E-1,-1.328630932E-2
1.209881459E1,-1.069013379E-3,1.360701323E-1,-9.010255337E-3
1.210881459E1,-1.069013379E-3,1.360701323E-1,-9.010255337E-3
1.211881459E1,-1.069013379E-3,1.360701323E-1,-9.010255337E-3
1.212881459E1,-1.069013379E-3,1.360701323E-1,-9.010255337E-3
1.213881459E1,3.924806044E-2,-5.039634649E-3,3.558287397E-2
1.214881459E1,3.924806044E-2,-8.093958721E-3,3.008509055E-2
1.215881459E1,3.741546720E-2,5.345067009E-3,2.031125315E-2
1.216881459E1,3.680460155E-2,-7.635809598E-4,9.926552884E-3
1.217881459E1,3.680460155E-2,-7.635809598E-4,9.926552884E-3
1.217881459E1,3.497200832E-2,-6.185005978E-2,3.817904973E-3
1.219881459E1,1.374445739E-3,-1.114828233E-2,-1.069013379E-3
1.220881459E1,-1.695149764E-2,3.222311661E-2,-1.511890348E-2
1.221881459E1,-1.939495653E-2,6.154462695E-2,-2.611446939E-2
1.222881459E1,-1.069013379E-3,8.475748450E-2,-2.916879393E-2
1.223881459E1,4.291325063E-2,1.965457499E-1,-2.916879393E-2
1.224881459E1,1.809686869E-1,2.698495090E-1,-4.871646687E-2
1.225881459E1,2.390008420E-1,2.704603672E-1,-4.688387364E-2
1.226881459E1,2.658788860E-1,2.631300092E-1,-3.405570984E-2
1.227881459E1,2.640463114E-1,2.252563834E-1,-3.772090003E-2
1.228881459E1,2.335030586E-1,1.965457499E-1,-4.077522457E-2
1.229881459E1,1.840230078E-1,1.598938555E-1,-3.039052337E-2
1.230881459E1,8.078686893E-2,4.688387364E-2,1.481347065E-2
1.231881459E1,3.680460155E-2,-5.207622424E-2,3.130681813E-2
1.232881459E1,-1.450803876E-2,-1.516471803E-1,3.619373962E-2
1.233881459E1,-7.254019380E-2,-2.017380893E-1,4.108065739E-2
1.234881459E1,-1.305723488E-1,-1.913533956E-1,5.390881747E-2
1.235881459E1,-1.757763475E-1,-1.528689116E-1,6.429351866E-2
1.236881459E1,-1.898262352E-1,-1.180496216E-1,3.558287397E-2
1.237881459E1,-1.898262352E-1,-1.180496216E-1,3.558287397E-2
1.238881459E1,-1.898262352E-1,-1.180496216E-1,3.558287397E-2
1.239881459E1,-1.898262352E-1,-1.180496216E-1,3.558287397E-2
1.240881459E1,-1.898262352E-1,-1.180496216E-1,3.558287397E-2
1.241881459E1,-1.898262352E-1,-1.180496216E-1,3.558287397E-2
1.242881459E1,-1.084284950E-2,8.109229803E-2,-4.688387364E-2
1.243881459E1,-2.901607659E-3,6.643154472E-2,-3.100138716E-2
1.244881459E1,-2.901607659E-3,6.643154472E-2,-3.100138716E-2
1.245881459E1,-2.901607659E-3,6.643154472E-2,-3.100138716E-2
1.246881459E1,-2.901607659E-3,6.643154472E-2,-3.100138716E-2
1.247881459E1,-2.901607659E-3,6.643154472E-2,-3.100138716E-2
1.248881459E1,-5.360338464E-2,-5.039634649E-3,1.908952370E-2
1.249881459E1,-5.299251899E-2,-9.926552884E-3,1.481347065E-2
1.250881459E1,-4.932733253E-2,-3.313941509E-2,6.872228812E-3
1.251881459E1,-4.932733253E-2,-3.313941509E-2,6.872228812E-3
1.252881459E1,-4.932733253E-2,-3.313941509E-2,6.872228812E-3
1.253881459E1,-5.421425030E-2,-1.467602700E-1,-3.833176568E-2
1.253881459E1,-4.932733253E-2,-3.313941509E-2,6.872228812E-3
1.255881459E1,-6.582067907E-2,-1.180496216E-1,-5.726857483E-2
1.256881459E1,-5.849030241E-2,-8.750637621E-2,-6.398808211E-2
1.257881459E1,-4.505127668E-2,-5.635227636E-2,-7.192932814E-2
1.258881459E1,-4.505127668E-2,-5.635227636E-2,-7.192932814E-2
1.259881459E1,3.252854943E-2,2.428187430E-2,-6.337722391E-2
1.260881459E1,6.490438432E-2,3.466657549E-2,-5.054906011E-2
1.261881459E1,8.994983882E-2,4.199695215E-2,-4.382954910E-2
1.262881459E1,1.064431891E-1,3.955349326E-2,-4.260781780E-2
1.263881459E1,1.064431891E-1,2.367101051E-2,-4.444041103E-2
1.264881459E1,9.911280870E-2,2.901607659E-3,-5.299251899E-2
1.265881459E1,6.429351866E-2,-6.123919412E-2,-6.520981342E-2
1.266881459E1,3.252854943E-2,-1.107192412E-1,-6.337722391E-2
1.267881459E1,-7.788525894E-3,-1.638644785E-1,-6.582067907E-2
1.268881459E1,-5.360338464E-2,-1.992946416E-1,-8.109229803E-2
1.269881459E1,-1.012508348E-1,-2.102901936E-1,-9.880737960E-2
1.270881459E1,-1.385135949E-1,-1.852447391E-1,-1.079703495E-1
1.271881459E1,-1.556178033E-1,-1.388190240E-1,-1.110246703E-1
1.272881459E1,-1.226311028E-1,-1.114828233E-2,-1.128572673E-1
1.273881459E1,-7.925970852E-2,2.977965772E-2,-1.098029464E-1
1.274881459E1,-2.611446939E-2,3.161225095E-2,-9.758564830E-2
1.275881459E1,2.336557768E-2,2.916879393E-2,-8.414662629E-2
1.276881459E1,6.001746282E-2,1.939495653E-2,-7.315105945E-2
1.277881459E1,7.773254067E-2,-1.603520103E-2,-7.559451461E-2
1.278881459E1,7.651081681E-2,-6.429351866E-2,-7.681624591E-2
1.279881459E1,3.680460155E-2,-1.272125840E-1,-7.559451461E-2
1.280881459E1,1.175914705E-2,-1.253799945E-1,-7.925970852E-2
1.281881459E1,-1.023198478E-2,-1.064431891E-1,-8.170316368E-2
1.282881459E1,-2.550360374E-2,-6.856957078E-2,-8.231402934E-2
1.283881459E1,-3.527744114E-2,-3.619373962E-2,-8.109229803E-2
1.284881459E1,-3.588830680E-2,-2.336557768E-2,-8.231402934E-2
1.285881459E1,-3.222311661E-2,-1.175914705E-2,-8.842267841E-2
1.286881459E1,-3.222311661E-2,-1.175914705E-2,-8.842267841E-2
1.287881459E1,-3.222311661E-2,-1.175914705E-2,-8.842267841E-2
1.288881459E1,-3.222311661E-2,-1.175914705E-2,-8.842267841E-2
1.289881459E1,-3.222311661E-2,-1.175914705E-2,-8.842267841E-2
1.290881459E1,-2.672533318E-2,-3.863719851E-2,-9.147699922E-2
1.291881459E1,-1.572976820E-2,-1.053741761E-2,-8.842267841E-2
1.292881459E1,-4.581485991E-4,1.267544460E-2,-8.842267841E-2
1.293881459E1,-4.581485991E-4,1.267544460E-2,-8.842267841E-2
1.294881459E1,-4.581485991E-4,1.267544460E-2,-8.842267841E-2
1.295881459E1,-4.581485991E-4,1.267544460E-2,-8.842267841E-2
1.296881459E1,8.811724186E-2,1.201876476E-1,-7.742711157E-2
1.297881459E1,8.811724186E-2,1.201876476E-1,-7.742711157E-2
1.298881459E1,8.750637621E-2,8.414662629E-2,-7.559451461E-2
1.299881459E1,6.856957078E-2,3.466657549E-2,-8.048143238E-2
1.300881459E1,6.856957078E-2,3.466657549E-2,-8.048143238E-2
1.301881459E1,6.856957078E-2,3.466657549E-2,-8.048143238E-2
1.302881459E1,6.856957078E-2,3.466657549E-2,-8.048143238E-2
1.303881459E1,-1.586721241E-1,-4.474584386E-2,-9.880737960E-2
1.304881459E1,-1.586721241E-1,-6.123919412E-2,-8.659008145E-2
1.305881459E1,-1.354592592E-1,-6.307178736E-2,-6.459894776E-2
1.306881459E1,-1.079703495E-1,-4.046979174E-2,-5.421425030E-2
1.307881459E1,-1.079703495E-1,-4.046979174E-2,-5.421425030E-2
1.308881459E1,-1.079703495E-1,-4.046979174E-2,-5.421425030E-2
1.309881459E1,-3.512472380E-3,-2.214384824E-2,-3.283398226E-2
1.310881459E1,-4.734201822E-3,-2.641990222E-2,-4.016435891E-2
1.311881459E1,-1.695149764E-2,-3.863719851E-2,-4.382954910E-2
1.312881459E1,-4.138609022E-2,-4.352411628E-2,-3.955349326E-2
1.313881459E1,-5.910116807E-2,-2.580903657E-2,-3.649916872E-2
1.314881459E1,1.542433538E-2,5.421425030E-2,-5.910116807E-2
1.315881459E1,6.307178736E-2,-3.130681813E-2,-8.048143238E-2
1.316881459E1,1.052214578E-1,-8.506292105E-2,-8.720094711E-2
1.317881459E1,1.149952933E-1,-1.394298822E-1,-9.941824526E-2
1.318881459E1,8.139773458E-2,-2.023489624E-1,-1.146898642E-1
1.319881459E1,1.053741761E-2,-2.341139317E-1,-1.214093715E-1
1.320881459E1,-7.376192510E-2,-2.554942071E-1,-1.165224537E-1
1.321881459E1,-1.745546162E-1,-2.005163580E-1,-8.353576064E-2
1.322881459E1,-1.647807807E-1,-9.850194305E-2,-8.048143238E-2
1.323881459E1,-1.165224537E-1,-2.580903657E-2,-8.903354406E-2
1.324881459E1,-3.772090003E-2,-2.031125315E-2,-1.018617004E-1
1.325881459E1,4.291325063E-2,-2.153298259E-2,-1.128572673E-1
1.326881459E1,1.064431891E-1,-1.985310577E-3,-1.183550507E-1
1.327881459E1,1.510363221E-1,1.939495653E-2,-1.214093715E-1
1.328881459E1,1.443168074E-1,-1.527161949E-4,-1.177441850E-1
1.329881459E1,9.605848789E-2,-3.497200832E-2,-1.311832070E-1
1.330881459E1,3.252854943E-2,-8.139773458E-2,-1.482874304E-1
1.331881459E1,-3.039052337E-2,-1.198822111E-1,-1.580612659E-1
1.332881459E1,-8.842267841E-2,-1.241582632E-1,-1.598938555E-1
1.333881459E1,-8.842267841E-2,-1.241582632E-1,-1.598938555E-1
1.334881459E1,-1.873827726E-1,-1.107192412E-1,-1.678351015E-1
1.335881459E1,-1.873827726E-1,-1.107192412E-1,-1.678351015E-1
1.336881459E1,-1.873827726E-1,-1.107192412E-1,-1.678351015E-1
1.337881459E1,-1.873827726E-1,-1.107192412E-1,-1.678351015E-1
1.338881459E1,-1.873827726E-1,-1.107192412E-1,-1.678351015E-1
1.339881459E1,-6.215549260E-2,-1.180496216E-1,-1.635590494E-1
1.340881459E1,-3.161225095E-2,-9.178243577E-2,-1.715002805E-1
1.341881459E1,-9.010255337E-3,-9.239330143E-2,-1.769980639E-1
1.342881459E1,-9.010255337E-3,-9.239330143E-2,-1.769980639E-1
1.343881459E1,-9.010255337E-3,-9.239330143E-2,-1.769980639E-1
1.344881459E1,4.428769462E-3,4.688387364E-2,-1.568395346E-1
1.345881459E1,-2.901607659E-3,4.138609022E-2,-1.568395346E-1
1.346881459E1,-2.428187430E-2,4.871646687E-2,-1.458439678E-1
1.347881459E1,-5.726857483E-2,3.955349326E-2,-1.342375278E-1
1.348881459E1,-9.758564830E-2,9.621120058E-3,-1.305723488E-1
1.349881459E1,-9.758564830E-2,9.621120058E-3,-1.305723488E-1
1.350881459E1,-1.635590494E-1,-2.825249545E-2,-1.507308781E-1
1.351881459E1,-1.397353113E-1,-3.252854943E-2,-1.507308781E-1
1.352881459E1,-9.330959618E-2,-1.237001177E-2,-1.476765573E-1
1.353881459E1,-2.977965772E-2,1.817322709E-2,-1.531743407E-1
1.354881459E1,3.741546720E-2,6.459894776E-2,-1.635590494E-1
1.355881459E1,1.363755614E-1,2.832885385E-1,-1.776089370E-1
1.356881459E1,3.074176908E-1,3.504836559E-1,-2.069304436E-1
1.357881459E1,3.605629504E-1,3.205513060E-1,-1.977674663E-1
1.358881459E1,3.782780170E-1,2.832885385E-1,-1.873827726E-1
1.359881459E1,3.526217043E-1,1.928805560E-1,-1.776089370E-1
1.360881459E1,2.854265571E-1,7.559451461E-2,-1.715002805E-1
1.361881459E1,1.840230078E-1,-2.153298259E-2,-1.617264450E-1
1.362881459E1,6.185005978E-2,-1.027780026E-1,-1.513417512E-1
1.363881459E1,6.185005978E-2,-1.027780026E-1,-1.513417512E-1
1.364881459E1,6.185005978E-2,-1.027780026E-1,-1.513417512E-1
1.365881459E1,6.185005978E-2,-1.027780026E-1,-1.513417512E-1
1.366881459E1,-3.346011937E-1,-2.829830945E-1,-9.208786488E-2
1.367881459E1,-2.875646055E-1,-2.591593862E-1,-8.659008145E-2
1.368881459E1,-1.922696829E-1,-2.206749022E-1,-1.024725661E-1
1.369881459E1,-7.803797722E-2,-1.626427472E-1,-1.195767820E-1
1.370881459E1,1.009454057E-1,-2.153298259E-2,-1.146898642E-1
1.371881459E1,1.382081509E-1,3.100138716E-2,-1.165224537E-1
1.372881459E1,1.455385387E-1,7.620538026E-2,-1.201876476E-1
1.377565063E1,-6.137663722E-1,-4.754055142E-1,6.185005978E-2
1.378565063E1,-6.443096399E-1,-6.525563002E-1,8.017600328E-2
1.379565063E1,-6.186532974E-1,-7.783944607E-1,9.972367436E-2
1.380565063E1,-5.795579553E-1,-8.077159524E-1,1.290451884E-1
1.381565063E1,-5.624537468E-1,-6.977602839E-1,1.229365394E-1
1.382565063E1,-5.282453299E-1,-4.534143806E-1,6.429351866E-2
1.383565063E1,-4.158461988E-1,-2.200640440E-1,-1.756236330E-2
1.384565063E1,-2.484692484E-1,-1.308777779E-1,-9.819651395E-2
1.385565063E1,5.650499370E-3,-1.430950761E-1,-1.837175786E-1
1.386565063E1,1.754709035E-1,-1.345429718E-1,-1.886045039E-1
1.387565063E1,2.903134823E-1,-9.789107740E-2,-1.336266696E-1
1.388565063E1,3.123046160E-1,-4.780016840E-2,-5.299251899E-2
1.389565063E1,2.414443046E-1,5.849030241E-2,4.230238497E-2
1.390565063E1,8.750637621E-2,7.070759684E-2,5.574141070E-2
1.391565063E1,-2.855792828E-2,-7.834340632E-2,1.298087649E-2
1.392565063E1,-1.360701323E-1,-2.921460867E-1,-3.711003438E-2
1.393565063E1,-1.861610413E-1,-3.972148299E-1,-1.189659163E-1
1.394565063E1,-1.898262352E-1,-3.849975169E-1,-2.948949635E-1
1.395565063E1,-1.519526094E-1,-1.785252392E-1,-3.645335436E-1
1.396565063E1,-2.122755162E-2,1.782197952E-1,-3.681987524E-1
1.397565063E1,1.620318890E-1,4.763218164E-1,-3.132209182E-1
1.398565063E1,2.915352285E-1,5.691732764E-1,-2.521344423E-1
1.399565063E1,3.843866587E-1,4.836521745E-1,-1.824958473E-1
1.400565063E1,3.953822255E-1,2.722929716E-1,-1.238528341E-1
1.401565063E1,3.355174661E-1,-6.490438432E-2,-4.810560122E-2
1.402565063E1,2.524398565E-1,-3.202458620E-1,6.872228812E-3
1.403565063E1,1.388190240E-1,-6.110175252E-1,3.008509055E-2
1.404565063E1,3.619373962E-2,-7.698423266E-1,1.298087649E-2
1.405565063E1,-2.977965772E-2,-8.126028776E-1,-2.000582218E-2
1.406565063E1,-5.299251899E-2,-8.211549520E-1,-6.398808211E-2
1.407565063E1,-2.489273995E-2,-8.138245940E-1,-1.030834317E-1
1.408565063E1,1.542433538E-2,-7.099775672E-1,-1.849393100E-1
1.409565063E1,1.786779426E-2,-5.071704984E-1,-2.680169344E-1
1.410565063E1,-2.611446939E-2,-1.711948514E-1,-3.339903057E-1
1.411565063E1,-9.208786488E-2,1.171333194E-1,-3.242164850E-1
1.412565063E1,-1.324049383E-1,2.649625838E-1,-2.912297845E-1
1.413565063E1,-1.666133702E-1,4.262309074E-1,-2.790125012E-1
1.414565063E1,-1.690568328E-1,6.058251262E-1,-2.777907550E-1
1.415565063E1,-1.104138121E-1,7.829759121E-1,-2.582430840E-1
1.416565063E1,-2.977965772E-2,7.768672705E-1,-2.105956376E-1
1.417565063E1,6.551524997E-2,5.508472919E-1,-8.597921580E-2
1.418565063E1,1.082757786E-1,1.733328849E-1,6.429351866E-2
1.419565063E1,9.361502528E-2,-1.296560466E-1,1.449276656E-1
1.420565063E1,2.764163166E-2,-4.509709179E-1,1.815795600E-1
1.421565063E1,-3.222311661E-2,-6.183478832E-1,1.681405306E-1
1.422565063E1,-1.030834317E-1,-7.002037764E-1,1.119409725E-1
1.423565063E1,-1.336266696E-1,-6.916516423E-1,4.230238497E-2
1.424565063E1,-1.201876476E-1,-6.256782413E-1,-4.199695215E-2
1.425565063E1,-5.787943676E-2,-5.389354229E-1,-1.043051630E-1
1.426565063E1,-4.123337101E-3,-4.631882310E-1,-1.397353113E-1
1.427565063E1,3.130681813E-2,-3.532325625E-1,-1.666133702E-1
1.428565063E1,1.542433538E-2,-1.760817766E-1,-1.690568328E-1
1.429565063E1,-5.910116807E-2,1.440113783E-1,-1.568395346E-1
1.430565063E1,-1.592829973E-1,4.518872201E-1,-1.287397593E-1
1.431565063E1,-2.802342176E-1,8.379537463E-1,-5.177079141E-2
1.432565063E1,-3.584249020E-1,1.077412724E0,1.058323234E-1
1.433565063E1,-3.755291104E-1,1.133612275E0,2.854265571E-1
1.434565063E1,-3.547597229E-1,1.096960425E0,5.334376693E-1
1.435565063E1,-3.217730224E-1,1.013882875E0,7.008146048E-1
1.436565063E1,-2.325867712E-1,8.709404469E-1,8.657481074E-1
1.437565063E1,-1.397353113E-1,7.316632867E-1,9.390518665E-1
1.438565063E1,-4.199695215E-2,5.691732764E-1,8.938478827E-1
1.439565063E1,9.315688163E-3,4.506655037E-1,7.900008559E-1
1.440565063E1,1.908952370E-2,4.115701318E-1,6.507236958E-1
1.441565063E1,1.053741761E-2,4.286743701E-1,4.344775677E-1
1.442565063E1,4.428769462E-3,5.471821427E-1,2.854265571E-1
1.443565063E1,-4.581485991E-4,7.243329287E-1,1.705839932E-1
1.444565063E1,-2.367101051E-2,8.049670458E-1,1.327103674E-1
1.445565063E1,-1.091920808E-1,7.951932549E-1,1.253799945E-1
1.446565063E1,-2.472475171E-1,5.801688433E-1,1.143844277E-1
1.447565063E1,-3.767508566E-1,3.309359848E-1,9.117157012E-2
1.448565063E1,-5.074759126E-1,1.330158114E-1,2.886336111E-2
1.449565063E1,-5.807796717E-1,4.382954910E-2,-2.855792828E-2
1.450565063E1,-5.490147471E-1,-4.680751264E-1,-2.733619884E-2
1.451565063E1,-4.696022868E-1,-8.333722949E-1,-1.267544460E-2
1.452565063E1,-3.217730224E-1,-1.173013091E0,-8.353576064E-2
1.453565063E1,-1.776089370E-1,-1.253647208E0,-2.594648004E-1
1.454565063E1,-8.720094711E-2,-1.083826780E0,-4.182896614E-1
1.455565063E1,-7.498364896E-2,-6.281217337E-1,-5.258018374E-1
1.456565063E1,-1.128572673E-1,-2.542724609E-1,-5.331322551E-1
1.457565063E1,-2.032652497E-1,-2.947422490E-2,-4.586067200E-1
1.458565063E1,-3.620901108E-1,1.146898642E-1,-3.999637067E-1
1.459565063E1,-5.111411214E-1,1.941022873E-1,-3.816377819E-1
1.460565063E1,-6.589703560E-1,2.735147178E-1,-3.645335436E-1
1.461565063E1,-7.139481902E-1,2.527453005E-1,-3.278816640E-1
1.462565063E1,-6.663007736E-1,2.916879393E-2,-2.362519503E-1
1.463565063E1,-5.367974043E-1,-3.275762498E-1,-6.520981342E-2
1.464565063E1,-3.107774556E-1,-8.675807118E-1,2.292270064E-1
1.465565063E1,-4.123337101E-3,-1.279303551E0,3.807214797E-1
1.466565063E1,2.121227980E-1,-1.407585144E0,3.758345544E-1
1.467565063E1,3.953822255E-1,-1.214551926E0,2.512181401E-1
1.468565063E1,4.980075061E-1,-9.042325616E-1,7.162389904E-2
1.469565063E1,5.627591610E-1,-5.145008564E-1,-1.006399691E-1
1.470565063E1,5.322159529E-1,-2.432768941E-1,-2.386954129E-1
1.471565063E1,3.660607338E-1,5.115992576E-2,-3.987419903E-1
1.472565063E1,6.185005978E-2,3.162752390E-1,-5.172497630E-1
1.473565063E1,-2.325867712E-1,4.372264743E-1,-5.331322551E-1
1.474565063E1,-5.148062706E-1,4.372264743E-1,-4.402807951E-1
1.475565063E1,-5.978838801E-1,2.649625838E-1,-3.156643808E-1
1.476565063E1,-4.903717041E-1,-4.046979174E-2,-1.543960720E-1
1.477565063E1,-3.034470677E-1,-2.701549530E-1,-5.910116807E-2
1.478565063E1,-4.444041103E-2,-4.008800089E-1,-2.489273995E-2
1.479565063E1,1.559232324E-1,-3.165806830E-1,-7.742711157E-2
1.480565063E1,2.402225733E-1,-1.895207912E-1,-1.385135949E-1
1.481565063E1,2.438877672E-1,-5.513054505E-2,-1.873827726E-1
1.482565063E1,1.876882017E-1,4.734201822E-3,-2.008218020E-1
1.483565063E1,8.261945844E-2,-1.237001177E-2,-1.886045039E-1
1.484565063E1,7.635809598E-4,-2.458730713E-2,-1.666133702E-1
1.485565063E1,-7.131846249E-2,-2.703076601E-2,-1.311832070E-1
1.486565063E1,-8.720094711E-2,3.512472380E-3,-1.030834317E-1
1.487565063E1,-5.543597788E-2,6.704241037E-2,-1.201876476E-1
1.488565063E1,1.420260593E-2,1.012508348E-1,-1.531743407E-1
1.489565063E1,7.528908551E-2,4.016435891E-2,-1.653916389E-1
1.490565063E1,1.119409725E-1,-8.567378670E-2,-1.470656991E-1
1.491565063E1,8.994983882E-2,-1.638644785E-1,-1.372918636E-1
1.492565063E1,1.298087649E-2,-1.601992846E-1,-1.543960720E-1
1.493565063E1,-1.018617004E-1,-7.834340632E-2,-1.812741160E-1
1.494565063E1,-1.776089370E-1,-3.558287397E-2,-1.886045039E-1
1.495565063E1,-2.057087123E-1,-9.926552884E-3,-1.727220118E-1
1.496565063E1,-1.751654744E-1,-2.458730713E-2,-1.495091617E-1
1.497565063E1,-1.067486182E-1,-5.390881747E-2,-1.434005052E-1
1.498565063E1,-4.077522457E-2,-8.567378670E-2,-1.275180280E-1
1.499565063E1,2.519817278E-2,-1.418733448E-1,-9.941824526E-2
1.500565063E1,3.741546720E-2,-1.821904182E-1,-9.208786488E-2
1.501565063E1,1.420260593E-2,-1.785252392E-1,-9.453132749E-2
1.502565063E1,-1.756236330E-2,-1.492037177E-1,-1.030834317E-1
1.503565063E1,-1.756236330E-2,-1.211039424E-1,-1.079703495E-1
1.504565063E1,1.908952370E-2,-6.246092543E-2,-1.018617004E-1
1.505565063E1,8.384118974E-2,-1.847865991E-2,-1.006399691E-1
1.506565063E1,1.730274558E-1,3.161225095E-2,-9.453132749E-2
1.507565063E1,2.402225733E-1,3.649916872E-2,-1.079703495E-1
1.508565063E1,2.695440948E-1,-1.603520103E-2,-1.116355360E-1
1.509565063E1,2.451094985E-1,-1.382081509E-1,-9.330959618E-2
1.510565063E1,1.803578287E-1,-2.127336562E-1,-7.742711157E-2
1.511565063E1,8.506292105E-2,-2.347247899E-1,-7.009673119E-2
1.512565063E1,4.718930274E-2,-1.895207912E-1,-6.398808211E-2
1.513565063E1,5.329795182E-2,-7.589995116E-2,-5.299251899E-2
1.514565063E1,1.204930767E-1,5.238165334E-2,-1.511890348E-2
1.515565063E1,1.950185746E-1,1.354592592E-1,9.315688163E-3
1.516565063E1,2.939786613E-1,1.525634825E-1,3.375028074E-2
1.517565063E1,3.599520624E-1,1.574503928E-1,5.818486959E-2
1.518565063E1,3.843866587E-1,1.757763475E-1,3.985892609E-2
1.519565063E1,3.367392123E-1,1.818849891E-1,-2.244928107E-2
1.520565063E1,1.925751269E-1,1.464548260E-1,-8.842267841E-2
1.521565063E1,-2.244928107E-2,1.146898642E-1,-1.311832070E-1
1.522565063E1,-2.179260105E-1,7.925970852E-2,-1.763872057E-1
1.523565063E1,-4.243983030E-1,5.849030241E-2,-1.910479665E-1
1.524565063E1,-5.148062706E-1,6.948586553E-2,-1.776089370E-1
1.525565063E1,-4.977020919E-1,7.925970852E-2,-1.482874304E-1
1.526565063E1,-3.694204688E-1,7.315105945E-2,-1.043051630E-1
1.527565063E1,-9.941824526E-2,8.536835015E-2,-4.810560122E-2
1.528565063E1,1.950185746E-1,1.159115955E-1,-2.000582218E-2
1.529565063E1,3.770562708E-1,1.452330947E-1,-1.145371422E-2
1.530565063E1,4.882336855E-1,1.574503928E-1,-2.122755162E-2
1.531565063E1,4.735729098E-1,1.391244531E-1,-2.611446939E-2
1.532565063E1,3.575085998E-1,8.292489499E-2,-3.100138716E-2
1.533565063E1,1.986837685E-1,2.794706449E-2,-3.344484791E-2
1.534565063E1,8.261945844E-2,-1.481347065E-2,-2.977965772E-2
1.535565063E1,-3.222311661E-2,-4.169152305E-2,-6.032289565E-2
1.536565063E1,-9.697478265E-2,-3.436114267E-2,-9.941824526E-2
1.537565063E1,-1.446222365E-1,-1.527161949E-4,-1.360701323E-1
1.538565063E1,-1.605047137E-1,3.161225095E-2,-1.531743407E-1
1.539565063E1,-1.605047137E-1,5.604684353E-2,-1.531743407E-1
1.540565063E1,-1.482874304E-1,1.061377525E-1,-1.519526094E-1
1.541565063E1,-1.250745654E-1,1.623373181E-1,-1.446222365E-1
1.542565063E1,-7.131846249E-2,2.124282271E-1,-1.189659163E-1
1.543565063E1,-7.788525894E-3,2.405280024E-1,-1.030834317E-1
1.544565063E1,7.162389904E-2,2.454149276E-1,-8.231402934E-2
1.545565063E1,1.217148080E-1,2.246455252E-1,-5.910116807E-2
1.546565063E1,1.473711282E-1,1.892153621E-1,-3.588830680E-2
1.547565063E1,1.021671370E-1,1.611155868E-1,-2.977965772E-2
1.548565063E1,2.397644334E-2,1.354592592E-1,-3.588830680E-2
1.549565063E1,-1.079703495E-1,1.085812151E-1,-4.688387364E-2
1.550565063E1,-2.179260105E-1,7.192932814E-2,-4.932733253E-2
1.551565063E1,-3.303251266E-1,3.649916872E-2,-5.054906011E-2
1.552565063E1,-3.645335436E-1,2.290742937E-3,-5.177079141E-2
1.553565063E1,-3.168860972E-1,-4.780016840E-2,-3.344484791E-2
1.554565063E1,-1.898262352E-1,-1.113301069E-1,-7.788525894E-3
1.555565063E1,-7.254019380E-2,-9.544762224E-2,1.542433538E-2
1.556565063E1,5.207622424E-2,-1.527161949E-4,2.031125315E-2
1.557565063E1,1.473711282E-1,1.085812151E-1,8.093958721E-3
1.558565063E1,2.377791107E-1,2.258672565E-1,-4.321868345E-2
1.559565063E1,2.426660359E-1,2.503018379E-1,-5.910116807E-2
1.560565063E1,1.803578287E-1,2.160934210E-1,-4.810560122E-2
1.561565063E1,9.239330143E-2,1.598938555E-1,-2.855792828E-2
1.562565063E1,3.619373962E-2,9.392046183E-2,-2.000582218E-2
1.563565063E1,1.175914705E-2,1.817322709E-2,-3.344484791E-2
1.564565063E1,-1.145371422E-2,-3.313941509E-2,-5.421425030E-2
1.565565063E1,-8.842267841E-2,-4.780016840E-2,-7.987056673E-2
1.566565063E1,-1.824958473E-1,-2.214384824E-2,-1.018617004E-1
1.567565063E1,-2.973384261E-1,-3.817904973E-3,-1.091920808E-1
1.568565063E1,-3.510945439E-1,-1.374445739E-3,-9.575305134E-2
1.569565063E1,-3.339903057E-1,1.817322709E-2,-5.910116807E-2
1.570565063E1,-2.264781147E-1,4.505127668E-2,-1.634063199E-2
1.571565063E1,-6.520981342E-2,4.993819445E-2,2.153298259E-2
1.572565063E1,1.815795600E-1,-1.847865991E-2,7.773254067E-2
1.573565063E1,3.489564955E-1,-8.933897316E-2,1.119409725E-1
1.574565063E1,4.650208056E-1,-1.492037177E-1,1.229365394E-1
1.575565063E1,4.515817761E-1,-1.699731201E-1,9.850194305E-2
1.576565063E1,3.770562708E-1,-1.577558219E-1,5.940660089E-2
1.577565063E1,2.414443046E-1,-1.125518382E-1,6.872228812E-3
1.578565063E1,1.119409725E-1,-5.879573524E-2,-2.977965772E-2
1.579565063E1,-6.154462695E-2,-1.725693047E-2,-6.032289565E-2
1.580565063E1,-1.922696829E-1,1.450803876E-2,-7.131846249E-2
1.581565063E1,-3.010036349E-1,7.177661173E-3,-6.887500733E-2
1.582565063E1,-3.010036349E-1,-5.268708616E-2,-3.344484791E-2
1.583565063E1,-2.276998460E-1,-1.088866442E-1,6.872228812E-3
1.584565063E1,-6.643154472E-2,-1.284343153E-1,3.985892609E-2
1.585565063E1,7.528908551E-2,-8.078686893E-2,3.375028074E-2
1.586565063E1,2.170097083E-1,1.572976820E-2,2.641990222E-2
1.587565063E1,2.780961990E-1,6.459894776E-2,1.542433538E-2
1.588565063E1,3.061959743E-1,6.704241037E-2,2.397644334E-2
1.589565063E1,3.061959743E-1,1.695149764E-2,5.085449293E-2
1.590565063E1,2.683223486E-1,1.328630932E-2,4.474584386E-2
1.591565063E1,1.962403059E-1,-3.069595434E-2,5.696314201E-2
1.592565063E1,1.266017258E-1,-9.911280870E-2,1.058323234E-1
1.593565063E1,3.375028074E-2,-1.980729103E-1,1.534797698E-1
1.594565063E1,-8.353576064E-2,-2.115119249E-1,1.143844277E-1
1.595565063E1,-2.264781147E-1,-1.992946416E-1,3.619373962E-2
1.596565063E1,-3.376555145E-1,-1.834121495E-1,1.542433538E-2
1.597565063E1,-3.767508566E-1,-1.614210159E-1,3.497200832E-2
1.598565063E1,-3.376555145E-1,-1.345429718E-1,4.108065739E-2
1.599565063E1,-2.179260105E-1,-1.162170246E-1,6.062832847E-2
1.600565063E1,-2.489273995E-2,-5.513054505E-2,6.185005978E-2
1.601565063E1,1.204930767E-1,-6.001746282E-2,8.017600328E-2
1.602565063E1,2.451094985E-1,-1.724165827E-1,1.192713454E-1
1.603565063E1,2.866483033E-1,-2.909243405E-1,1.571449637E-1
1.604565063E1,2.573267817E-1,-3.556760252E-1,1.656970680E-1
1.605565063E1,1.608101577E-1,-3.911061883E-1,1.547015011E-1
1.606565063E1,5.329795182E-2,-3.984365463E-1,1.327103674E-1
1.607565063E1,-1.287397593E-1,-3.214675784E-1,4.963276163E-2
1.608565063E1,-2.777907550E-1,-2.603811026E-1,-2.977965772E-2
1.609565063E1,-4.146244824E-1,-1.895207912E-1,-5.543597788E-2
1.610565063E1,-4.659371078E-1,-2.066250145E-1,-1.878409274E-2
1.611565063E1,-4.329504073E-1,-3.006981909E-1,-3.466657549E-2
1.612565063E1,-3.107774556E-1,-4.754055142E-1,-9.208786488E-2
1.613565063E1,-1.641699076E-1,-5.841394663E-1,-1.543960720E-1
1.614565063E1,3.863719851E-2,-6.097957492E-1,-2.252563834E-1
1.615565063E1,2.304487377E-1,-5.621483326E-1,-2.826776803E-1
1.616565063E1,3.672824502E-1,-5.206094980E-1,-3.193295598E-1
1.617565063E1,5.090031028E-1,-4.350884259E-1,-3.718639314E-1
1.618565063E1,5.981893539E-1,-3.740019500E-1,-4.048506320E-1
1.619565063E1,6.934842467E-1,-3.068068326E-1,-4.463894367E-1
1.620565063E1,7.142536640E-1,-1.785252392E-1,-4.903717041E-1
1.621565063E1,7.142536640E-1,-1.785252392E-1,-4.903717041E-1
1.625226934E1,-4.305069447E-1,-9.860884547E-1,1.266017258E-1
1.626226934E1,-3.486510813E-1,-1.210886717E0,1.094975099E-1
1.627226934E1,-2.509126961E-1,-1.267086267E0,8.506292105E-2
1.628226934E1,-1.311832070E-1,-1.229212642E0,6.551524997E-2
1.629226934E1,-3.100138716E-2,-1.198669434E0,6.307178736E-2
1.630226934E1,8.139773458E-2,-1.143691540E0,2.886336111E-2
1.631226934E1,1.229365394E-1,-9.873101711E-1,-5.299251899E-2
1.632226934E1,1.363755614E-1,-9.604321718E-1,-1.983783394E-1
1.633226934E1,7.773254067E-2,-8.333722949E-1,-2.961167097E-1
1.634226934E1,3.207040019E-3,-7.014254928E-1,-3.352120519E-1
1.635226934E1,-8.597921580E-2,-4.937314689E-1,-3.975202441E-1
1.636226934E1,-1.385135949E-1,-3.385718167E-1,-4.586067200E-1
1.637226934E1,-1.482874304E-1,-2.078467458E-1,-4.769326746E-1
1.638226934E1,-9.086613357E-2,-9.544762224E-2,-4.146244824E-1
1.639226934E1,-1.145371422E-2,-1.237001177E-2,-3.303251266E-1
1.640226934E1,1.241582632E-1,5.849030241E-2,-1.751654744E-1
1.641226934E1,2.304487377E-1,2.306014486E-2,-4.566214234E-2
1.642226934E1,3.379609287E-1,-1.027780026E-1,5.574141070E-2
1.643226934E1,3.904953003E-1,-1.919642538E-1,1.021671370E-1
1.644226934E1,4.234820008E-1,-2.188423127E-1,1.278234571E-1
1.645226934E1,4.295906425E-1,-1.369864196E-1,8.017600328E-2
1.646226934E1,3.966039717E-1,-9.056070447E-2,4.841103405E-2
1.647226934E1,3.061959743E-1,-4.902189970E-2,4.352411628E-2
1.648226934E1,2.328922004E-1,-8.078686893E-2,3.619373962E-2
1.649226934E1,1.779143661E-1,-8.689551800E-2,3.863719851E-2
1.650226934E1,1.766926348E-1,-1.455385387E-1,3.619373962E-2
1.651226934E1,1.498145908E-1,-8.933897316E-2,1.298087649E-2
1.652226934E1,1.253799945E-1,-5.513054505E-2,2.519817278E-2
1.653226934E1,7.773254067E-2,-9.666935354E-2,5.207622424E-2
1.654226934E1,-6.032289565E-2,-2.310595959E-1,8.384118974E-2
1.655226934E1,-2.350302190E-1,-3.605629504E-1,9.728021920E-2
1.656226934E1,-4.708240330E-1,-5.450441241E-1,7.040216774E-2
1.657226934E1,-6.113229394E-1,-6.183478832E-1,4.841103405E-2
1.658226934E1,-7.273872495E-1,-5.609265566E-1,4.230238497E-2
1.659226934E1,-7.554870248E-1,-4.094321132E-1,8.384118974E-2
1.660226934E1,-7.334958911E-1,-2.432768941E-1,1.608101577E-1
1.661226934E1,-6.491965652E-1,-1.308777779E-1,2.463312149E-1
1.662226934E1,-5.868883133E-1,-1.064431891E-1,2.952004075E-1
1.663226934E1,-5.697841048E-1,-1.247691289E-1,3.208567202E-1
1.664226934E1,-6.052142978E-1,-1.931859851E-1,3.098611534E-1
1.665226934E1,-6.308705807E-1,-2.628245652E-1,2.939786613E-1
1.666226934E1,-6.272054315E-1,-2.396117151E-1,2.915352285E-1
1.667226934E1,-5.991056561E-1,-1.345429718E-1,2.695440948E-1
1.668226934E1,-5.135845542E-1,8.903354406E-2,2.829830945E-1
1.669226934E1,-4.256200492E-1,2.661843300E-1,3.599520624E-1
1.670226934E1,-2.875646055E-1,3.443750143E-1,4.564687014E-1
1.671226934E1,-1.653916389E-1,3.126100600E-1,4.918988645E-1
1.672226934E1,-1.023198478E-2,1.061377525E-1,4.589121640E-1
1.673226934E1,1.632536054E-1,-2.214384824E-2,3.318522871E-1
1.674226934E1,3.330740333E-1,-1.394298822E-1,2.023489624E-1
1.675226934E1,4.882336855E-1,-2.567159235E-1,3.741546720E-2
1.676226934E1,5.358811021E-1,-2.872591615E-1,-8.231402934E-2
1.677226934E1,5.053378940E-1,-3.764454126E-1,-2.179260105E-1
1.678226934E1,4.161516428E-1,-5.267181396E-1,-3.181078434E-1
1.679226934E1,2.890917659E-1,-7.893900275E-1,-4.573850036E-1
1.680226934E1,1.559232324E-1,-8.468112946E-1,-4.378373325E-1
1.681226934E1,7.284562290E-2,-7.832813859E-1,-3.046688139E-1
1.682226934E1,8.093958721E-3,-6.305651665E-1,-1.030834317E-1
1.683226934E1,-2.611446939E-2,-4.607447684E-1,3.207040019E-3
1.684226934E1,-8.964440972E-2,-2.750418782E-1,2.764163166E-2
1.685226934E1,-1.458439678E-1,-1.430950761E-1,-2.244928107E-2
1.686226934E1,-1.800523996E-1,3.772090003E-2,-8.475748450E-2
1.687226934E1,-1.287397593E-1,2.124282271E-1,-1.165224537E-1
1.688226934E1,-2.855792828E-2,3.248273432E-1,-1.311832070E-1
1.689226934E1,1.302669197E-1,3.871355653E-1,-1.385135949E-1
1.690226934E1,2.414443046E-1,3.700313270E-1,-1.434005052E-1
1.691226934E1,3.233001828E-1,2.674060464E-1,-1.617264450E-1
1.692226934E1,3.184132576E-1,1.941022873E-1,-1.739437431E-1
1.693226934E1,2.463312149E-1,1.635590494E-1,-1.617264450E-1
1.694226934E1,1.608101577E-1,1.647807807E-1,-1.043051630E-1
1.695226934E1,1.070540547E-1,1.806632578E-1,-5.421425030E-2
1.696226934E1,3.863719851E-2,2.515235841E-1,-4.123337101E-3
1.697226934E1,-1.756236330E-2,3.126100600E-1,8.093958721E-3
1.698226934E1,-8.842267841E-2,3.688096106E-1,-6.566796452E-3
1.699226934E1,-1.226311028E-1,3.932442069E-1,-2.733619884E-2
1.700226934E1,-1.543960720E-1,4.091266990E-1,-2.611446939E-2
1.701226934E1,-1.678351015E-1,4.531089365E-1,-1.634063199E-2
1.702226934E1,-1.470656991E-1,4.787652791E-1,-3.711003438E-2
1.703226934E1,-8.964440972E-2,4.836521745E-1,-7.254019380E-2
1.704226934E1,-4.199695215E-2,4.836521745E-1,-8.842267841E-2
1.705226934E1,-1.023198478E-2,5.019781590E-1,-9.330959618E-2
1.706226934E1,-1.756236330E-2,5.203040838E-1,-8.964440972E-2
1.707226934E1,-2.367101051E-2,4.934260249E-1,-9.086613357E-2
1.708226934E1,-2.122755162E-2,4.189005196E-1,-8.842267841E-2
1.709226934E1,-1.511890348E-2,3.602575064E-1,-7.620538026E-2
1.710226934E1,-4.581485991E-4,3.150535226E-1,-5.543597788E-2
1.711226934E1,2.153298259E-2,2.539670467E-1,-4.321868345E-2
1.712226934E1,6.185005978E-2,1.623373181E-1,-2.611446939E-2
1.713226934E1,7.651081681E-2,7.315105945E-2,-3.222311661E-2
1.714226934E1,6.551524997E-2,2.290742937E-3,-5.665770918E-2
1.715226934E1,3.985892609E-2,-5.879573524E-2,-1.018617004E-1
1.716226934E1,1.298087649E-2,-7.101303339E-2,-1.360701323E-1
1.717226934E1,-2.244928107E-2,-5.024362728E-2,-1.739437431E-1
1.718226934E1,-4.321868345E-2,-2.214384824E-2,-1.934914142E-1
1.719226934E1,-7.498364896E-2,2.183841541E-2,-1.983783394E-1
1.720226934E1,-1.250745654E-1,7.559451461E-2,-1.898262352E-1
1.721226934E1,-1.763872057E-1,1.207985133E-1,-1.751654744E-1
1.722226934E1,-2.386954129E-1,1.537852138E-1,-1.629481763E-1
1.723226934E1,-2.606865466E-1,1.342375278E-1,-1.629481763E-1
1.724226934E1,-2.521344423E-1,9.758564830E-2,-1.605047137E-1
1.725226934E1,-2.301433086E-1,8.781181276E-2,-1.592829973E-1
1.726226934E1,-1.971566081E-1,9.392046183E-2,-1.629481763E-1
1.727226934E1,-1.605047137E-1,1.220202371E-1,-1.776089370E-1
1.728226934E1,-1.201876476E-1,1.623373181E-1,-1.898262352E-1
1.729226934E1,-6.276635826E-2,2.283107042E-1,-1.898262352E-1
1.730226934E1,-2.367101051E-2,2.820668221E-1,-1.824958473E-1
1.731226934E1,1.786779426E-2,3.284925222E-1,-1.617264450E-1
1.732226934E1,4.352411628E-2,3.089448512E-1,-1.348484010E-1
1.733226934E1,4.841103405E-2,2.283107042E-1,-1.006399691E-1
1.734226934E1,3.375028074E-2,1.220202371E-1,-7.864884287E-2
1.735226934E1,3.008509055E-2,4.505127668E-2,-6.520981342E-2
1.736226934E1,3.497200832E-2,-2.580903657E-2,-5.787943676E-2
1.737226934E1,4.230238497E-2,-3.802633286E-2,-5.299251899E-2
1.738226934E1,7.162389904E-2,-2.214384824E-2,-6.520981342E-2
1.739226934E1,1.033888608E-1,3.512472380E-3,-9.330959618E-2
1.740226934E1,1.204930767E-1,3.894263133E-2,-1.067486182E-1
1.741226934E1,1.009454057E-1,6.459894776E-2,-1.091920808E-1
1.742226934E1,7.284562290E-2,2.550360374E-2,-1.030834317E-1
1.743226934E1,1.786779426E-2,-5.268708616E-2,-8.109229803E-2
1.744226934E1,-2.977965772E-2,-1.284343153E-1,-5.054906011E-2
1.745226934E1,-5.299251899E-2,-2.725984156E-1,-3.344484791E-2
1.746226934E1,-5.421425030E-2,-2.982547283E-1,-2.122755162E-2
1.747226934E1,-3.955349326E-2,-2.738201320E-1,-1.679878100E-3
1.748226934E1,-5.345067009E-3,-2.322813272E-1,1.985310577E-3
1.749226934E1,2.641990222E-2,-1.882990748E-1,-7.788525894E-3
1.750226934E1,7.528908551E-2,-1.516471803E-1,-4.199695215E-2
1.751226934E1,1.082757786E-1,-1.284343153E-1,-7.376192510E-2
1.752226934E1,1.217148080E-1,-1.003345400E-1,-9.697478265E-2
1.753226934E1,1.046105921E-1,-7.956513762E-2,-8.720094711E-2
1.754226934E1,5.574141070E-2,-7.101303339E-2,-4.444041103E-2
1.758518840E1,-1.715002805E-1,-5.389354229E-1,-5.910116807E-2
1.759518840E1,-2.362519503E-1,-5.719221234E-1,-1.267544460E-2
1.760518840E1,-2.814559340E-1,-5.535961986E-1,1.786779426E-2
1.761518840E1,-3.266599476E-1,-5.193877816E-1,2.519817278E-2
1.762518840E1,-3.376555145E-1,-5.022835732E-1,1.175914705E-2
1.763518840E1,-3.242164850E-1,-4.497492015E-1,-9.010255337E-3
1.764518840E1,-2.741255760E-1,-3.678933084E-1,-1.756236330E-2
1.765518840E1,-2.093739063E-1,-2.860374451E-1,-6.566796452E-3
1.766518840E1,-1.214093715E-1,-1.809686869E-1,3.252854943E-2
1.767518840E1,-5.299251899E-2,-1.369864196E-1,8.628465235E-2
1.768518840E1,1.420260593E-2,-1.821904182E-1,1.314886510E-1
1.769518840E1,3.252854943E-2,-2.567159235E-1,1.437059343E-1
1.770518840E1,-2.244928107E-2,-3.190241456E-1,1.070540547E-1
1.771518840E1,-1.128572673E-1,-3.434587121E-1,4.352411628E-2
1.772518840E1,-1.776089370E-1,-3.397935331E-1,-1.023198478E-2
1.773518840E1,-2.057087123E-1,-3.434587121E-1,-8.109229803E-2
1.774518840E1,-2.044869810E-1,-3.446804583E-1,-1.275180280E-1
1.775518840E1,-1.861610413E-1,-3.043633699E-1,-1.629481763E-1
1.776518840E1,-1.690568328E-1,-2.481638193E-1,-1.653916389E-1
1.777518840E1,-1.531743407E-1,-1.247691289E-1,-1.336266696E-1
1.778518840E1,-1.360701323E-1,-1.847865991E-2,-8.353576064E-2
1.779518840E1,-1.079703495E-1,-1.847865991E-2,-5.177079141E-2
1.780518840E1,-6.032289565E-2,-7.345648855E-2,-2.611446939E-2
1.781518840E1,-2.977965772E-2,-1.003345400E-1,-3.100138716E-2
1.782518840E1,-2.901607659E-3,-1.577558219E-1,-7.009673119E-2
1.783518840E1,2.031125315E-2,-2.286161482E-1,-1.079703495E-1
1.784518840E1,1.175914705E-2,-2.518289983E-1,-1.348484010E-1
1.785518840E1,-3.955349326E-2,-2.090684772E-1,-1.336266696E-1
1.786518840E1,-8.475748450E-2,-1.919642538E-1,-1.055268943E-1
1.787518840E1,-1.201876476E-1,-1.687513888E-1,-4.932733253E-2
1.788518840E1,-1.165224537E-1,-1.614210159E-1,4.428769462E-3
1.789518840E1,-6.520981342E-2,-2.163988501E-1,9.605848789E-2
1.790518840E1,-1.145371422E-2,-2.811505198E-1,1.864664704E-1
1.791518840E1,4.963276163E-2,-3.410152495E-1,2.903134823E-1
1.792518840E1,8.261945844E-2,-3.715584874E-1,3.697259128E-1
1.793518840E1,7.406735420E-2,-3.740019500E-1,4.259254634E-1
1.794518840E1,2.641990222E-2,-3.776671588E-1,4.515817761E-1
1.795518840E1,-5.421425030E-2,-3.190241456E-1,4.503600597E-1
1.796518840E1,-1.702785641E-1,-2.567159235E-1,4.356993139E-1
1.797518840E1,-2.557996213E-1,-1.699731201E-1,4.198168218E-1
1.798518840E1,-3.083339930E-1,-7.101303339E-2,4.002691507E-1
1.799518840E1,-2.887863219E-1,-4.535670951E-2,3.978256881E-1
1.800518840E1,-2.386954129E-1,-5.268708616E-2,4.112647176E-1
1.801518840E1,-1.605047137E-1,-5.879573524E-2,4.271472096E-1
1.802518840E1,-1.104138121E-1,-2.336557768E-2,4.295906425E-1
1.803518840E1,-8.353576064E-2,1.036942974E-1,4.137081802E-1
1.804518840E1,-7.009673119E-2,2.466366589E-1,3.880518377E-1
1.805518840E1,-6.887500733E-2,4.323395491E-1,3.587303460E-1
1.806518840E1,-7.376192510E-2,5.410735011E-1,3.367392123E-1
1.807518840E1,-8.842267841E-2,5.642863512E-1,3.208567202E-1
1.808518840E1,-1.018617004E-1,5.129737258E-1,3.000873327E-1
1.809518840E1,-1.226311028E-1,4.054614902E-1,2.829830945E-1
1.810518840E1,-1.653916389E-1,1.879936308E-1,2.561050653E-1
1.811518840E1,-1.934914142E-1,-2.336557768E-2,2.341139317E-1
1.812518840E1,-2.228129357E-1,-2.078467458E-1,1.950185746E-1
1.813518840E1,-2.448040545E-1,-2.725984156E-1,1.266017258E-1
1.814518840E1,-2.460257858E-1,-1.980729103E-1,5.696314201E-2
1.815518840E1,-1.898262352E-1,-6.261364091E-3,-2.733619884E-2
1.816518840E1,-1.079703495E-1,1.537852138E-1,-8.720094711E-2
1.817518840E1,6.872228812E-3,2.649625838E-1,-1.715002805E-1
1.818518840E1,9.239330143E-2,3.065013885E-1,-2.582430840E-1
1.819518840E1,1.424842030E-1,2.832885385E-1,-3.620901108E-1
1.820518840E1,1.241582632E-1,2.246455252E-1,-3.804160357E-1
1.821518840E1,6.429351866E-2,9.147699922E-2,-3.584249020E-1
1.822518840E1,-2.122755162E-2,-1.369864196E-1,-3.144426346E-1
1.823518840E1,-8.842267841E-2,-2.933678031E-1,-2.680169344E-1
1.824518840E1,-1.641699076E-1,-3.593412042E-1,-2.423606068E-1
1.825518840E1,-2.130390853E-1,-2.493855506E-1,-2.631300092E-1
1.826518840E1,-2.276998460E-1,-1.527161949E-4,-3.315468729E-1
1.827518840E1,-1.800523996E-1,2.258672565E-1,-4.243983030E-1
1.828518840E1,-8.109229803E-2,3.724747896E-1,-4.830413163E-1
1.829518840E1,9.117157012E-2,4.421133697E-1,-5.209149122E-1
1.830518840E1,2.243400961E-1,4.408916533E-1,-5.453495383E-1
1.831518840E1,3.501782417E-1,4.702131748E-1,-5.587885380E-1
1.832518840E1,4.039343297E-1,4.897608459E-1,-5.795579553E-1
1.833518840E1,4.027126133E-1,5.520690680E-1,-5.526798964E-1
1.834518840E1,3.428478539E-1,5.923861265E-1,-5.221366882E-1
1.835518840E1,2.756527364E-1,4.970912039E-1,-4.915934205E-1
1.836518840E1,1.889099330E-1,2.942841053E-1,-4.805978537E-1
1.837518840E1,1.302669197E-1,1.354592592E-1,-4.879282415E-1
1.838518840E1,5.940660089E-2,-8.704823442E-3,-4.353938699E-1
1.839518840E1,1.985310577E-3,-1.052214578E-1,-3.376555145E-1
1.840518840E1,-3.222311661E-2,-1.455385387E-1,-2.325867712E-1
1.841518840E1,-7.376192510E-2,-1.968511790E-1,-9.086613357E-2
1.842518840E1,-1.153007299E-1,-2.774853408E-1,6.872228812E-3
1.843518840E1,-1.324049383E-1,-4.912880063E-1,1.168278903E-1
1.844518840E1,-9.330959618E-2,-6.830995679E-1,1.889099330E-1
1.845518840E1,-2.244928107E-2,-7.527381182E-1,2.597702444E-1
1.846518840E1,3.619373962E-2,-6.305651665E-1,3.086394370E-1
1.847518840E1,6.062832847E-2,-4.729620516E-1,3.404043913E-1
1.848518840E1,8.139773458E-2,-3.336848915E-1,3.526217043E-1
1.849518840E1,1.082757786E-1,-3.116937578E-1,3.355174661E-1
1.850518840E1,1.559232324E-1,-3.373500705E-1,2.890917659E-1
1.851518840E1,1.974620372E-1,-3.678933084E-1,2.353356630E-1
1.852518840E1,2.365573794E-1,-3.862192631E-1,1.681405306E-1
1.853518840E1,2.475529462E-1,-3.972148299E-1,1.327103674E-1
1.854518840E1,2.341139317E-1,-3.947713673E-1,1.290451884E-1
1.855518840E1,2.035706937E-1,-4.265363216E-1,1.437059343E-1
1.856518840E1,1.815795600E-1,-4.289797843E-1,1.485928595E-1
1.857518840E1,1.583666950E-1,-3.605629504E-1,1.302669197E-1
1.858518840E1,1.473711282E-1,-2.848156989E-1,9.361502528E-2
1.859518840E1,1.718057245E-1,-1.369864196E-1,4.428769462E-3
1.860518840E1,2.353356630E-1,8.292489499E-2,-5.910116807E-2
1.861518840E1,2.842048407E-1,1.843284518E-1,-4.566214234E-2
1.862518840E1,3.489564955E-1,2.454149276E-1,-1.145371422E-2
1.863518840E1,3.575085998E-1,2.417497337E-1,3.619373962E-2
1.864518840E1,3.428478539E-1,1.745546162E-1,7.773254067E-2
1.865518840E1,3.159697950E-1,7.803797722E-2,1.033888608E-1
1.866518840E1,2.866483033E-1,-5.146535859E-2,1.547015011E-1
1.867518840E1,2.536616027E-1,-9.422589093E-2,2.170097083E-1
1.868518840E1,2.194531709E-1,-7.589995116E-2,2.487746775E-1
1.869518840E1,1.791360974E-1,2.061668597E-2,2.793179154E-1
1.870518840E1,1.461493969E-1,1.317940801E-1,2.866483033E-1
1.871518840E1,1.046105921E-1,2.515235841E-1,2.573267817E-1
1.872518840E1,6.918043643E-2,2.771798968E-1,1.999054998E-1
1.873518840E1,4.474584386E-2,2.600756884E-1,1.608101577E-1
1.874518840E1,7.162389904E-2,3.894263133E-2,7.040216774E-2
1.875518840E1,5.696314201E-2,-1.394298822E-1,1.908952370E-2
1.876518840E1,2.886336111E-2,-1.589775532E-1,5.207622424E-2
1.877518840E1,1.053741761E-2,-2.066250145E-1,9.483675659E-2
1.878518840E1,-3.222311661E-2,-2.664897740E-1,1.156061590E-1
1.879518840E1,-5.665770918E-2,-2.530507445E-1,1.314886510E-1
1.880518840E1,-6.154462695E-2,-1.797469556E-1,1.656970680E-1
1.881518840E1,-4.077522457E-2,-8.200860023E-2,1.632536054E-1
1.882518840E1,-2.901607659E-3,-1.481347065E-2,1.510363221E-1
1.883518840E1,7.895427197E-2,6.093376130E-2,1.473711282E-1
1.884518840E1,1.400407553E-1,1.134681329E-1,1.510363221E-1
1.885518840E1,1.889099330E-1,1.427896470E-1,1.681405306E-1
1.886518840E1,1.693622619E-1,1.440113783E-1,1.864664704E-1
1.887518840E1,1.388190240E-1,6.582067907E-2,2.328922004E-1
1.888518840E1,9.239330143E-2,-3.313941509E-2,2.255618125E-1
1.889518840E1,4.718930274E-2,-1.479819864E-1,2.121227980E-1
1.890518840E1,-3.100138716E-2,-2.640463114E-1,1.803578287E-1
1.891518840E1,-9.330959618E-2,-2.958112657E-1,1.547015011E-1
1.892518840E1,-2.350302190E-1,-2.640463114E-1,1.534797698E-1
1.893518840E1,-3.633118272E-1,-2.151771188E-1,1.889099330E-1
1.894518840E1,-5.001455545E-1,-1.882990748E-1,3.000873327E-1
1.895518840E1,-5.881100893E-1,-2.066250145E-1,4.002691507E-1
1.896518840E1,-5.966621637E-1,-1.467602700E-1,4.185950756E-1
1.897518840E1,-5.490147471E-1,-1.725693047E-2,3.709476292E-1
1.898518840E1,-4.634936452E-1,7.192932814E-2,3.025307953E-1
1.899518840E1,-3.303251266E-1,1.537852138E-1,2.096793354E-1
1.900518840E1,-2.276998460E-1,1.696676910E-1,1.351538301E-1
1.901518840E1,-1.189659163E-1,1.379027218E-1,5.940660089E-2
1.902518840E1,-1.756236330E-2,8.536835015E-2,4.596757516E-2
1.903518840E1,3.008509055E-2,6.826414168E-2,4.841103405E-2
1.904518840E1,3.741546720E-2,1.024725661E-1,1.908952370E-2
1.905518840E1,1.420260593E-2,1.672242284E-1,-3.222311661E-2
1.906518840E1,-3.955349326E-2,2.564104795E-1,-9.086613357E-2
1.907518840E1,-7.376192510E-2,3.223838806E-1,-1.214093715E-1
1.908518840E1,-9.575305134E-2,3.077231348E-1,-1.201876476E-1
1.909518840E1,-9.453132749E-2,1.904370934E-1,-9.819651395E-2
1.910518840E1,-9.697478265E-2,8.048143238E-2,-9.086613357E-2
1.911518840E1,-8.964440972E-2,-9.926552884E-3,-8.842267841E-2
1.912518840E1,-8.109229803E-2,-3.558287397E-2,-8.964440972E-2
1.913518840E1,-6.154462695E-2,-3.313941509E-2,-1.043051630E-1
1.914518840E1,-3.955349326E-2,4.993819445E-2,-1.128572673E-1
1.915518840E1,-3.833176568E-2,2.307541668E-1,-1.543960720E-1
1.916518840E1,-4.581485991E-4,2.784016132E-1,-1.250745654E-1
1.917518840E1,4.230238497E-2,2.527453005E-1,-5.421425030E-2
1.918518840E1,1.033888608E-1,2.099847645E-1,3.985892609E-2
1.919518840E1,1.498145908E-1,1.818849891E-1,8.994983882E-2
1.920518840E1,1.705839932E-1,1.256854236E-1,8.994983882E-2
1.921518840E1,1.473711282E-1,8.414662629E-2,5.085449293E-2
1.922518840E1,1.033888608E-1,6.948586553E-2,2.519817278E-2
1.923518840E1,3.130681813E-2,8.903354406E-2,2.397644334E-2
1.924518840E1,-3.222311661E-2,1.000291109E-1,3.375028074E-2
1.925518840E1,-9.453132749E-2,9.269873053E-2,4.352411628E-2
1.926518840E1,-1.311832070E-1,7.070759684E-2,4.352411628E-2
1.927518840E1,-1.409570426E-1,8.048143238E-2,1.298087649E-2
1.928518840E1,-1.458439678E-1,1.134681329E-1,3.207040019E-3
1.929518840E1,-1.446222365E-1,1.427896470E-1,-1.511890348E-2
1.930518840E1,-1.238528341E-1,8.659008145E-2,-3.344484791E-2
1.931518840E1,-9.453132749E-2,1.206457894E-2,-1.511890348E-2
1.932518840E1,-4.077522457E-2,-5.879573524E-2,3.130681813E-2
1.933518840E1,1.053741761E-2,-1.015562713E-1,3.985892609E-2
1.934518840E1,3.497200832E-2,-1.211039424E-1,7.635809598E-4
1.935518840E1,1.664606482E-2,-1.162170246E-1,-7.788525894E-3
1.936518840E1,-2.489273995E-2,-1.076649204E-1,-4.581485991E-4
1.937518840E1,-8.353576064E-2,-1.101083755E-1,1.985310577E-3
1.938518840E1,-1.116355360E-1,-1.149952933E-1,8.093958721E-3
1.939518840E1,-1.226311028E-1,-1.308777779E-1,1.908952370E-2
1.940518840E1,-1.030834317E-1,-1.394298822E-1,2.764163166E-2
1.941518840E1,-4.932733253E-2,-1.015562713E-1,3.863719851E-2
1.942518840E1,1.664606482E-2,-3.817904973E-3,5.085449293E-2
1.943518840E1,6.795870513E-2,9.025526792E-2,5.329795182E-2
1.944518840E1,1.192713454E-1,1.586721241E-1,4.108065739E-2
1.945518840E1,1.449276656E-1,1.733328849E-1,4.108065739E-2
1.946518840E1,1.656970680E-1,1.488982886E-1,5.696314201E-2
1.947518840E1,1.925751269E-1,1.562286615E-1,6.551524997E-2
1.948518840E1,2.145662606E-1,1.696676910E-1,6.918043643E-2
1.949518840E1,2.060141414E-1,1.073594838E-1,6.307178736E-2
1.950518840E1,1.669187993E-1,6.582067907E-2,6.795870513E-2
1.951518840E1,9.728021920E-2,5.360338464E-2,6.551524997E-2
1.952518840E1,2.886336111E-2,1.450803876E-2,5.207622424E-2
1.953518840E1,-5.787943676E-2,-1.603520103E-2,2.886336111E-2
1.954518840E1,-1.116355360E-1,-2.336557768E-2,2.275471389E-2
1.955518840E1,-1.678351015E-1,-3.313941509E-2,-1.145371422E-2
1.956518840E1,-1.934914142E-1,-1.237001177E-2,-1.756236330E-2
1.957518840E1,-1.812741160E-1,3.283398226E-2,-6.566796452E-3
1.958518840E1,-1.507308781E-1,8.781181276E-2,1.786779426E-2
1.959518840E1,-1.275180280E-1,9.636391699E-2,3.375028074E-2
1.960518840E1,-9.575305134E-2,6.459894776E-2,3.985892609E-2
1.961518840E1,-7.009673119E-2,2.306014486E-2,2.641990222E-2
1.962518840E1,-2.855792828E-2,-2.596175298E-3,1.664606482E-2
1.963518840E1,1.298087649E-2,2.794706449E-2,6.872228812E-3
1.964518840E1,4.474584386E-2,6.582067907E-2,-4.581485991E-4
1.965518840E1,6.062832847E-2,1.488982886E-1,1.420260593E-2
1.966518840E1,7.040216774E-2,1.586721241E-1,1.175914705E-2
1.967518840E1,7.528908551E-2,6.459894776E-2,2.764163166E-2
1.968518840E1,8.506292105E-2,5.955931731E-3,3.741546720E-2
1.969518840E1,1.168278903E-1,5.360338464E-2,3.008509055E-2
1.970518840E1,1.571449637E-1,1.464548260E-1,8.093958721E-3
1.971518840E1,1.889099330E-1,2.014326602E-1,-6.566796452E-3
1.972518840E1,2.328922004E-1,2.331976295E-1,-1.145371422E-2
1.973518840E1,2.683223486E-1,2.148716897E-1,-1.679878100E-3
1.974518840E1,3.025307953E-1,1.391244531E-1,1.664606482E-2
1.975518840E1,3.159697950E-1,6.948586553E-2,2.641990222E-2
1.976518840E1,3.086394370E-1,4.871646687E-2,2.641990222E-2
1.977518840E1,2.622137070E-1,6.215549260E-2,2.031125315E-2
1.978518840E1,1.705839932E-1,4.016435891E-2,1.664606482E-2
1.979518840E1,-1.145371422E-2,-1.114828233E-2,3.252854943E-2
1.980518840E1,-1.507308781E-1,-4.413498193E-2,4.596757516E-2
1.981518840E1,-2.643517256E-1,-6.490438432E-2,4.230238497E-2
1.982518840E1,-2.948949635E-1,-4.657844082E-2,3.252854943E-2
1.983518840E1,-2.594648004E-1,-4.413498193E-2,1.175914705E-2
1.984518840E1,-1.702785641E-1,-8.689551800E-2,8.093958721E-3
1.985518840E1,-7.987056673E-2,-1.296560466E-1,1.175914705E-2
1.986518840E1,1.298087649E-2,-1.663079411E-1,8.093958721E-3
1.987518840E1,6.429351866E-2,-1.504254490E-1,-1.679878100E-3
1.988518840E1,6.429351866E-2,-1.027780026E-1,-1.389717404E-2
1.989518840E1,2.886336111E-2,-6.612611562E-2,-6.566796452E-3
1.990518840E1,-2.855792828E-2,-3.680460155E-2,1.908952370E-2
1.991518840E1,-6.643154472E-2,-2.947422490E-2,4.841103405E-2
1.992518840E1,-6.520981342E-2,-1.374445739E-3,5.940660089E-2
1.993518840E1,-1.878409274E-2,5.482511222E-2,5.329795182E-2
1.994518840E1,4.963276163E-2,1.085812151E-1,4.108065739E-2
1.995518840E1,1.437059343E-1,1.647807807E-1,2.397644334E-2
1.996518840E1,2.011272311E-1,1.892153621E-1,1.053741761E-2
