"Time (s)","Linear Acceleration x (m/s^2)","Linear Acceleration y (m/s^2)","Linear Acceleration z (m/s^2)"
3.017344600E-2,0.000000000E0,0.000000000E0,0.000000000E0
4.017344600E-2,-2.748849988E-2,-4.888772964E-2,3.225665092E-1
5.017344600E-2,-3.527644575E-1,-4.969096184E-2,8.715605736E-1
6.017344600E-2,-1.731523871E-1,1.103183031E-1,1.303691864E0
7.017344600E-2,-2.438604832E-1,1.853998899E-1,1.816281319E0
8.017344600E-2,-4.643897116E-1,3.163130879E-1,1.967484474E0
9.017344600E-2,-4.979036748E-1,6.535747051E-1,1.849871635E0
1.001734460E-1,-5.799086094E-1,8.953135014E-1,1.779047012E0
1.101734460E-1,-6.217519045E-1,1.093531132E0,1.746506691E0
1.201734460E-1,-8.504414558E-1,1.370650053E0,2.245303154E0
1.301734460E-1,-6.029674411E-1,1.575884938E0,1.834352493E0
1.401734460E-1,-1.685689688E-1,1.534815550E0,9.913291931E-1
1.501734460E-1,3.129520416E-1,1.300997972E0,3.256597519E-1
1.601734460E-1,4.639615417E-1,8.120906353E-1,-1.475839615E-1
1.701734460E-1,5.586309433E-1,4.880256653E-1,-1.422748566E-1
1.801734460E-1,5.249053240E-1,4.210531712E-1,-1.055164337E-1
1.901734460E-1,4.527497292E-1,3.427700996E-1,-2.155466080E-1
2.001734460E-1,4.078782499E-1,7.951855659E-2,-3.729658127E-1
2.101734460E-1,4.560797811E-1,-2.321528196E-1,-6.032209396E-1
2.201734460E-1,6.392859221E-1,-5.211465359E-1,-1.040698051E0
2.301734460E-1,4.886111617E-1,-8.003079891E-1,-1.015477180E0
2.401734460E-1,8.860293031E-2,-6.276882887E-1,-3.407382965E-1
2.501734460E-1,-5.727994442E-1,-2.093056440E-1,4.454641342E-1
2.601734460E-1,-7.079980969E-1,3.488544226E-1,7.104654312E-1
2.701734460E-1,-6.974124908E-1,7.376142740E-1,3.894367218E-1
2.801734460E-1,-4.583027363E-1,8.052154779E-1,6.213760376E-2
2.901734460E-1,-4.115468860E-1,7.748893499E-1,1.425561905E-1
3.001734460E-1,-4.658202529E-1,8.147006035E-1,4.169836044E-1
3.101734460E-1,-2.553562522E-1,9.381141663E-1,6.814899445E-1
3.201734460E-1,-3.669239283E-1,9.411990643E-1,9.074649811E-1
3.301734460E-1,-3.262052536E-1,1.030345917E0,7.796163559E-1
3.401734460E-1,-9.275026917E-1,1.623438120E0,-5.782032013E-2
3.501734460E-1,-6.959493160E-1,1.744024038E0,-8.539686203E-1
3.601734460E-1,-8.382533789E-1,1.181946754E0,-1.196315765E0
3.701734460E-1,-8.798344135E-1,7.382736206E-1,-9.547891617E-1
3.801734460E-1,-6.533712745E-1,4.642913342E-1,-2.985115051E-1
3.901734460E-1,-1.488713026E-1,1.445655823E-1,6.319169998E-1
4.001734460E-1,5.424779654E-1,3.357124329E-1,1.114542961E0
4.101734460E-1,8.520725965E-1,6.875264645E-1,9.920473099E-1
4.201734460E-1,6.334503889E-1,7.828335762E-1,4.566974640E-1
4.301734460E-1,4.173433781E-1,7.673150301E-1,-3.024072647E-1
4.401734460E-1,6.413519382E-3,5.322098732E-1,-7.972993851E-1
4.501734460E-1,7.790869474E-2,3.501458168E-1,-9.167242050E-1
4.601734460E-1,2.367110550E-1,1.833996773E-1,-7.790842056E-1
4.701734460E-1,3.804602921E-1,-4.695892334E-3,-5.433816910E-1
4.801734460E-1,8.370127678E-1,-2.388083935E-2,-3.307399750E-1
4.901734460E-1,1.020842075E0,2.747023106E-2,4.816045761E-1
5.001734460E-1,5.966495275E-1,5.327177048E-2,1.052410126E0
5.101734460E-1,3.470487893E-2,3.316293955E-1,7.775964737E-1
5.201734460E-1,-3.559032083E-1,6.717842817E-1,3.787574768E-1
5.301734460E-1,-6.599880457E-1,8.790994883E-1,4.588603973E-2
5.401734460E-1,-1.112089872E0,7.137458324E-1,-5.100774765E-1
5.501734460E-1,-1.439903021E0,4.760962725E-1,-1.243802071E0
5.601734460E-1,-1.225425839E0,4.314903021E-1,-1.544103622E0
5.701734460E-1,-1.223928213E0,-2.185817957E-1,-1.300478935E0
5.801734460E-1,-9.049316645E-1,-5.523451567E-1,-5.909299850E-1
5.901734460E-1,-2.541353106E-1,-6.861760616E-1,8.982629776E-1
6.001734460E-1,2.628871202E-1,-5.832692385E-1,2.111416817E0
6.101734460E-1,1.258306503E-1,-3.986457586E-1,2.352574348E0
6.201734460E-1,-2.582890987E-1,-3.989084959E-1,1.784268379E0
6.301734460E-1,-5.419995785E-1,-7.730301023E-1,1.109314919E0
6.401734460E-1,-1.875076294E-1,-1.105975986E0,2.510080338E-1
6.501734460E-1,1.638568640E-1,-1.524568200E0,-2.200441360E-1
6.601734460E-1,4.430683851E-1,-1.965493798E0,-7.164430618E-1
6.701734460E-1,9.532465935E-1,-2.334449768E0,-1.094996452E0
6.801734460E-1,1.645568132E0,-2.625905991E0,-1.143676758E0
6.901734460E-1,2.126793146E0,-2.880506754E0,-1.040866852E0
7.001734460E-1,2.464431047E0,-2.990771294E0,-8.307723999E-1
7.101734460E-1,2.470879078E0,-2.857453346E0,-8.266706467E-1
7.201734460E-1,2.015968561E0,-2.617901325E0,-1.034470558E0
7.301734460E-1,1.305667877E0,-2.301952839E0,-1.401841164E0
7.401734460E-1,5.721469522E-1,-1.790470481E0,-1.696804047E0
7.501734460E-1,6.516766548E-2,-1.535511136E0,-1.611061573E0
7.601734460E-1,6.012439728E-3,-1.575928211E0,-1.033967972E0
7.701734460E-1,1.688430905E-1,-1.618937492E0,-1.725530624E-1
7.801734460E-1,1.403298378E-1,-1.558718085E0,6.039676666E-1
7.901734460E-1,1.113200188E-1,-1.467351437E0,8.315954208E-1
8.001734460E-1,2.020026147E-1,-1.389924645E0,2.389535904E-1
8.101734460E-1,1.907790005E-1,-1.289714217E0,-3.031797409E-1
8.201734460E-1,1.870325059E-1,-1.120164871E0,-6.503620148E-1
8.301734460E-1,6.740796566E-2,-9.339820147E-1,-9.010448456E-1
8.401734460E-1,-3.605793417E-1,-6.180960536E-1,-7.837018967E-1
8.501734460E-1,-1.984853506E0,2.694842815E-1,5.295324326E-1
8.601734460E-1,-4.591038227E0,1.930418849E0,3.352913857E0
8.701734460E-1,-5.422024250E0,3.269029856E0,5.897192001E0
8.801734460E-1,-3.322319508E0,2.879877329E0,5.940386772E0
8.901734460E-1,1.395967156E-1,1.408639789E0,4.308027267E0
9.001734460E-1,2.375506163E0,9.424884319E-1,1.248365402E0
9.101734460E-1,3.323246956E0,1.717427969E-1,2.990560532E-1
9.201734460E-1,3.579207659E0,-3.605669737E-1,-6.817150116E-2
9.301734460E-1,3.776591778E0,-5.712605119E-1,-6.555843353E-1
9.401734460E-1,3.630616188E0,-2.395921946E-1,-1.420003891E0
9.501734460E-1,3.329925537E0,4.439395666E-1,-1.565223694E0
9.601734460E-1,2.452030897E0,5.854578018E-1,-1.096922874E0
9.701734460E-1,1.519926548E0,3.466615677E-1,-2.525987625E-1
9.801734460E-1,8.974354267E-1,-1.440072060E-2,6.347780228E-1
9.901734460E-1,7.678694725E-1,-4.015098810E-1,8.319272995E-1
1.000173446E0,1.178448677E0,-6.120024920E-1,4.914245605E-1
1.010173446E0,1.727035165E0,-6.651348472E-1,3.822603226E-1
1.020173446E0,1.768652201E0,-5.714964867E-1,4.351940155E-1
1.030173446E0,3.342090249E-1,2.557812929E-1,-3.730258942E-1
1.040173446E0,-1.052780032E0,1.168821216E0,-9.629058838E-1
1.050173446E0,-1.560424209E0,1.251769185E0,-1.115362167E0
1.060173446E0,-1.595665097E0,1.067737460E0,-1.250051498E0
1.070173446E0,-1.474720597E0,8.566142321E-1,-1.375143051E0
1.080173446E0,-1.288560033E0,6.973224878E-1,-1.050045967E0
1.090173446E0,-1.125012755E0,6.220475435E-1,-7.815942764E-1
1.100173446E0,-6.222397685E-1,3.202941418E-1,-7.127933502E-1
1.110173446E0,-5.005061030E-1,-3.249895573E-2,-2.616910934E-1
1.120173446E0,-3.733084798E-1,-5.457922220E-1,-3.152275085E-1
1.130173446E0,-3.860737383E-2,-7.345016003E-1,-3.630752563E-1
1.140173446E0,-7.571525872E-3,-6.785837412E-1,-3.404140472E-1
1.150173446E0,-7.604284585E-2,-5.988346338E-1,-3.669805527E-1
1.160173446E0,1.582067274E-2,-5.856201649E-1,-2.678556442E-1
1.170173446E0,3.094925359E-2,-5.343211889E-1,-8.905029297E-2
1.180173446E0,-1.788706034E-1,-4.708374739E-1,1.077413559E-1
1.190173446E0,-7.265110016E-1,-3.658281565E-1,1.114673615E-1
1.200173446E0,-1.124293685E0,-1.648051739E-1,-2.124614716E-1
1.210173446E0,-1.277342677E0,8.310997486E-2,-4.870977402E-1
1.220173446E0,-1.314558387E0,1.143501997E-1,-4.870548248E-1
1.230173446E0,-1.148876548E0,1.063418388E-2,-2.444477081E-1
1.240173446E0,-8.137498498E-1,-1.727199554E-1,1.138868332E-1
1.250173446E0,-5.739988089E-1,-3.628319502E-1,3.313875198E-1
1.260173446E0,-5.522468090E-1,-5.765434504E-1,3.778657913E-1
1.270173446E0,-3.168497384E-1,-7.255363464E-1,4.315948486E-1
1.280173446E0,1.411020756E-2,-7.427706718E-1,6.016302109E-1
1.290173446E0,4.164077938E-1,-8.593324423E-1,6.954030991E-1
1.300173446E0,6.830649972E-1,-9.585862160E-1,6.661891937E-1
1.310173446E0,8.023096919E-1,-9.723391533E-1,3.590698242E-1
1.320173446E0,6.574579477E-1,-9.602403045E-1,-1.686000824E-1
1.330173446E0,2.889288962E-1,-7.686064243E-1,-5.765428543E-1
1.340173446E0,2.072325349E-1,-4.391897917E-1,-7.198352814E-1
1.350173446E0,-2.326165438E-1,-1.502602100E-1,-7.360172272E-1
1.360173446E0,-1.105606079E0,-2.053616047E-1,-6.157798767E-1
1.370173446E0,-1.131587029E0,9.268426895E-2,-4.375915527E-1
1.380173446E0,-9.449337125E-1,5.532453060E-1,1.110363007E-2
1.390173446E0,-1.063092709E0,8.616358042E-1,6.089649200E-1
1.400173446E0,-9.220104218E-1,6.401245594E-1,1.358895302E0
1.410173446E0,-6.717364788E-1,7.322883606E-1,1.813880920E0
1.420173446E0,-3.792835176E-1,8.212668896E-1,1.930843353E0
1.430173446E0,-6.965970993E-2,7.731685638E-1,1.665501595E0
1.440173446E0,7.946303487E-2,4.292459488E-1,1.038485527E0
1.450173446E0,7.818560302E-2,-1.317427158E-1,3.174552917E-1
1.460173446E0,3.045556545E-1,-5.585713387E-1,-4.336643219E-2
1.470173446E0,2.867565751E-1,-9.040493965E-1,-6.647701263E-1
1.480173446E0,8.443619311E-2,-1.057295680E0,-1.289368629E0
1.490173446E0,-6.456203014E-2,-1.121606350E0,-1.565396309E0
1.500173446E0,-1.240411624E-1,-9.998909235E-1,-1.353076935E0
1.510173446E0,-4.395569265E-1,-6.236119270E-1,-8.201589584E-1
1.520173446E0,-8.983194828E-1,-9.355664253E-2,-6.373405457E-2
1.530173446E0,-1.053973556E0,3.176350594E-1,7.087812424E-1
1.540173446E0,-9.227061272E-1,5.092175007E-1,1.392354012E0
1.550173446E0,-7.056951523E-1,4.703538418E-1,1.810976982E0
1.560173446E0,-5.105865598E-1,3.294477463E-1,2.112289429E0
1.570173446E0,-4.555675387E-1,1.734590530E-1,2.212536812E0
1.580173446E0,-4.363209605E-1,-4.224395752E-2,1.984586716E0
1.590173446E0,-4.717456102E-1,-3.113986254E-1,1.514494896E0
1.600173446E0,-4.699732661E-1,-6.272308826E-1,1.080819130E0
1.610173446E0,-4.807020128E-1,-8.840394020E-1,7.480401993E-1
1.620173446E0,-4.220878482E-1,-9.446561337E-1,4.282817841E-1
1.630173446E0,-3.755144477E-1,-9.372138977E-1,1.014451981E-1
1.640173446E0,-2.316307127E-1,-1.076962590E0,-3.094997406E-1
1.650173446E0,1.341524422E-1,-1.200649858E0,-2.469511032E-1
1.660173446E0,3.395406902E-1,-1.252095222E0,-1.682233810E-1
1.670173446E0,2.207339257E-1,-9.109940529E-1,-1.889829636E-1
1.680173446E0,-2.398580611E-1,-5.071063042E-1,-1.266031265E-1
1.690173446E0,-1.076546609E-1,-2.114669085E-1,5.164813995E-2
1.700173446E0,3.030240536E-1,-9.673166275E-2,4.633693695E-1
1.710173446E0,3.443607986E-1,2.106294632E-1,8.348836899E-1
1.720173446E0,1.078162529E-2,6.986474991E-1,1.128905296E0
1.730173446E0,-2.877700329E-1,9.998638630E-1,1.368041039E0
1.740173446E0,-5.032718778E-1,1.127689362E0,1.285435677E0
1.750173446E0,-2.306708992E-1,8.679687977E-1,9.060888290E-1
1.760173446E0,2.730496526E-1,3.582055569E-1,1.260004044E-1
1.770173446E0,5.204249024E-1,-7.133054733E-2,-7.844581604E-1
1.780173446E0,3.690434992E-1,-3.900856972E-1,-1.552070618E0
1.790173446E0,3.277705908E-1,-5.282306671E-1,-1.859107018E0
1.800173446E0,-8.903794736E-2,-5.457580090E-1,-1.993815422E0
1.810173446E0,-3.260615468E-1,-4.740839005E-1,-1.891199589E0
1.820173446E0,-3.466506898E-1,-2.008733749E-1,-1.529243469E0
1.830173446E0,-3.572428226E-1,1.359789371E-1,-9.908332825E-1
1.840173446E0,-2.888877988E-1,4.159848690E-1,-5.631923676E-1
1.850173446E0,-1.669764519E-1,5.940110683E-1,-4.009914398E-1
1.860173446E0,-4.238932580E-2,7.086939812E-1,-3.674449921E-1
1.870173446E0,5.888462067E-3,7.966444492E-1,-2.793941498E-1
1.880173446E0,-1.798782200E-1,8.666248322E-1,-2.605638504E-1
1.890173446E0,-2.090098560E-1,9.002413750E-1,-2.788953781E-1
1.900173446E0,-3.532190025E-1,9.776370525E-1,-2.612485886E-1
1.910173446E0,-4.443039298E-1,1.011545420E0,-1.836080551E-1
1.920173446E0,-2.945088744E-1,9.278361797E-1,-1.689376831E-1
1.930173446E0,-4.058403522E-2,7.777175903E-1,-1.541500092E-1
1.940173446E0,2.341212630E-1,5.885601044E-1,-1.415967941E-1
1.950173446E0,4.717289805E-1,4.779574871E-1,-1.990604401E-2
1.960173446E0,5.897201896E-1,3.953657150E-1,1.354923248E-1
1.970173446E0,7.035839558E-1,3.280482292E-1,3.821611404E-1
1.980173446E0,6.190510988E-1,2.805807590E-1,6.305379868E-1
1.990173446E0,5.234519243E-1,2.040734291E-1,7.703380585E-1
2.000173446E0,3.164275885E-1,3.713297844E-2,5.372257233E-1
2.010173446E0,7.505229861E-2,-1.784567833E-1,-3.319168091E-2
2.020173446E0,-1.491516083E-2,-3.175983429E-1,-7.378044128E-1
2.030173446E0,6.804611534E-2,-3.742163181E-1,-1.344203949E0
2.040173446E0,1.868764907E-1,-3.607544899E-1,-1.789433002E0
2.050173446E0,2.675290108E-1,-3.139295578E-1,-2.076162338E0
2.060173446E0,3.360457420E-1,-1.523437500E-1,-2.105165958E0
2.070173446E0,3.628189564E-1,1.881453991E-1,-1.839772224E0
2.080173446E0,4.165098667E-1,7.000381947E-1,-1.197730064E0
2.090173446E0,3.893908858E-1,1.298617840E0,-2.817115784E-1
2.100173446E0,3.557788730E-1,1.780719042E0,7.271547318E-1
2.110173446E0,2.962869108E-1,2.012936831E0,1.568289757E0
2.120173446E0,3.765886426E-1,2.027610540E0,2.235633850E0
2.130173446E0,5.920075178E-1,1.845114946E0,2.576426506E0
2.140173446E0,8.156561852E-1,1.539424658E0,2.528350830E0
2.150173446E0,1.046208143E0,1.023080349E0,2.025638580E0
2.160173446E0,1.024581552E0,5.533843040E-1,1.128321648E0
2.170173446E0,8.281507492E-1,6.458258629E-2,8.732223511E-2
2.180173446E0,5.526401997E-1,-3.582019806E-1,-8.705081940E-1
2.190173446E0,4.395456016E-1,-6.917002201E-1,-1.612877846E0
2.200173446E0,3.180578947E-1,-8.971629143E-1,-2.134507179E0
2.210173446E0,4.695352167E-2,-9.766552448E-1,-2.534945488E0
2.220173446E0,-4.264894873E-2,-9.301433563E-1,-2.726732254E0
2.230173446E0,-1.154384613E-1,-9.459226131E-1,-2.951310158E0
2.240173446E0,2.059600353E-1,-6.899240017E-1,-2.599436283E0
2.250173446E0,9.128873050E-2,-8.792066574E-2,-1.720149994E0
2.260173446E0,-4.698336720E-1,7.378032207E-1,-5.857429504E-1
2.270173446E0,-1.111224413E0,1.527708054E0,5.866451263E-1
2.280173446E0,-1.433833361E0,2.032840967E0,1.596689224E0
2.290173446E0,-1.025351763E0,1.956386089E0,2.310017586E0
2.300173446E0,-3.241845071E-1,1.553288221E0,2.717879295E0
2.310173446E0,1.706340909E-1,1.076078653E0,2.634614944E0
2.320173446E0,3.723444045E-1,6.816887856E-1,1.980569839E0
2.330173446E0,3.080630004E-1,3.502304554E-1,1.009407043E0
2.340173446E0,2.247477174E-1,1.961159706E-2,8.244514465E-3
2.350173446E0,2.344684303E-1,-2.904839516E-1,-8.377647400E-1
2.360173446E0,2.285947949E-1,-5.230669975E-1,-1.629315853E0
2.370173446E0,6.983372569E-2,-5.780421495E-1,-2.203825951E0
2.380173446E0,-1.632969826E-1,-4.288177490E-1,-2.526700020E0
2.390173446E0,-2.684814334E-1,-2.109346390E-1,-2.583700657E0
2.400173446E0,-2.876855731E-1,2.713131905E-2,-2.287995815E0
2.410173446E0,-3.314281702E-1,2.224769592E-1,-1.640360355E0
2.420173446E0,-3.678770065E-1,4.577999115E-1,-8.542585373E-1
2.430173446E0,-4.314599633E-1,6.964485645E-1,-5.779838562E-2
2.440173446E0,-4.861501455E-1,8.634192944E-1,5.605211258E-1
2.450173446E0,-4.343534708E-1,9.197342396E-1,8.964929581E-1
2.460173446E0,-2.466857880E-1,9.013416767E-1,1.047101021E0
2.470173446E0,-4.342664778E-2,8.327584267E-1,1.002419472E0
2.480173446E0,8.123318106E-2,6.711094379E-1,7.391786575E-1
2.490173446E0,5.444835126E-2,5.077121258E-1,3.620176315E-1
2.500173446E0,-2.900370955E-2,3.848659992E-1,-7.494735718E-2
2.510173446E0,-8.294883370E-2,3.386652470E-1,-3.113451004E-1
2.520173446E0,-1.188898981E-1,3.867220879E-1,-3.854484558E-1
2.530173446E0,-1.982377321E-1,4.659690857E-1,-4.475708008E-1
2.540173446E0,-2.199098766E-1,5.529291630E-1,-5.488653183E-1
2.550173446E0,-1.679667532E-1,6.615986824E-1,-6.276245117E-1
2.560173446E0,-7.957282662E-2,7.476367950E-1,-6.541900635E-1
2.570173446E0,-4.666382074E-2,8.116354942E-1,-5.816640854E-1
2.580173446E0,-1.062290072E-1,8.772609234E-1,-5.411071777E-1
2.590173446E0,-5.231124163E-2,9.473645687E-1,-6.933021545E-1
2.600173446E0,7.052978873E-2,9.079711437E-1,-9.696016312E-1
2.610173446E0,2.263967991E-1,6.512167454E-1,-1.410599709E0
2.620173446E0,5.482844710E-1,5.415849686E-1,-2.212405205E0
2.630173446E0,6.453747153E-1,5.133807659E-1,-2.184086800E0
2.640173446E0,3.066077828E-1,7.092275620E-1,-1.917368889E0
2.650173446E0,4.722166061E-2,1.052458525E0,-1.463157654E0
2.660173446E0,9.105294943E-3,1.304249287E0,-8.637752533E-1
2.670173446E0,2.065841854E-2,1.390235662E0,-3.034038544E-1
2.680173446E0,-6.520240009E-2,1.364209175E0,2.689361572E-3
2.690173446E0,-2.242886871E-1,1.220631599E0,1.041469574E-1
2.700173446E0,-3.617911935E-1,9.855458736E-1,1.839733124E-2
2.710173446E0,-5.409417152E-1,7.315609455E-1,-8.650684357E-2
2.720173446E0,-8.002194762E-1,6.730511189E-1,-3.113079071E-2
2.730173446E0,-8.572484255E-1,5.600264072E-1,-5.467414856E-3
2.740173446E0,-5.490380526E-1,3.649692535E-1,1.013612747E-1
2.750173446E0,-3.497621715E-1,2.579143047E-1,2.131280899E-1
2.760173446E0,-2.840697765E-1,2.938055992E-1,3.507251740E-1
2.770173446E0,-2.671629786E-1,4.362583160E-1,4.994010925E-1
2.780173446E0,-1.577189416E-1,6.287338734E-1,6.946964264E-1
2.790173446E0,-3.954260051E-1,6.802465916E-1,9.475574493E-1
2.800173446E0,-2.786904573E-1,7.779920101E-1,9.987783432E-1
2.810173446E0,-1.062018126E-1,9.124171734E-1,9.027490616E-1
2.820173446E0,-1.020367593E-1,9.382429123E-1,7.420186996E-1
2.830173446E0,-1.514679492E-1,8.389995098E-1,4.541263580E-1
2.840173446E0,-1.113819480E-1,6.812262535E-1,5.764198303E-2
2.850173446E0,-6.529878080E-2,5.263068676E-1,-3.923988342E-1
2.860173446E0,-1.628474146E-1,5.376584530E-1,-7.325363159E-1
2.870173446E0,-2.466623336E-1,6.905441284E-1,-7.294521332E-1
2.880173446E0,-4.998190999E-1,8.201150894E-1,-5.396099091E-1
2.890173446E0,-4.904521406E-1,9.812881947E-1,-3.230075836E-1
2.900173446E0,-4.075708985E-1,1.033323765E0,-2.146644592E-1
2.910173446E0,-3.822368085E-1,1.029035330E0,-2.021732330E-1
2.920173446E0,-3.720914721E-1,1.059582472E0,-1.651639938E-1
2.930173446E0,-7.188161016E-1,1.060880661E0,-5.209255219E-2
2.940173446E0,-7.631361485E-1,9.190874100E-1,1.740455627E-2
2.950173446E0,-4.476312101E-1,7.609946728E-1,-1.632003784E-1
2.960173446E0,-5.007559061E-1,6.987280846E-1,-4.084758759E-1
2.970173446E0,-7.856788039E-1,8.231632710E-1,-5.011863708E-1
2.980173446E0,-7.882871628E-1,9.201343060E-1,-3.760776520E-1
2.990173446E0,-3.945119381E-1,9.247426987E-1,-2.285451889E-1
3.000173446E0,-3.118566424E-2,9.055123329E-1,-2.681941986E-1
3.010173446E0,8.364820480E-2,8.048498631E-1,-5.454826355E-1
3.020173446E0,4.023721069E-2,6.840305328E-1,-8.874330521E-1
3.030173446E0,-1.249603406E-1,5.995602608E-1,-1.190455437E0
3.040173446E0,-3.458733559E-1,4.693007469E-1,-1.451035500E0
3.050173446E0,-4.959310889E-1,3.053207397E-1,-1.592563152E0
3.060173446E0,-4.286845326E-1,3.414504528E-1,-1.369843483E0
3.070173446E0,-3.107528687E-1,5.878281593E-1,-6.830234528E-1
3.080173446E0,-3.730288148E-1,9.216263294E-1,2.239589691E-1
3.090173446E0,-6.511312127E-1,1.203351498E0,1.016055107E0
3.100173446E0,-9.132884741E-1,1.270949364E0,1.398436546E0
3.110173446E0,-1.067316651E0,1.220921278E0,1.701374054E0
3.120173446E0,-1.066816926E0,1.094210148E0,1.665925980E0
3.130173446E0,-7.214953899E-1,9.551656246E-1,1.281167030E0
3.140173446E0,-3.939829171E-1,7.589926720E-1,4.696493149E-1
3.150173446E0,-7.974146307E-2,4.555726051E-1,-4.897708893E-1
3.160173446E0,-9.348934889E-2,2.377374172E-1,-1.340394020E0
3.170173446E0,-1.855311543E-1,1.271009445E-1,-1.926455975E0
3.180173446E0,-2.512668967E-1,8.527421951E-2,-2.238264084E0
3.190173446E0,-2.391894162E-1,9.038662910E-2,-2.272313118E0
3.200173446E0,-3.555507064E-1,1.977975368E-1,-2.087080956E0
3.210173446E0,-4.529963732E-1,4.367716312E-1,-1.658652306E0
3.220173446E0,-6.195914745E-1,7.410073280E-1,-1.216344833E0
3.230173446E0,-7.866730690E-1,9.437134266E-1,-8.493480682E-1
3.240173446E0,-9.094389677E-1,1.070317745E0,-4.672136307E-1
3.250173446E0,-8.895357251E-1,1.216994047E0,-1.162719727E-2
3.260173446E0,-9.527233243E-1,1.420266390E0,3.678894043E-1
3.270173446E0,-1.118710756E0,1.563037395E0,5.698404312E-1
3.280173446E0,-8.956569433E-1,1.543346167E0,7.243719101E-1
3.290173446E0,-5.985649228E-1,1.286859989E0,5.689477921E-1
3.300173446E0,-3.444467187E-1,8.959298134E-1,1.399602890E-1
3.310173446E0,-3.285836577E-1,4.391298294E-1,-4.236717224E-1
3.320173446E0,-5.971492827E-2,2.766320705E-1,-8.895282745E-1
3.330173446E0,-3.300132155E-1,1.369571686E-1,-1.319236755E0
3.340173446E0,-8.123457432E-1,1.526803970E-1,-1.486592293E0
3.350173446E0,-9.708086848E-1,4.165546894E-1,-1.451657295E0
3.360173446E0,-6.825196743E-1,8.229503632E-1,-1.356615067E0
3.370173446E0,-5.237631798E-1,1.059290648E0,-1.229382515E0
3.380173446E0,-6.697438359E-1,1.114459753E0,-1.002156258E0
3.390173446E0,-8.543210030E-1,1.105225563E0,-7.968606949E-1
3.400173446E0,-9.492055178E-1,1.190585613E0,-3.801898956E-1
3.410173446E0,-6.487803459E-1,1.452699184E0,-9.900054932E-1
3.420173446E0,-3.768469691E-1,1.242461681E0,3.333501816E-1
3.430173446E0,2.126582861E-1,1.081118345E0,7.715396881E-1
3.440173446E0,4.068733454E-1,9.792263508E-1,8.499774933E-1
3.450173446E0,1.584009528E-1,9.876837730E-1,7.537622452E-1
3.460173446E0,-9.055322409E-2,1.135475636E0,4.040336609E-1
3.470173446E0,-2.355344892E-1,1.244863272E0,-5.599212646E-2
3.480173446E0,-2.901833653E-1,1.242914200E0,-4.786739349E-1
3.490173446E0,-2.251442075E-1,1.172575712E0,-9.033336639E-1
3.500173446E0,-1.176215410E-1,1.049014091E0,-1.292350769E0
3.510173446E0,-1.623775363E-1,1.020732641E0,-1.533454895E0
3.520173446E0,-4.414001107E-1,1.082687140E0,-1.483926773E0
3.530173446E0,-8.907485008E-1,1.173967600E0,-1.093032837E0
3.540173446E0,-1.139098763E0,1.283072710E0,-4.566917419E-1
3.550173446E0,-1.179783583E0,1.430766582E0,2.553377151E-1
3.560173446E0,-1.031801939E0,1.574409485E0,9.623050690E-1
3.570173446E0,-8.722974062E-1,1.628531933E0,1.387768745E0
3.580173446E0,-7.268966436E-1,1.476979733E0,1.452386856E0
3.590173446E0,-5.394273996E-1,1.177863836E0,1.148139954E0
3.600173446E0,-4.368216991E-1,8.637070656E-1,5.625715256E-1
3.610173446E0,-4.376186728E-1,5.498077869E-1,-1.958055496E-1
3.620173446E0,-3.827959597E-1,3.592023849E-1,-8.494205475E-1
3.630173446E0,-3.335076571E-1,3.821561337E-1,-1.267811775E0
3.640173446E0,-2.956398427E-1,4.098052979E-1,-1.438102245E0
3.650173446E0,-4.853381217E-1,4.869182110E-1,-1.533380985E0
3.660173446E0,-6.043511629E-1,5.591833591E-1,-1.549983978E0
3.670173446E0,-7.554803491E-1,6.711130142E-1,-1.374773979E0
3.680173446E0,-1.094025016E0,8.715381622E-1,-1.172864914E0
3.690173446E0,-1.267961860E0,9.965314865E-1,-1.093597412E0
3.700173446E0,-1.439784884E0,1.080713749E0,-9.838066101E-1
3.710173446E0,-1.380484223E0,1.197726488E0,-5.839643478E-1
3.720173446E0,-1.344391465E0,1.245502234E0,-1.383333206E-1
3.730173446E0,-1.188479185E0,1.110005856E0,1.829738617E-1
3.740173446E0,-1.561821222E0,1.287118435E0,4.829683304E-1
3.750173446E0,-1.712175727E0,1.413012743E0,6.788501740E-1
3.760173446E0,-1.485234380E0,1.449384451E0,7.167158127E-1
3.770173446E0,-1.036527514E0,1.275151968E0,8.573169708E-1
3.780173446E0,-7.233874798E-1,9.485261440E-1,8.377990723E-1
3.790173446E0,-4.994077086E-1,6.362984180E-1,6.027746201E-1
3.800173446E0,-6.483848095E-1,5.597672462E-1,1.200981140E-1
3.810173446E0,-8.776152730E-1,5.582568645E-1,-4.080448151E-1
3.820173446E0,-9.271311760E-1,5.173492432E-1,-8.243026733E-1
3.830173446E0,-8.465840816E-1,3.907430172E-1,-1.231548309E0
3.840173446E0,-6.919756532E-1,3.434367180E-1,-1.451289177E0
3.850173446E0,-5.740789771E-1,5.844588280E-1,-1.595581055E0
3.860173446E0,-5.268313885E-1,9.560716152E-1,-1.562639236E0
3.870173446E0,-4.934090972E-1,1.303450823E0,-1.303318024E0
3.880173446E0,-4.563841224E-1,1.555599689E0,-9.583473206E-1
3.890173446E0,-5.203882456E-1,1.658552647E0,-6.035690308E-1
3.900173446E0,-7.031344771E-1,1.628393173E0,-1.652021408E-1
3.910173446E0,-9.849546552E-1,1.588557720E0,2.851657867E-1
3.920173446E0,-1.226965070E0,1.453731298E0,5.820198059E-1
3.930173446E0,-1.209682584E0,1.486274004E0,7.485046387E-1
3.940173446E0,-1.110108018E0,1.415341854E0,7.320432663E-1
3.950173446E0,-1.086246729E0,1.316424370E0,5.511655807E-1
3.960173446E0,-9.565178156E-1,1.148298264E0,3.652439117E-1
3.970173446E0,-8.538008332E-1,9.188811779E-1,2.679080963E-1
3.980173446E0,-8.321175575E-1,8.381443024E-1,1.554260254E-1
3.990173446E0,-8.706178665E-1,8.631017208E-1,-2.126026154E-2
4.000173446E0,-9.179140329E-1,9.321331978E-1,-2.832288742E-1
4.010173446E0,-9.485023022E-1,9.764535427E-1,-4.299631119E-1
4.020173446E0,-8.524724245E-1,1.019571304E0,-6.590700150E-1
4.030173446E0,-7.917016745E-1,9.214046001E-1,-9.645833969E-1
4.040173446E0,-7.448059320E-1,8.939089775E-1,-1.257436752E0
4.050173446E0,-6.791138053E-1,9.004273415E-1,-1.548380375E0
4.060173446E0,-6.032327414E-1,8.338727951E-1,-1.771823883E0
4.070173446E0,-8.271942139E-1,8.536107540E-1,-1.715951920E0
4.080173446E0,-7.521405220E-1,8.151140213E-1,-1.492212296E0
4.090173446E0,-9.765688777E-1,9.305136204E-1,-1.163691521E0
4.100173446E0,-1.142201662E0,1.026891947E0,-9.435243607E-1
4.110173446E0,-1.065675259E0,1.067375898E0,-4.195432663E-1
4.120173446E0,-1.040231466E0,9.447705746E-1,-4.499435425E-2
4.130173446E0,-1.423154950E0,8.469197750E-1,1.805505753E-1
4.140173446E0,-1.857633829E0,7.902109623E-1,1.394481659E-1
4.150173446E0,-1.820064545E0,7.265605927E-1,9.103775024E-2
4.160173446E0,-1.778458953E0,7.013921738E-1,1.420221329E-1
4.170173446E0,-1.732694864E0,5.829999447E-1,1.999063492E-1
4.180173446E0,-1.705874205E0,5.500836372E-1,1.623373032E-1
4.190173446E0,-1.554646969E0,6.449172497E-1,-1.045894623E-2
4.200173446E0,-1.342470407E0,6.689159870E-1,-2.527894974E-1
4.210173446E0,-1.088280201E0,5.930123329E-1,-4.617843628E-1
4.220173446E0,-9.619031549E-1,6.645166874E-1,-6.629085541E-1
4.230173446E0,-9.945386052E-1,8.209302425E-1,-1.025816917E0
4.240173446E0,-1.060201883E0,9.647297859E-1,-1.220203400E0
4.250173446E0,-1.160627007E0,1.012472391E0,-1.443230629E0
4.260173446E0,-1.208132505E0,9.247860909E-1,-1.516125679E0
4.270173446E0,-1.353980541E0,1.178007364E0,-1.261079788E0
4.280173446E0,-1.564620733E0,1.293435812E0,-1.004565239E0
4.290173446E0,-1.612984657E0,1.250476837E0,-7.111644745E-1
4.300173446E0,-1.595841765E0,1.161752939E0,-4.740238190E-1
4.310173446E0,-1.655826330E0,1.191172361E0,-3.584327698E-1
4.320173446E0,-1.766981125E0,1.331818104E0,-2.413988113E-1
4.330173446E0,-1.731697559E0,1.259017706E0,-1.902036667E-1
4.340173446E0,-1.358540773E0,1.151298761E0,-1.880149841E-1
4.350173446E0,-1.235855341E0,1.001289129E0,-1.600351334E-1
4.360173446E0,-1.174667239E0,7.707293034E-1,-1.122884750E-1
4.370173446E0,-1.226516485E0,5.484623909E-1,1.448040009E-1
4.380173446E0,-1.569372892E0,6.107032299E-1,3.029880524E-1
4.390173446E0,-1.322590113E0,7.194504738E-1,5.820112228E-1
4.400173446E0,-1.174925566E0,7.793748379E-1,6.482295990E-1
4.410173446E0,-1.224895239E0,8.547606468E-1,4.245338440E-1
4.420173446E0,-1.163919687E0,9.247581959E-1,1.728868484E-1
4.430173446E0,-1.078611970E0,9.662594795E-1,-1.175212860E-2
4.440173446E0,-1.109189749E0,9.641609192E-1,-1.453075409E-1
4.450173446E0,-1.180466652E0,9.144065380E-1,-2.423410416E-1
4.460173446E0,-1.308719754E0,9.693114758E-1,-4.199991226E-1
4.470173446E0,-1.367482066E0,9.470503330E-1,-6.283330917E-1
4.480173446E0,-1.470005751E0,9.099621773E-1,-6.887073517E-1
4.490173446E0,-1.451508760E0,9.473459721E-1,-6.567478180E-1
4.500173446E0,-1.306832910E0,9.781041145E-1,-5.976276398E-1
4.510173446E0,-1.143385410E0,9.443252087E-1,-4.141607285E-1
4.520173446E0,-9.780808687E-1,8.851423264E-1,-1.849460602E-1
4.530173446E0,-1.181580901E0,9.273295403E-1,2.265167236E-2
4.540173446E0,-1.289305449E0,9.958598614E-1,2.300672531E-1
4.550173446E0,-1.236800075E0,9.782760143E-1,2.895555496E-1
4.560173446E0,-1.137635946E0,8.457725048E-1,1.191329956E-1
4.570173446E0,-1.030724525E0,7.148315907E-1,-1.837654114E-1
4.580173446E0,-1.074775219E0,6.386406422E-1,-4.519891739E-1
4.590173446E0,-1.218290329E0,6.883420944E-1,-5.018043518E-1
4.600173446E0,-1.293074846E0,7.612407207E-1,-3.298606873E-1
4.610173446E0,-1.389081955E0,9.089195728E-1,-1.057415009E-1
4.620173446E0,-1.327703834E0,9.922342300E-1,4.847526550E-3
4.630173446E0,-1.208386660E0,9.185466766E-1,1.208400726E-1
4.640173446E0,-1.059226990E0,7.062633038E-1,9.991550446E-2
4.650173446E0,-9.332414865E-1,5.002148151E-1,-1.319665909E-1
4.660173446E0,-7.617897987E-1,3.210902214E-1,-3.448162079E-1
4.670173446E0,-7.049348950E-1,2.349176407E-1,-5.580720901E-1
4.680173446E0,-9.181243777E-1,2.035386562E-1,-6.795206070E-1
4.690173446E0,-9.724391103E-1,3.366796970E-1,-6.952629089E-1
4.700173446E0,-9.897167087E-1,5.155014992E-1,-6.296567917E-1
4.710173446E0,-9.768897891E-1,5.951454639E-1,-5.733890533E-1
4.720173446E0,-1.121029973E0,6.923260689E-1,-5.267143250E-1
4.730173446E0,-1.212054729E0,7.818069458E-1,-4.231529236E-1
4.740173446E0,-1.299447179E0,7.385382652E-1,-3.985090256E-1
4.750173446E0,-1.089587688E0,5.674409866E-1,-3.280315399E-1
4.760173446E0,-8.115496039E-1,4.711709023E-1,-2.211074829E-1
4.770173446E0,-6.446849108E-1,4.243795872E-1,-1.630115509E-2
4.780173446E0,-7.601107359E-1,4.681584835E-1,8.678722382E-2
4.790173446E0,-7.728928328E-1,5.451583862E-1,1.487483978E-1
4.800173446E0,-7.160372734E-1,5.354928970E-1,1.165819168E-1
4.810173446E0,-4.960227013E-1,4.307186604E-1,2.312374115E-2
4.820173446E0,-2.998554707E-1,3.296518326E-1,-1.455965042E-1
4.830173446E0,-3.634392023E-1,2.413144112E-1,-3.177976608E-1
4.840173446E0,-5.344125032E-1,1.439106464E-1,-4.998817444E-1
4.850173446E0,-7.069784403E-1,9.165096283E-2,-5.968809128E-1
4.860173446E0,-9.371950626E-1,1.445679665E-1,-4.775199890E-1
4.870173446E0,-1.249232292E0,3.156189919E-1,-1.502609253E-1
4.880173446E0,-1.345749855E0,5.484409332E-1,3.408756256E-1
4.890173446E0,-1.279947877E0,6.742529869E-1,6.312580109E-1
4.900173446E0,-9.876595736E-1,6.290621758E-1,7.087011337E-1
4.910173446E0,-7.165120840E-1,4.743375778E-1,6.326160431E-1
4.920173446E0,-5.572295189E-1,3.207378387E-1,4.725408554E-1
4.930173446E0,-5.566885471E-1,2.430880070E-1,3.759450912E-1
4.940173446E0,-6.386984587E-1,2.228055000E-1,3.244447708E-1
4.950173446E0,-7.018203735E-1,2.040011883E-1,3.240108490E-1
4.960173446E0,-7.920701504E-1,2.240350246E-1,4.051704407E-1
4.970173446E0,-8.877825737E-1,3.034820557E-1,4.741592407E-1
4.980173446E0,-7.690787315E-1,4.146108627E-1,5.047607422E-1
4.990173446E0,-4.567463398E-1,4.600262642E-1,3.376426697E-1
5.000173446E0,-2.026338577E-1,3.118474483E-1,5.658340454E-2
5.010173446E0,-1.397542953E-1,8.752441406E-2,-3.026943207E-1
5.020173446E0,-1.055248976E-1,-1.440520287E-1,-5.528507233E-1
5.030173446E0,-1.875288486E-1,-9.680032730E-2,-5.438013077E-1
5.040173446E0,-3.377314806E-1,1.104760170E-1,-3.301591873E-1
5.050173446E0,-5.062466860E-1,3.528039455E-1,-3.030958176E-1
5.060173446E0,-5.286018848E-1,4.597053528E-1,-4.733142853E-1
5.070173446E0,-3.424218893E-1,3.780698776E-1,-6.181364059E-1
5.080173446E0,-3.322550058E-1,2.147707939E-1,-6.971111298E-1
5.090173446E0,-1.953617334E-1,1.754593849E-1,-6.877374649E-1
5.100173446E0,-3.358376026E-1,2.276680470E-1,-4.786043167E-1
5.110173446E0,-4.568704367E-1,2.187852859E-1,-2.201728821E-1
5.120173446E0,-5.307630301E-1,2.127461433E-1,2.193260193E-2
5.130173446E0,-6.222002506E-1,2.710428238E-1,3.513631821E-1
5.140173446E0,-7.068279982E-1,3.161656857E-1,6.738710403E-1
5.150173446E0,-8.390492201E-1,3.761413097E-1,8.195877075E-1
5.160173446E0,-7.602994442E-1,3.022491932E-1,8.874349594E-1
5.170173446E0,-5.293129683E-1,1.219561100E-1,8.339519501E-1
5.180173446E0,-3.222582340E-1,-1.129577160E-1,6.306743622E-1
5.190173446E0,-2.426854372E-1,-2.414305210E-1,2.626047134E-1
5.200173446E0,-1.745232344E-1,-2.619907856E-1,-1.254940033E-1
5.210173446E0,7.910609245E-3,-2.510545254E-1,-4.678592682E-1
5.220173446E0,1.510084867E-1,-2.539730072E-1,-7.935581207E-1
5.230173446E0,3.764433861E-1,-3.092896938E-1,-1.004965782E0
5.240173446E0,1.341599226E-1,-2.406179905E-1,-1.278790474E0
5.250173446E0,6.877279282E-2,9.196138382E-2,-1.345567226E0
5.260173446E0,1.680469513E-2,3.832592964E-1,-1.214658737E0
5.270173446E0,-9.337139130E-2,5.305070877E-1,-1.028218269E0
5.280173446E0,-2.933266163E-1,5.436012745E-1,-8.257026672E-1
5.290173446E0,-5.264403820E-1,4.986045361E-1,-6.227865219E-1
5.300173446E0,-7.758001089E-1,3.920488358E-1,-4.633483887E-1
5.310173446E0,-9.421535730E-1,2.461740971E-1,-3.104553223E-1
5.320173446E0,-9.452584982E-1,1.228978634E-1,-1.034708023E-1
5.330173446E0,-9.193675518E-1,-7.058238983E-2,1.350440979E-1
5.340173446E0,-9.096434116E-1,-2.015025616E-1,4.410572052E-1
5.350173446E0,-9.496403933E-1,-2.161710262E-1,6.741390228E-1
5.360173446E0,-9.027508497E-1,-1.804971695E-1,8.781366348E-1
5.370173446E0,-8.202813864E-1,-1.953487396E-1,1.027399063E0
5.380173446E0,-7.142901421E-1,-2.073442936E-1,9.805841446E-1
5.390173446E0,-4.476301670E-1,-2.499074936E-1,7.937555313E-1
5.400173446E0,-1.581339836E-1,-3.337960243E-1,5.149545670E-1
5.410173446E0,-1.947915554E-2,-3.871510029E-1,1.758985519E-1
5.420173446E0,6.086516380E-2,-3.800837994E-1,-1.748809814E-1
5.430173446E0,5.029618740E-2,-3.360342979E-1,-4.886713028E-1
5.440173446E0,-2.825212479E-2,-3.099014759E-1,-7.759227753E-1
5.450173446E0,-1.585159302E-1,-2.769155502E-1,-1.030653000E0
5.460173446E0,-3.580563068E-1,-2.524430752E-1,-1.192130089E0
5.470173446E0,-5.883241892E-1,-2.228443623E-1,-1.165301323E0
5.480173446E0,-8.254548311E-1,-1.716597080E-1,-9.389200211E-1
5.490173446E0,-1.001047611E0,-1.069395542E-1,-4.938211441E-1
5.500173446E0,-1.012027383E0,-4.188013077E-2,1.368417740E-1
5.510173446E0,-8.695843220E-1,-5.654478073E-2,7.386713028E-1
5.520173446E0,-7.813227177E-1,-1.197745800E-1,1.134114265E0
5.530173446E0,-7.762182951E-1,-1.648757458E-1,1.017991066E0
5.540173446E0,-7.077194452E-1,-2.671849728E-1,9.431037903E-1
5.550173446E0,-4.818860292E-1,-4.159631729E-1,9.081268311E-1
5.560173446E0,-2.621448040E-1,-5.375895500E-1,8.516473770E-1
5.570173446E0,-2.456800938E-1,-5.728170872E-1,7.973423004E-1
5.580173446E0,-3.992756605E-1,-5.286605358E-1,8.174657822E-1
5.590173446E0,-5.378838778E-1,-4.244525433E-1,7.537651062E-1
5.600173446E0,-5.676326752E-1,-2.471625805E-1,7.179794312E-1
5.610173446E0,-5.163158178E-1,-1.708793640E-2,6.475124359E-1
5.620173446E0,-4.282914400E-1,2.402205467E-1,3.986024857E-1
5.630173446E0,-4.084538221E-1,2.798664570E-1,2.051973343E-1
5.640173446E0,-5.008358955E-1,1.744382381E-1,7.690715790E-2
5.650173446E0,-5.211521387E-1,-5.509376526E-3,-2.571296692E-2
5.660173446E0,-4.695922136E-1,-1.703877449E-1,-4.042787552E-1
5.670173446E0,-4.128286839E-1,-3.125491142E-1,-8.791503906E-1
5.680173446E0,-3.741211891E-1,-4.330844879E-1,-1.244210243E0
5.690173446E0,-4.357166290E-1,-5.345354080E-1,-1.348442078E0
5.700173446E0,-6.050786972E-1,-5.873854160E-1,-1.273636818E0
5.710173446E0,-8.394459486E-1,-6.041371822E-1,-9.669542313E-1
5.720173446E0,-1.033056974E0,-6.217660904E-1,-5.224485397E-1
5.730173446E0,-1.115930319E0,-6.222951412E-1,-1.393508911E-2
5.740173446E0,-1.138359070E0,-5.748841763E-1,5.554456711E-1
5.750173446E0,-1.036673069E0,-4.102783203E-1,1.233164787E0
5.760173446E0,-8.515797853E-1,-1.963756084E-1,1.758160591E0
5.770173446E0,-7.086682320E-1,3.803992271E-2,1.852542877E0
5.780173446E0,-3.936847448E-1,8.240675926E-2,1.480549812E0
5.790173446E0,-4.233241081E-2,-1.175346375E-1,9.329404831E-1
5.800173446E0,2.222458124E-1,-4.131145477E-1,1.496105194E-1
5.810173446E0,2.076518536E-1,-6.822493076E-1,-5.777988434E-1
5.820173446E0,1.713129282E-1,-8.387484550E-1,-1.119894028E0
5.830173446E0,1.008480787E-1,-8.049838543E-1,-1.586673737E0
5.840173446E0,-9.298682213E-2,-6.405990124E-1,-1.792581558E0
5.850173446E0,-4.858254194E-1,-4.415676594E-1,-1.683612823E0
5.860173446E0,-8.589315414E-1,-2.417523861E-1,-1.328361511E0
5.870173446E0,-9.950462580E-1,-4.617357254E-2,-8.731336594E-1
5.880173446E0,-9.988247156E-1,1.118130684E-1,-3.519783020E-1
5.890173446E0,-1.096282601E0,1.330277920E-1,1.338872910E-1
5.900173446E0,-1.129659534E0,-3.176689148E-2,5.724430084E-1
5.910173446E0,-9.696767330E-1,-2.998642921E-1,8.405275345E-1
5.920173446E0,-7.358899117E-1,-4.845511913E-1,9.273881912E-1
5.930173446E0,-5.687568188E-1,-5.710463524E-1,8.168611526E-1
5.940173446E0,-3.525505066E-1,-5.846924782E-1,6.617813110E-1
5.950173446E0,-2.053178549E-1,-5.983011723E-1,4.422693253E-1
5.960173446E0,-2.000648975E-1,-6.099565029E-1,1.367082596E-1
5.970173446E0,-2.210193872E-1,-6.291949749E-1,-1.517038345E-1
5.980173446E0,-2.517166138E-1,-5.639383793E-1,-3.593759537E-1
5.990173446E0,-2.953023911E-1,-3.925919533E-1,-3.521156311E-1
6.000173446E0,-4.978350401E-1,-1.741211414E-1,-1.776800156E-1
6.010173446E0,-7.895580530E-1,2.411770821E-2,1.310920715E-2
6.020173446E0,-9.776567221E-1,2.126240730E-1,2.336988449E-1
6.030173446E0,-1.007292628E0,2.592988014E-1,4.204673767E-1
6.040173446E0,-9.065577984E-1,7.949066162E-2,4.042329788E-1
6.050173446E0,-7.594870329E-1,-1.873722076E-1,3.131513596E-1
6.060173446E0,-6.967890263E-1,-4.251668453E-1,3.778133392E-1
6.070173446E0,-6.620370150E-1,-5.424616337E-1,6.438474655E-1
6.080173446E0,-6.250207424E-1,-4.996020794E-1,9.258394241E-1
6.090173446E0,-6.009454727E-1,-3.817961216E-1,9.506635666E-1
6.100173446E0,-4.808208942E-1,-3.577785492E-1,7.530164719E-1
6.110173446E0,-2.809972763E-1,-5.256483555E-1,3.269138336E-1
6.120173446E0,-1.190524101E-1,-7.375431061E-1,-1.081752777E-1
6.130173446E0,-1.103535891E-1,-7.933132648E-1,-3.643913269E-1
6.140173446E0,-3.523445129E-1,-6.386425495E-1,-3.279838562E-1
6.150173446E0,-8.018019199E-1,-3.660843372E-1,-1.156873703E-1
6.160173446E0,-1.059851885E0,-8.439064026E-2,1.865482330E-1
6.170173446E0,-9.891312122E-1,9.676527977E-2,3.556642532E-1
6.180173446E0,-8.301055431E-1,1.231272221E-1,4.274587631E-1
6.190173446E0,-6.763386726E-1,-8.588957787E-2,4.392786026E-1
6.200173446E0,-4.290454388E-1,-3.908526897E-1,3.446264267E-1
6.210173446E0,-1.885486841E-1,-5.907094479E-1,5.031776428E-2
6.220173446E0,-2.374699116E-1,-6.240985394E-1,-3.648729324E-1
6.230173446E0,-4.070521593E-1,-5.896735191E-1,-7.575626373E-1
6.240173446E0,-5.066825151E-1,-6.405222416E-1,-8.667945862E-1
6.250173446E0,-6.777637005E-1,-6.685533524E-1,-6.528873444E-1
6.260173446E0,-9.646594524E-1,-5.118322372E-1,-2.298069000E-1
6.270173446E0,-1.182081938E0,-2.415907383E-1,5.854415894E-2
6.280173446E0,-1.324590445E0,-7.176828384E-2,3.772153854E-1
6.290173446E0,-1.253393054E0,8.081698418E-2,7.126150131E-1
6.300173446E0,-1.099987745E0,2.041089535E-1,8.348999023E-1
6.310173446E0,-9.955575466E-1,2.131862640E-1,8.548755646E-1
6.320173446E0,-7.865880728E-1,8.233737946E-2,7.668609619E-1
6.330173446E0,-4.818419218E-1,-2.067813873E-1,3.843183517E-1
6.340173446E0,-1.430372000E-1,-5.367200375E-1,-2.508802414E-1
6.350173446E0,1.928739548E-1,-7.682054043E-1,-8.286266327E-1
6.360173446E0,3.902238607E-1,-8.255741596E-1,-1.213077545E0
6.370173446E0,2.904719114E-1,-6.726005077E-1,-1.329755306E0
6.380173446E0,3.765857220E-2,-3.537254333E-1,-1.214670181E0
6.390173446E0,-3.510997295E-1,-7.728147507E-2,-9.408216476E-1
6.400173446E0,-7.418019772E-1,1.594913006E-1,-3.841114044E-1
6.410173446E0,-1.110002637E0,3.383677006E-1,1.265277863E-1
6.420173446E0,-1.267958403E0,3.959312439E-1,3.850936890E-1
6.430173446E0,-1.137878418E0,2.552962303E-1,5.602016449E-1
6.440173446E0,-8.622246981E-1,5.005455017E-2,7.197475433E-1
6.450173446E0,-6.934342384E-1,-1.543433666E-1,8.716459274E-1
6.460173446E0,-7.094416618E-1,-2.574067116E-1,1.035377502E0
6.470173446E0,-7.336413860E-1,-2.335765362E-1,1.241442680E0
6.480173446E0,-7.588696480E-1,-1.286473274E-1,1.516440392E0
6.490173446E0,-7.263681889E-1,-5.018186569E-2,1.830311775E0
6.500173446E0,-8.217117786E-1,5.120873451E-2,2.218729019E0
6.510173446E0,-1.088576674E0,1.959547997E-1,2.656760216E0
6.520173446E0,-1.185593367E0,2.943224907E-1,2.931005478E0
6.530173446E0,-1.067165375E0,3.551657200E-1,2.735539436E0
6.540173446E0,-8.431149721E-1,4.023883343E-1,2.046868324E0
6.550173446E0,-6.920975447E-1,2.983536720E-1,1.005745888E0
6.560173446E0,-4.662239552E-1,-1.246428490E-2,-2.392616272E-1
6.570173446E0,-2.762567997E-2,-4.374577999E-1,-1.452658653E0
6.580173446E0,2.935200930E-1,-7.910294533E-1,-2.572083950E0
6.590173446E0,2.293418646E-1,-1.141218424E0,-3.456912041E0
6.600173446E0,3.415499926E-1,-1.329658031E0,-4.334273815E0
6.610173446E0,1.015623808E-1,-1.307117224E0,-4.287520409E0
6.620173446E0,-4.614195824E-1,-9.340538979E-1,-4.090058327E0
6.630173446E0,-5.768326521E-1,7.354712486E-2,-3.177507401E0
6.640173446E0,-1.048590302E0,7.468271255E-1,-1.963153839E0
6.650173446E0,-1.906726360E0,1.208649874E0,-6.528968811E-1
6.660173446E0,-2.583047628E0,1.590960503E0,6.976594925E-1
6.670173446E0,-2.893911362E0,1.782246113E0,2.009708405E0
6.680173446E0,-2.692033529E0,1.538400412E0,2.886154175E0
6.690173446E0,-2.425998688E0,1.038582563E0,3.181482315E0
6.700173446E0,-1.681275964E0,2.761740685E-1,2.837848663E0
6.710173446E0,-1.578893900E0,-6.629376411E-1,2.113342285E0
6.720173446E0,-1.512688518E0,-1.368730187E0,1.192077637E0
6.730173446E0,-1.160468698E0,-1.677659750E0,2.307434082E-1
6.740173446E0,-7.534883022E-1,-1.631718159E0,-6.721544266E-1
6.750173446E0,-5.145841837E-1,-1.475929976E0,-1.461143017E0
6.760173446E0,-4.014008045E-1,-1.253299236E0,-2.047444820E0
6.770173446E0,-3.703703880E-1,-8.115298748E-1,-2.362542152E0
6.780173446E0,-4.321448803E-1,-1.709220409E-1,-2.284762383E0
6.790173446E0,-7.051286697E-1,4.780342579E-1,-1.864197731E0
6.800173446E0,-1.023038030E0,8.337161541E-1,-1.265873909E0
6.810173446E0,-1.229431987E0,9.377825260E-1,-6.968736649E-1
6.820173446E0,-1.261154175E0,8.465692997E-1,-3.428564072E-1
6.830173446E0,-1.065604687E0,5.979583263E-1,-1.490964890E-1
6.840173446E0,-8.338598013E-1,1.994829178E-1,-2.461605072E-1
6.850173446E0,-6.564186811E-1,-1.831250191E-1,-4.343767166E-1
6.860173446E0,-6.487394571E-1,-4.147801399E-1,-5.571441650E-1
6.870173446E0,-8.079392910E-1,-4.803910255E-1,-4.771595001E-1
6.880173446E0,-1.102281332E0,-4.061589241E-1,-2.313594818E-1
6.890173446E0,-1.366198897E0,-3.006680012E-1,2.956924438E-1
6.900173446E0,-1.540205836E0,-1.946580410E-1,8.482170105E-1
6.910173446E0,-1.492448926E0,-1.017670631E-1,1.398394585E0
6.920173446E0,-1.352582455E0,-1.019098759E-1,1.908565521E0
6.930173446E0,-1.360875845E0,-1.226930618E-1,2.278668404E0
6.940173446E0,-1.479572415E0,-9.624767303E-2,2.457842827E0
6.950173446E0,-1.598365307E0,-6.443881989E-2,2.486510277E0
6.960173446E0,-1.625487089E0,3.466629982E-2,2.321909904E0
6.970173446E0,-1.484120727E0,1.512408257E-1,1.914213181E0
6.980173446E0,-1.269348264E0,1.417915821E-1,1.318137169E0
6.990173446E0,-1.103616714E0,4.025268555E-2,6.370162964E-1
7.000173446E0,-1.032402039E0,-7.126498222E-2,-3.827095032E-3
7.010173446E0,-9.584091902E-1,-9.509444237E-2,-5.677051544E-1
7.020173446E0,-9.392863512E-1,-1.014318466E-1,-9.702148438E-1
7.030173446E0,-9.508709908E-1,-1.753222942E-1,-1.258738518E0
7.040173446E0,-1.000918746E0,-2.896027565E-1,-1.399553776E0
7.050173446E0,-1.293581963E0,-2.053270340E-1,-1.248746872E0
7.060173446E0,-1.436066151E0,-1.836400032E-1,-8.453388214E-1
7.070173446E0,-1.477225780E0,-2.842211723E-1,-2.270345688E-1
7.080173446E0,-1.646210670E0,-1.672270298E-1,3.486986160E-1
7.090173446E0,-1.763308287E0,1.245808601E-2,7.331171036E-1
7.100173446E0,-1.583955288E0,4.692220688E-2,8.320713043E-1
7.110173446E0,-1.475005031E0,-2.342731953E-1,6.974906921E-1
7.120173446E0,-1.347587824E0,-6.245174408E-1,4.355421066E-1
7.130173446E0,-1.404267788E0,-7.802295685E-1,2.338199615E-1
7.140173446E0,-1.656923413E0,-6.928973198E-1,1.062507629E-1
7.150173446E0,-1.819068193E0,-5.470714569E-1,-1.058578491E-4
7.160173446E0,-1.727723122E0,-4.648845196E-1,-1.516418457E-1
7.170173446E0,-1.459960818E0,-4.536499977E-1,-2.306089401E-1
7.180173446E0,-1.196631432E0,-4.270310402E-1,-1.847286224E-1
7.190173446E0,-1.080075502E0,-3.964555264E-1,-5.795955658E-2
7.200173446E0,-1.093035817E0,-3.674557209E-1,1.015424728E-1
7.210173446E0,-1.175930500E0,-3.728611469E-1,8.333301544E-2
7.220173446E0,-1.142438412E0,-3.649754524E-1,-1.502037048E-1
7.230173446E0,-1.138076663E0,-3.335235119E-1,-4.196596146E-1
7.240173446E0,-1.218388677E0,-2.863886356E-1,-4.594879150E-1
7.250173446E0,-1.355054259E0,-2.719621658E-1,-1.859416962E-1
7.260173446E0,-1.560381293E0,-2.940971851E-1,2.719669342E-1
7.270173446E0,-1.778259277E0,-2.992191315E-1,7.555236816E-1
7.280173446E0,-1.896682978E0,-3.089654446E-1,1.164947510E0
7.290173446E0,-1.922649860E0,-2.839188576E-1,1.535865784E0
7.300173446E0,-1.877969623E0,-2.710387707E-1,1.633962631E0
7.310173446E0,-1.601412177E0,-3.612403870E-1,1.480698586E0
7.320173446E0,-1.319823980E0,-5.423338413E-1,1.090990067E0
7.330173446E0,-1.294127822E0,-7.216703892E-1,5.103511810E-1
7.340173446E0,-1.126111150E0,-1.021914959E0,-4.511642456E-2
7.350173446E0,-9.576094151E-1,-1.047883987E0,-4.269495010E-1
7.360173446E0,-1.240268350E0,-7.513568401E-1,-6.867990494E-1
7.370173446E0,-1.600700617E0,-2.244975567E-1,-5.983133316E-1
7.380173446E0,-1.710990906E0,2.736186981E-2,-5.357646942E-2
7.390173446E0,-1.723772049E0,1.144132614E-1,6.888475418E-1
7.400173446E0,-1.874653935E0,2.293715477E-1,1.060311317E0
7.410173446E0,-1.736782670E0,1.025044918E-1,8.756465912E-1
7.420173446E0,-1.194551349E0,-3.645322323E-1,1.879415512E-1
7.430173446E0,-8.048708439E-1,-8.505883217E-1,-6.138057709E-1
7.440173446E0,-8.132886887E-1,-1.063578367E0,-1.464067459E0
7.450173446E0,-9.512095451E-1,-1.031103849E0,-2.009962082E0
7.460173446E0,-1.041155457E0,-9.445137978E-1,-2.328513145E0
7.470173446E0,-1.120918989E0,-8.393230438E-1,-2.350424767E0
7.480173446E0,-1.557942510E0,-6.416952610E-1,-1.964280128E0
7.490173446E0,-2.006483316E0,-2.349946499E-1,-1.249859810E0
7.500173446E0,-2.257241726E0,1.585988998E-1,-2.485780716E-1
7.510173446E0,-2.436045170E0,3.857574463E-1,4.043235779E-1
7.520173446E0,-3.615362883E0,-8.840630054E-1,2.460991859E0
7.530173446E0,-1.391685128E0,5.376172066E-1,1.234040260E0
7.540173446E0,-1.936289549E0,-1.002431631E0,1.151112556E0
7.550173446E0,-1.896680117E0,-2.232315540E-1,5.179834366E-1
7.560173446E0,-1.817196012E0,-6.890318394E-1,5.729541779E-1
7.570173446E0,-1.403833270E0,-8.155307770E-1,4.511899948E-1
7.580173446E0,-1.158130169E0,-8.600893021E-1,3.009614944E-1
7.590173446E0,-1.356000185E0,-8.775017262E-1,2.655029297E-2
7.600173446E0,-1.655107975E0,-5.118336678E-1,3.933715820E-2
7.610173446E0,-1.947670937E0,-1.705381870E-1,3.790111542E-1
7.620173446E0,-2.197151184E0,-8.436155319E-2,7.948818207E-1
7.630173446E0,-2.225435972E0,-2.278313637E-1,9.269914627E-1
7.640173446E0,-2.003981590E0,-4.024641514E-1,1.157482147E0
7.650173446E0,-1.648564696E0,-6.130788326E-1,1.010684967E0
7.660173446E0,-1.303686857E0,-6.821022034E-1,6.606903076E-1
7.670173446E0,-1.080907702E0,-7.004301548E-1,1.111478806E-1
7.680173446E0,-8.402817249E-1,-6.882109642E-1,-3.133001328E-1
7.690173446E0,-6.386698484E-1,-7.122542858E-1,-6.723451614E-1
7.700173446E0,-6.867532730E-1,-6.341171265E-1,-9.360914230E-1
7.710173446E0,-8.770263195E-1,-4.818775654E-1,-7.909584045E-1
7.720173446E0,-1.170776963E0,-4.235761166E-1,-3.173170090E-1
7.730173446E0,-1.452163815E0,-5.134255886E-1,1.403522491E-2
7.740173446E0,-1.553397655E0,-6.922254562E-1,3.702163696E-3
7.750173446E0,-1.530737519E0,-8.250241280E-1,-1.849374771E-1
7.760173446E0,-1.502370477E0,-8.707439899E-1,-2.707662582E-1
7.770173446E0,-1.519188046E0,-8.940789700E-1,-3.788089752E-1
7.780173446E0,-1.404274702E0,-9.146640301E-1,-5.154561996E-1
7.790173446E0,-1.225176573E0,-8.523278236E-1,-6.824512482E-1
7.800173446E0,-1.079721928E0,-6.910758018E-1,-8.516387939E-1
7.810173446E0,-1.456243157E0,-5.434975624E-1,-1.026883125E0
7.820173446E0,-1.651547670E0,-3.932485580E-1,-1.138398647E0
7.830173446E0,-1.827309608E0,-4.449551105E-1,-1.298914909E0
7.840173446E0,-1.713401198E0,-6.833374500E-1,-1.480690956E0
7.850173446E0,-1.420509815E0,-8.337571621E-1,-1.624650002E0
7.860173446E0,-1.572189331E0,-8.412861824E-1,-1.515898705E0
7.870173446E0,-2.113474846E0,-7.089815140E-1,-1.117747784E0
7.880173446E0,-2.511464596E0,-4.645736217E-1,-3.603038788E-1
7.890173446E0,-2.746982098E0,-1.331868172E-1,4.740495682E-1
7.900173446E0,-2.737656593E0,1.505730152E-1,1.177348137E0
7.910173446E0,-2.519744873E0,3.617289066E-1,1.577399254E0
7.920173446E0,-1.764665723E0,1.925759315E-1,1.679980278E0
7.930173446E0,-9.542597532E-1,-1.468825340E-1,1.295182228E0
7.940173446E0,-4.637720585E-1,-3.937633038E-1,4.982881546E-1
7.950173446E0,-3.158901930E-1,-6.250832081E-1,-2.203493118E-1
7.960173446E0,-5.158730745E-1,-7.434992790E-1,-7.472391129E-1
7.970173446E0,-7.751038074E-1,-7.480463982E-1,-9.565277100E-1
7.980173446E0,-9.326000214E-1,-6.231603622E-1,-9.721937180E-1
7.990173446E0,-1.092682004E0,-3.797831535E-1,-9.028244019E-1
8.000173446E0,-1.198318243E0,-1.224007607E-1,-7.725563049E-1
8.010173446E0,-1.305111766E0,4.828286171E-2,-6.489295959E-1
8.020173446E0,-1.415068150E0,9.356999397E-2,-5.723333359E-1
8.030173446E0,-1.550938010E0,4.269671440E-2,-4.535055161E-1
8.040173446E0,-1.737877369E0,-7.399272919E-2,-2.160520554E-1
8.050173446E0,-2.024513721E0,-1.133890152E-1,8.863258362E-2
8.060173446E0,-2.279313564E0,-1.771059036E-1,4.477548599E-1
8.070173446E0,-2.280017853E0,-3.206741810E-1,7.852773666E-1
8.080173446E0,-2.128840923E0,-5.110380650E-1,9.649057388E-1
8.090173446E0,-2.014079571E0,-6.872355938E-1,9.612989426E-1
8.100173446E0,-1.970004201E0,-8.110752106E-1,8.375720978E-1
8.110173446E0,-1.944307685E0,-9.016976357E-1,6.470260620E-1
8.120173446E0,-1.929064989E0,-9.820616245E-1,4.218664169E-1
8.130173446E0,-1.954745412E0,-9.255635738E-1,2.125825882E-1
8.140173446E0,-2.002392292E0,-8.246827126E-1,6.026172638E-2
8.150173446E0,-1.926813602E0,-6.564209461E-1,-1.299781799E-1
8.160173446E0,-1.684798956E0,-4.987459183E-1,-5.379438400E-1
8.170173446E0,-1.364707947E0,-3.323855400E-1,-9.758024216E-1
8.180173446E0,-1.087058187E0,-1.961393356E-1,-1.239122391E0
8.190173446E0,-1.019941688E0,-1.308884621E-1,-1.403513908E0
8.200173446E0,-9.692168236E-1,-2.594118118E-1,-1.616189003E0
8.210173446E0,-7.458908558E-1,-5.241522789E-1,-1.604107380E0
8.220173446E0,-1.013247967E0,-5.151820183E-1,-1.443534851E0
8.230173446E0,-1.620612741E0,-3.467297554E-1,-1.178316116E0
8.240173446E0,-1.999793887E0,-2.765440941E-1,-7.212619781E-1
8.250173446E0,-2.113840103E0,-4.602491856E-1,-2.207412720E-1
8.260173446E0,-2.109894276E0,-7.309668064E-1,-3.502464294E-2
8.270173446E0,-1.970734596E0,-9.625902176E-1,-1.625194550E-1
8.280173446E0,-1.857112885E0,-1.159786701E0,-4.245080948E-1
8.290173446E0,-1.853056431E0,-1.328059435E0,-7.201128006E-1
8.300173446E0,-1.940056443E0,-1.446077824E0,-1.016471863E0
8.310173446E0,-1.871988177E0,-1.543339014E0,-1.254975319E0
8.320173446E0,-1.941912770E0,-1.671014309E0,-1.645363808E0
8.330173446E0,-1.705971837E0,-1.482954264E0,-1.616550446E0
8.340173446E0,-1.888677716E0,-1.235938549E0,-1.570525169E0
8.350173446E0,-2.203725815E0,-8.810088634E-1,-1.264217377E0
8.360173446E0,-2.391421318E0,-5.099918842E-1,-6.901350021E-1
8.370173446E0,-2.383101463E0,-3.245892525E-1,-3.940391541E-2
8.380173446E0,-2.222028732E0,-3.487756252E-1,3.594713211E-1
8.390173446E0,-2.119239569E0,-4.933338165E-1,5.469064713E-1
8.400173446E0,-1.542385221E0,-7.817089558E-1,3.083305359E-1
8.410173446E0,-1.364984870E0,-9.829010963E-1,9.174251556E-2
8.420173446E0,-1.563217282E0,-1.022804737E0,2.116479874E-1
8.430173446E0,-1.675574899E0,-8.558094501E-1,4.758396149E-1
8.440173446E0,-1.701530814E0,-4.569110870E-1,9.096288681E-1
8.450173446E0,-2.449404240E0,-3.399398327E-1,1.945528984E0
8.460173446E0,-3.943912029E0,-8.876399994E-1,4.504033089E0
8.470173446E0,-2.542501450E0,-5.236487389E-1,1.525689125E0
8.480173446E0,-2.078579903E0,3.125143051E-1,1.670257568E0
8.490173446E0,-2.645354748E0,-4.349822998E-1,1.460051537E0
8.500173446E0,-2.441655159E0,-5.747196674E-1,9.339122772E-1
8.510173446E0,-2.124282122E0,-1.004300117E-1,5.290737152E-1
8.520173446E0,-1.874227047E0,-1.401379108E0,1.120967865E0
8.530173446E0,-1.446847200E0,-5.865209103E-1,1.986529350E0
8.540173446E0,-1.745731592E0,-1.415005445E0,1.979481697E0
8.550173446E0,-1.914614081E0,6.084058285E-1,1.583647728E0
8.560173446E0,-1.542945981E0,-1.168550491E0,1.508409500E0
8.570173446E0,-1.487323880E0,-9.242317677E-1,3.314809799E-1
8.580173446E0,-2.051882267E0,-6.963732243E-1,-3.892993927E-1
8.590173446E0,-1.772468686E0,-8.086302280E-1,-2.582960129E-1
8.600173446E0,-1.516114593E0,-1.236289024E0,-2.897701263E-1
8.610173446E0,-1.063275099E0,-2.072173119E0,4.816627502E-2
8.620173446E0,-1.571838260E0,-8.357360363E-1,1.010365486E0
8.630173446E0,-1.823006630E0,-5.128982067E-1,4.460411072E-1
8.640173446E0,-1.573497176E0,-4.366993904E-2,-3.284940720E-1
8.650173446E0,-1.255492091E0,-8.079826832E-1,-1.012014389E0
8.660173446E0,-1.466670513E0,-6.761097908E-1,-8.428621292E-1
8.670173446E0,-1.990054727E0,-4.209260941E-1,-1.172151566E-1
8.680173446E0,-2.647500038E0,-1.095905304E0,3.328323364E-4
8.690173446E0,-2.619180441E0,-4.878606796E-1,2.694110870E-1
8.700173446E0,-1.977023125E0,-9.319844246E-1,-1.920032501E-2
8.710173446E0,-1.206154823E0,-1.616171837E0,-6.352949142E-1
8.720173446E0,-8.983297348E-1,-1.930576324E0,-1.233463287E0
8.730173446E0,-1.034610629E0,-1.905455828E0,-1.501931190E0
8.740173446E0,-1.393480182E0,-1.881144881E0,-1.669028282E0
8.750173446E0,-1.497370601E0,-1.808285236E0,-1.792014122E0
8.760173446E0,-1.638477802E0,-1.654333711E0,-1.942827225E0
8.770173446E0,-1.620501280E0,-1.385478973E0,-1.860569000E0
8.780173446E0,-1.574413896E0,-1.077003002E0,-1.740457535E0
8.790173446E0,-1.524715304E0,-7.712273598E-1,-1.421195030E0
8.800173446E0,-1.626378894E0,-4.760315418E-1,-1.059653282E0
8.810173446E0,-1.764962792E0,-1.947889328E-1,-6.204328537E-1
8.820173446E0,-2.039630890E0,4.304647446E-2,-9.820938110E-3
8.830173446E0,-2.334446430E0,1.238887310E-1,6.305494308E-1
8.840173446E0,-2.555551052E0,8.691191673E-2,1.225243568E0
8.850173446E0,-2.581634521E0,-3.646779060E-2,1.673218727E0
8.860173446E0,-2.426024437E0,-1.226499081E-1,1.911492348E0
8.870173446E0,-2.050341606E0,-2.776083946E-1,1.902292252E0
8.880173446E0,-1.813276649E0,-4.054777622E-1,1.454860687E0
8.890173446E0,-1.560009122E0,-5.312118530E-1,8.283300400E-1
8.900173446E0,-1.225675941E0,-6.702034473E-1,2.150907516E-1
8.910173446E0,-1.183429360E0,-7.468087673E-1,-2.789211273E-1
8.920173446E0,-1.320116401E0,-7.277605534E-1,-5.197010040E-1
8.930173446E0,-1.444847107E0,-6.190557480E-1,-6.137399673E-1
8.940173446E0,-1.397246718E0,-4.664568901E-1,-6.714801788E-1
8.950173446E0,-1.319469333E0,-3.100624084E-1,-7.220878601E-1
8.960173446E0,-1.227156997E0,-1.073575020E-1,-6.858873367E-1
8.970173446E0,-1.243639588E0,1.521201134E-1,-4.695138931E-1
8.980173446E0,-1.377659202E0,4.263558388E-1,-1.898565292E-1
8.990173446E0,-1.620626926E0,5.786387920E-1,1.738796234E-1
9.000173446E0,-2.045539618E0,5.172312260E-1,5.771932602E-1
9.010173446E0,-2.476253510E0,3.218655586E-1,8.271493912E-1
9.020173446E0,-2.698442936E0,5.264854431E-2,9.031543732E-1
9.030173446E0,-2.703499317E0,-2.943413258E-1,9.050559998E-1
9.040173446E0,-2.573467731E0,-6.885640621E-1,8.036375046E-1
9.050173446E0,-2.435769558E0,-1.084456205E0,5.446624756E-1
9.060173446E0,-2.356737614E0,-1.423594952E0,1.622314453E-1
9.070173446E0,-2.260384798E0,-1.702654600E0,-2.147407532E-1
9.080173446E0,-2.123311996E0,-1.811692238E0,-5.563220978E-1
9.090173446E0,-1.765427947E0,-1.673726082E0,-8.921995163E-1
9.100173446E0,-1.303918839E0,-1.397416830E0,-1.133861065E0
9.110173446E0,-1.058618784E0,-1.033096075E0,-1.056130409E0
9.120173446E0,-1.142056465E0,-5.601508617E-1,-8.989639282E-1
9.130173446E0,-1.238430619E0,-8.919644356E-2,-8.246955872E-1
9.140173446E0,-1.296972632E0,2.081434727E-1,-7.370204926E-1
9.150173446E0,-1.383505940E0,2.668921947E-1,-6.362857819E-1
9.160173446E0,-1.398112893E0,1.379954815E-1,-5.550928116E-1
9.170173446E0,-1.524623752E0,1.798963547E-2,-1.132574081E-1
9.180173446E0,-1.899984956E0,-2.922868729E-2,5.031137466E-1
9.190173446E0,-2.413980722E0,4.007411003E-2,1.071556091E0
9.200173446E0,-2.824307442E0,1.198408604E-1,1.367005348E0
9.210173446E0,-2.822807550E0,5.906033516E-2,1.230641365E0
9.220173446E0,-2.313069582E0,-2.461824417E-1,7.200050354E-1
9.230173446E0,-1.643494248E0,-7.152490616E-1,2.137241364E-1
9.240173446E0,-1.326633215E0,-1.201781511E0,-5.920696259E-2
9.250173446E0,-1.527922750E0,-1.479483128E0,-1.583232880E-1
9.260173446E0,-2.011420727E0,-1.392749310E0,-1.603412628E-1
9.270173446E0,-2.582914352E0,-9.311270714E-1,7.459068298E-2
9.280173446E0,-2.930128098E0,-4.011764526E-1,3.356170654E-1
9.290173446E0,-2.701530457E0,-5.914068222E-2,4.251451492E-1
9.300173446E0,-2.154948235E0,2.332336903E-1,4.898538589E-1
9.310173446E0,-1.693616033E0,4.584443569E-1,4.462156296E-1
9.320173446E0,-1.414470434E0,3.823456764E-1,2.022371292E-1
9.330173446E0,-1.259742141E0,-4.014492035E-3,-1.054573059E-1
9.340173446E0,-1.459821224E0,-3.657612801E-1,-1.028966904E-1
9.350173446E0,-2.029220104E0,-5.036499500E-1,1.954975128E-1
9.360173446E0,-2.686683655E0,-4.137403965E-1,7.292528152E-1
9.370173446E0,-3.096199989E0,-2.405219078E-1,1.390886307E0
9.380173446E0,-3.107938290E0,-2.503578663E-1,1.826495171E0
9.390173446E0,-2.726598740E0,-4.448895454E-1,1.891209602E0
9.400173446E0,-2.280482769E0,-6.550140381E-1,1.801936150E0
9.410173446E0,-2.027670145E0,-8.450977802E-1,1.506639481E0
9.420173446E0,-1.827746511E0,-9.717297554E-1,8.533201218E-1
9.430173446E0,-1.696844339E0,-1.106458426E0,-3.216362000E-2
9.440173446E0,-1.376987219E0,-1.224065065E0,-5.276422501E-1
9.450173446E0,-1.339742661E0,-1.201512337E0,-7.957315445E-1
9.460173446E0,-1.568190455E0,-9.761476517E-1,-5.842981339E-1
9.470173446E0,-2.288514614E0,-6.784098148E-1,-3.518171310E-1
9.480173446E0,-2.589367151E0,-4.448144436E-1,-3.579196930E-1
9.490173446E0,-2.327975988E0,-3.127379417E-1,-5.587911606E-1
9.500173446E0,-2.018172264E0,-2.903647423E-1,-7.951126099E-1
9.510173446E0,-1.890300393E0,-4.055256844E-1,-7.211465836E-1
9.520173446E0,-1.968376398E0,-5.521836281E-1,-4.013032913E-1
9.530173446E0,-1.969899893E0,-7.089385986E-1,-1.536369324E-1
9.540173446E0,-1.811305523E0,-9.198467731E-1,-1.848907471E-1
9.550173446E0,-1.597659707E0,-1.128611088E0,-4.558610916E-1
9.560173446E0,-1.386972666E0,-1.231027842E0,-6.668195724E-1
9.570173446E0,-1.286476612E0,-1.162364006E0,-6.529026031E-1
9.580173446E0,-1.362362981E0,-9.595565796E-1,-4.704828262E-1
9.590173446E0,-1.584329247E0,-7.067587376E-1,-1.562795639E-1
9.600173446E0,-1.867108226E0,-4.687285423E-1,1.895360947E-1
9.610173446E0,-2.163426876E0,-3.098526001E-1,4.433984756E-1
9.620173446E0,-2.235787630E0,-2.956063747E-1,3.717718124E-1
9.630173446E0,-1.972923636E0,-3.549509048E-1,1.394023895E-1
9.640173446E0,-1.674718738E0,-4.734337330E-1,-1.287059784E-1
9.650173446E0,-1.537025928E0,-6.611738205E-1,-3.689794540E-1
9.660173446E0,-1.624843359E0,-8.013322353E-1,-4.780082703E-1
9.670173446E0,-1.770278931E0,-7.923457623E-1,-4.319095612E-1
9.680173446E0,-1.831130624E0,-6.998310089E-1,-2.325744629E-1
9.690173446E0,-1.656564951E0,-5.603768826E-1,-9.591770172E-2
9.700173446E0,-1.457720399E0,-4.099431038E-1,-4.876613617E-2
9.710173446E0,-1.424155474E0,-3.296973705E-1,3.073787689E-2
9.720173446E0,-1.580545187E0,-3.260622025E-1,1.162605286E-1
9.730173446E0,-1.672204971E0,-3.444070816E-1,1.806020737E-1
9.740173446E0,-1.706108809E0,-2.798502445E-1,2.289686203E-1
9.750173446E0,-1.723342180E0,-9.983873367E-2,2.635545731E-1
9.760173446E0,-1.676598310E0,-5.440115929E-2,2.512454987E-1
9.770173446E0,-1.686427593E0,-2.134852409E-1,1.167192459E-1
9.780173446E0,-1.952890396E0,-4.609723091E-1,4.699420929E-2
9.790173446E0,-2.260296583E0,-6.651852131E-1,-1.130123138E-1
9.800173446E0,-2.404416084E0,-7.228274345E-1,1.361818314E-1
9.810173446E0,-2.506653070E0,-6.387746334E-1,4.017362595E-1
9.820173446E0,-2.315905094E0,-5.464296341E-1,4.600200653E-1
9.830173446E0,-2.081196547E0,-5.641193390E-1,3.161420822E-1
9.840173446E0,-1.855939984E0,-5.643796921E-1,3.008680344E-1
9.850173446E0,-1.954271793E0,-5.181298256E-1,4.728708267E-1
9.860173446E0,-2.116466284E0,-6.040692329E-1,6.544427872E-1
9.870173446E0,-2.117874861E0,-7.852509022E-1,7.872686386E-1
9.880173446E0,-2.039389372E0,-8.251416683E-1,7.488546371E-1
9.890173446E0,-1.834630489E0,-8.090426922E-1,6.704397202E-1
9.900173446E0,-1.630879045E0,-7.243418694E-1,6.416521072E-1
9.910173446E0,-1.535576344E0,-5.733702183E-1,7.230978012E-1
9.920173446E0,-1.523825169E0,-4.262108803E-1,6.629362106E-1
9.930173446E0,-1.442822456E0,-3.229665756E-1,4.456405640E-1
9.940173446E0,-1.271618247E0,-2.945787907E-1,1.614475250E-1
9.950173446E0,-1.254312038E0,-3.816926479E-1,-1.254844666E-1
9.960173446E0,-1.353324294E0,-5.645775795E-1,-2.312641144E-1
9.970173446E0,-1.619401455E0,-7.152206898E-1,-1.334877014E-1
9.980173446E0,-1.954625130E0,-7.593355179E-1,3.420925140E-2
9.990173446E0,-2.138919353E0,-7.889504433E-1,1.498537064E-1
1.000017345E1,-2.096899986E0,-8.245272636E-1,1.577005386E-1
1.001017345E1,-1.882315874E0,-7.941474915E-1,1.720075607E-1
1.002017345E1,-1.620831966E0,-6.812102795E-1,2.850446701E-1
1.003017345E1,-1.359630346E0,-6.112322807E-1,5.063428879E-1
1.004017345E1,-1.247810602E0,-5.846650600E-1,7.125921249E-1
1.005017345E1,-1.195236444E0,-5.409653187E-1,8.304538727E-1
1.006017345E1,-1.102577329E0,-5.333359241E-1,8.346014023E-1
1.007017345E1,-9.567106962E-1,-5.553498268E-1,6.745319366E-1
1.008017345E1,-8.642296791E-1,-6.316447258E-1,4.436492920E-1
1.009017345E1,-8.427121639E-1,-7.152500153E-1,2.156686783E-1
1.010017345E1,-8.707149029E-1,-7.849717140E-1,9.428024292E-3
1.011017345E1,-9.506258965E-1,-8.202922344E-1,-1.391077042E-1
1.012017345E1,-1.024311900E0,-7.799963951E-1,-2.213726044E-1
1.013017345E1,-1.017911077E0,-6.901457310E-1,-2.597618103E-1
1.014017345E1,-8.987556696E-1,-5.671677589E-1,-2.678842545E-1
1.015017345E1,-7.626100779E-1,-5.184557438E-1,-2.891569138E-1
1.016017345E1,-8.698145151E-1,-5.093970299E-1,-2.489814758E-1
1.017017345E1,-1.104016662E0,-5.272426605E-1,-1.296586990E-1
1.018017345E1,-1.286502600E0,-5.614256859E-1,6.224060059E-2
1.019017345E1,-1.312906861E0,-5.857849121E-1,2.073812485E-1
1.020017345E1,-1.261543036E0,-5.577883720E-1,3.117103577E-1
1.021017345E1,-1.175629735E0,-5.134985447E-1,3.285160065E-1
1.022017345E1,-9.772690535E-1,-4.773592949E-1,2.957296371E-1
1.023017345E1,-7.523106337E-1,-4.633009434E-1,2.160530090E-1
1.024017345E1,-5.282129049E-1,-4.536213875E-1,1.172924042E-1
1.025017345E1,-3.564171791E-1,-4.217970371E-1,7.701110840E-2
1.026017345E1,-3.131648302E-1,-4.029314518E-1,1.934671402E-1
1.027017345E1,-3.387230635E-1,-4.070045948E-1,3.522129059E-1
1.028017345E1,-3.840889931E-1,-4.554388523E-1,4.202804565E-1
1.029017345E1,-4.053972960E-1,-5.862801075E-1,2.164478302E-1
1.030017345E1,-4.070152044E-1,-7.835085392E-1,-2.294464111E-1
1.031017345E1,-3.360626698E-1,-9.332671165E-1,-6.589784622E-1
1.032017345E1,-2.675235271E-1,-9.056711197E-1,-9.387607574E-1
1.033017345E1,-3.338506222E-1,-7.813477516E-1,-1.013032913E0
1.034017345E1,-4.119691849E-1,-6.413741112E-1,-7.587709427E-1
1.035017345E1,-5.750378370E-1,-4.225478172E-1,-4.236660004E-1
1.036017345E1,-7.753599882E-1,-2.679183483E-1,-1.055793762E-1
1.037017345E1,-8.790193796E-1,-2.065563202E-1,8.813858032E-2
1.038017345E1,-7.597489357E-1,-2.314915657E-1,1.805095673E-1
1.039017345E1,-5.621815920E-1,-2.746946812E-1,2.562170029E-1
1.040017345E1,-5.216180086E-1,-3.521039486E-1,4.074573517E-1
1.041017345E1,-5.183657408E-1,-4.336237907E-1,5.940542221E-1
1.042017345E1,-4.277443886E-1,-5.003981590E-1,8.035449982E-1
1.043017345E1,-3.955402374E-1,-5.103702545E-1,8.518705368E-1
1.044017345E1,-3.561078310E-1,-5.633983612E-1,7.138223648E-1
1.045017345E1,-2.283035517E-1,-6.107037067E-1,3.438148499E-1
1.046017345E1,5.521523952E-2,-6.494157314E-1,-1.582775116E-1
1.047017345E1,3.487714529E-1,-6.999752522E-1,-5.867977142E-1
1.048017345E1,3.197292089E-1,-7.618317604E-1,-9.513149261E-1
1.049017345E1,3.454372883E-1,-7.118692398E-1,-1.134717941E0
1.050017345E1,2.083854675E-1,-6.255891323E-1,-1.067808151E0
1.051017345E1,6.535828114E-2,-4.689381123E-1,-7.930412292E-1
1.052017345E1,-7.396733761E-2,-2.950842381E-1,-4.063959122E-1
1.053017345E1,-1.003848314E-1,-1.976811886E-1,-1.576900482E-1
1.054017345E1,-7.972824574E-2,-1.314830780E-1,1.456995010E-1
1.055017345E1,-5.438327789E-3,-1.302483082E-1,3.562135696E-1
1.056017345E1,1.705037355E-1,-1.360106468E-1,5.000877380E-1
1.057017345E1,1.758812666E-1,-1.871504784E-1,6.356143951E-1
1.058017345E1,-8.293294907E-2,-3.680179119E-1,7.389631271E-1
1.059017345E1,-2.929403782E-1,-6.164598465E-1,7.948017120E-1
1.060017345E1,-5.223038197E-1,-8.432850838E-1,6.356639862E-1
1.061017345E1,-4.812649488E-1,-9.228374958E-1,3.916473389E-1
1.062017345E1,-3.343832493E-1,-8.704531193E-1,1.365728378E-1
1.063017345E1,-8.793962002E-2,-8.333227634E-1,-5.119514465E-2
1.064017345E1,-1.949834824E-2,-7.699799538E-1,-1.187009811E-1
1.065017345E1,3.830432892E-2,-7.182896137E-1,-1.655778885E-1
1.066017345E1,1.227564812E-1,-6.062247753E-1,-2.706756592E-1
1.067017345E1,2.088568211E-1,-5.377309322E-1,-3.561735153E-1
1.068017345E1,2.787705660E-1,-5.531778336E-1,-3.838758469E-1
1.069017345E1,3.117979169E-1,-5.685462952E-1,-3.980922699E-1
1.070017345E1,3.522435427E-1,-5.164544582E-1,-3.835811615E-1
1.071017345E1,3.076841831E-1,-4.629974365E-1,-2.383403778E-1
1.072017345E1,2.196038365E-1,-4.174532890E-1,1.120681763E-1
1.073017345E1,1.340440512E-1,-2.553155422E-1,4.244356155E-1
1.074017345E1,1.639156342E-1,-1.384389400E-1,7.847547531E-1
1.075017345E1,2.457512617E-1,-1.426382065E-1,9.987392426E-1
1.076017345E1,3.165633678E-1,-2.821474075E-1,1.101766586E0
1.077017345E1,5.119770169E-1,-3.271284103E-1,1.080361366E0
1.078017345E1,5.987145901E-1,-3.711917400E-1,8.463201523E-1
1.079017345E1,6.189187765E-1,-5.680272579E-1,6.050434113E-1
1.080017345E1,6.039942503E-1,-7.048289776E-1,4.066543579E-1
1.081017345E1,4.852364659E-1,-8.375105858E-1,1.439704895E-1
1.082017345E1,3.402268887E-1,-9.205324650E-1,-5.332851410E-2
1.083017345E1,1.493176222E-1,-9.875233173E-1,-6.660079956E-2
1.084017345E1,-5.834698677E-2,-9.689188004E-1,1.354122162E-1
1.085017345E1,-2.081969976E-1,-8.597226143E-1,3.954372406E-1
1.086017345E1,-2.480812073E-1,-6.924262047E-1,5.041847229E-1
1.087017345E1,-2.144216299E-1,-6.488366127E-1,3.455505371E-1
1.088017345E1,-1.848696470E-1,-7.670187950E-1,1.222057343E-1
1.089017345E1,-2.334047556E-1,-8.999609947E-1,-3.685283661E-2
1.090017345E1,-2.343500853E-1,-8.710322380E-1,1.854038239E-2
1.091017345E1,-1.775625348E-1,-7.025070190E-1,1.588230133E-1
1.092017345E1,-4.015761614E-2,-5.670750141E-1,2.361545563E-1
1.093017345E1,1.375462413E-1,-4.971153736E-1,2.557973862E-1
1.094017345E1,2.519838214E-1,-4.595530033E-1,2.809104919E-1
1.095017345E1,2.885391712E-1,-4.847300053E-1,3.110961914E-1
1.096017345E1,4.117512107E-1,-6.025350094E-1,2.097282410E-1
1.097017345E1,4.761198759E-1,-6.897873878E-1,6.281566620E-2
1.098017345E1,4.568240941E-1,-7.805650234E-1,-1.217794418E-1
1.099017345E1,5.761545300E-1,-8.672711849E-1,-1.512823105E-1
1.100017345E1,6.153151989E-1,-9.025046825E-1,-2.425670624E-2
1.101017345E1,6.193076968E-1,-8.544135094E-1,2.034559250E-1
1.102017345E1,5.772325993E-1,-8.202178478E-1,3.313741684E-1
1.103017345E1,6.658798456E-1,-7.910754681E-1,3.180494308E-1
1.104017345E1,7.502021790E-1,-7.792029381E-1,1.952838898E-1
1.105017345E1,7.021659017E-1,-7.761349678E-1,1.274871826E-1
1.106017345E1,5.565509200E-1,-7.277991772E-1,2.173633575E-1
1.107017345E1,4.543926120E-1,-6.624846458E-1,4.030799866E-1
1.108017345E1,4.269713759E-1,-6.497049332E-1,5.940656662E-1
1.109017345E1,4.496170282E-1,-6.588985920E-1,6.585445404E-1
1.110017345E1,5.427526832E-1,-6.809475422E-1,6.807546616E-1
1.111017345E1,4.985626340E-1,-6.933050156E-1,6.995201111E-1
1.112017345E1,5.154790878E-1,-7.404356003E-1,5.617866516E-1
1.113017345E1,6.211236715E-1,-8.209431171E-1,1.781396866E-1
1.114017345E1,7.297096252E-1,-9.134969711E-1,-3.557577133E-1
1.115017345E1,7.471910715E-1,-1.019287825E0,-8.548870087E-1
1.116017345E1,6.811512709E-1,-1.063179016E0,-1.000955582E0
1.117017345E1,5.424630642E-1,-1.055151701E0,-9.525938034E-1
1.118017345E1,5.297906399E-1,-9.825353622E-1,-8.094930649E-1
1.119017345E1,6.285617948E-1,-8.341248035E-1,-5.393285751E-1
1.120017345E1,6.548049450E-1,-6.090948582E-1,-4.028272629E-1
1.121017345E1,7.190627456E-1,-3.903546333E-1,-2.780704498E-1
1.122017345E1,8.054477572E-1,-3.280448914E-1,-8.667469025E-2
1.123017345E1,8.527997732E-1,-4.274837971E-1,2.204895020E-3
1.124017345E1,8.316613436E-1,-5.897307396E-1,2.639770508E-3
1.125017345E1,7.745972276E-1,-7.235524654E-1,-5.727481842E-2
1.126017345E1,5.881044865E-1,-7.679617405E-1,-4.010200500E-2
1.127017345E1,3.900882900E-1,-7.411675453E-1,1.147060394E-1
1.128017345E1,4.123522639E-1,-7.274248600E-1,2.479362488E-1
1.129017345E1,4.748255014E-1,-7.301228046E-1,3.118486404E-1
1.130017345E1,5.301098228E-1,-7.734577656E-1,2.982149124E-1
1.131017345E1,6.838997006E-1,-8.291897774E-1,2.993116379E-1
1.132017345E1,7.842280865E-1,-8.751001358E-1,2.481040955E-1
1.133017345E1,6.527075768E-1,-8.756620884E-1,2.688293457E-1
1.134017345E1,4.754735231E-1,-8.321459293E-1,3.480606079E-1
1.135017345E1,4.664749503E-1,-7.341845036E-1,3.627395630E-1
1.136017345E1,5.663482547E-1,-7.278423309E-1,3.021469116E-1
1.137017345E1,5.121274590E-1,-6.775202751E-1,1.807756424E-1
1.138017345E1,5.516383052E-1,-6.298778057E-1,2.680435181E-1
1.139017345E1,5.580025315E-1,-5.348508358E-1,3.149204254E-1
1.140017345E1,6.446013451E-1,-4.966864586E-1,4.019699097E-1
1.141017345E1,5.781553388E-1,-4.869699478E-1,3.621358871E-1
1.142017345E1,6.797522902E-1,-5.670187473E-1,1.354846954E-1
1.143017345E1,8.125200272E-1,-6.172986031E-1,3.110437393E-1
1.144017345E1,6.051483154E-1,-5.738368034E-1,6.215505600E-1
1.145017345E1,4.770934284E-1,-4.841828346E-1,8.057041168E-1
1.146017345E1,4.636821747E-1,-4.120743275E-1,7.261295319E-1
1.147017345E1,3.544336855E-1,-3.442387581E-1,6.998395920E-1
1.148017345E1,1.583981812E-1,-3.068282604E-1,6.106071472E-1
1.149017345E1,-5.846321583E-4,-4.184002876E-1,5.785827637E-1
1.150017345E1,2.499702573E-2,-6.297514439E-1,4.477472305E-1
1.151017345E1,2.726288736E-1,-8.651170731E-1,1.030626297E-1
1.152017345E1,7.379137278E-1,-9.967296124E-1,-2.750167847E-1
1.153017345E1,1.033270836E0,-9.738610983E-1,-4.582548141E-1
1.154017345E1,7.781667709E-1,-7.953171730E-1,-5.000648499E-1
1.155017345E1,6.995040774E-1,-7.605538368E-1,-4.916238785E-1
1.156017345E1,9.952647686E-1,-8.809895515E-1,-3.315935135E-1
1.157017345E1,1.029532671E0,-9.761197567E-1,-2.524862289E-1
1.158017345E1,7.759239674E-1,-9.605576992E-1,-1.494598389E-1
1.159017345E1,5.508505702E-1,-7.274155617E-1,6.742763519E-2
1.160017345E1,4.141265750E-1,-4.847669601E-1,1.805200577E-1
1.161017345E1,3.688783050E-1,-4.948127270E-1,1.333627701E-1
1.162017345E1,4.765266180E-1,-6.541552544E-1,2.646064758E-2
1.163017345E1,6.062715054E-1,-7.655484676E-1,-7.044792175E-2
1.164017345E1,6.551238894E-1,-7.238309383E-1,-7.379341125E-2
1.165017345E1,6.225399971E-1,-6.152591705E-1,1.557254791E-2
1.166017345E1,5.521049500E-1,-5.109360218E-1,5.095481873E-3
1.167017345E1,6.049059629E-1,-4.792823792E-1,-1.706037521E-1
1.168017345E1,6.556873322E-1,-5.335171223E-1,-2.754487991E-1
1.169017345E1,5.894427299E-1,-5.758497715E-1,-1.121101379E-1
1.170017345E1,5.175867081E-1,-5.242779255E-1,1.287441254E-1
1.171017345E1,2.916043997E-1,-4.545836449E-1,2.924566269E-1
1.172017345E1,2.828375697E-1,-4.221918583E-1,2.852363586E-1
1.173017345E1,7.806919813E-1,-4.935710430E-1,3.993320465E-1
1.174017345E1,8.298496604E-1,-6.350753307E-1,5.624103546E-1
1.175017345E1,6.536589861E-1,-6.546394825E-1,3.860769272E-1
1.176017345E1,7.657985687E-1,-6.209125519E-1,1.197957993E-1
1.177017345E1,9.517287016E-1,-6.353197098E-1,-1.471138000E-2
1.178017345E1,8.351778984E-1,-7.316465378E-1,-5.676460266E-2
1.179017345E1,6.453111768E-1,-7.720000744E-1,1.748199463E-1
1.180017345E1,5.310211778E-1,-5.724723339E-1,4.462699890E-1
1.181017345E1,4.699392021E-1,-3.361527920E-1,5.614776611E-1
1.182017345E1,6.002626419E-1,-1.577992439E-1,3.984479904E-1
1.183017345E1,8.559789658E-1,-1.456501484E-1,2.693748474E-2
1.184017345E1,9.862819314E-1,-2.882421017E-1,-2.286148071E-1
1.185017345E1,8.220661879E-1,-4.305961132E-1,-2.572154999E-1
1.186017345E1,6.018638611E-1,-4.645795822E-1,-1.297206879E-1
1.187017345E1,5.297449827E-1,-4.447958469E-1,-7.165908813E-3
1.188017345E1,5.573068857E-1,-4.346342087E-1,5.243778229E-2
1.189017345E1,5.677393079E-1,-4.339239597E-1,1.330108643E-1
1.190017345E1,5.233035684E-1,-3.630244732E-1,3.452386856E-1
1.191017345E1,4.574567080E-1,-1.930048466E-1,5.773487091E-1
1.192017345E1,4.682605565E-1,-1.100854874E-1,5.240964890E-1
1.193017345E1,5.304775238E-1,-3.126699924E-1,1.586732864E-1
1.194017345E1,6.077829003E-1,-5.838630199E-1,-2.496461868E-1
1.195017345E1,6.067727804E-1,-7.798897028E-1,-5.101308823E-1
1.196017345E1,4.126388729E-1,-8.181848526E-1,-5.523595810E-1
1.197017345E1,2.373018861E-1,-7.808592319E-1,-4.467048645E-1
1.198017345E1,2.261233926E-1,-7.129721642E-1,-3.668060303E-1
1.199017345E1,3.430433273E-1,-6.868250370E-1,-4.239263535E-1
1.200017345E1,3.102961779E-1,-5.633394718E-1,-4.777612686E-1
1.201017345E1,3.509419262E-1,-4.062638283E-1,-2.546758652E-1
1.202017345E1,4.327015281E-1,-3.699095249E-1,1.062507629E-1
1.203017345E1,4.506208003E-1,-3.747549057E-1,3.895177841E-1
1.204017345E1,5.470700860E-1,-3.912253380E-1,6.209592819E-1
1.205017345E1,6.478264928E-1,-4.029350281E-1,7.645359039E-1
1.206017345E1,5.530716777E-1,-3.915879726E-1,8.551721573E-1
1.207017345E1,2.296726406E-1,-4.252383709E-1,7.539272308E-1
1.208017345E1,3.578836024E-1,-4.286615849E-1,6.919584274E-1
1.209017345E1,3.594321311E-1,-5.056061745E-1,6.490993500E-1
1.210017345E1,4.178781509E-1,-5.586318970E-1,3.883571625E-1
1.211017345E1,4.809930921E-1,-5.539395809E-1,1.530075073E-1
1.212017345E1,5.101494789E-1,-4.831542969E-1,-1.044025421E-1
1.213017345E1,5.702576637E-1,-4.619071484E-1,-3.154668808E-1
1.214017345E1,6.936130524E-1,-5.303409100E-1,-5.554866791E-1
1.215017345E1,8.259228468E-1,-5.561511517E-1,-6.318759918E-1
1.216017345E1,8.846632838E-1,-4.516677856E-1,-4.085264206E-1
1.217017345E1,7.108862400E-1,-2.914123535E-1,-1.458463669E-1
1.218017345E1,5.963228345E-1,-1.650218964E-1,-9.235763550E-2
1.219017345E1,6.341333389E-1,-1.159327030E-1,-1.754798889E-1
1.220017345E1,6.483533978E-1,-1.209292412E-1,-1.119909286E-1
1.221017345E1,5.596769452E-1,-2.201840878E-1,1.846885681E-1
1.222017345E1,4.889748096E-1,-3.394584656E-1,2.570629120E-1
1.223017345E1,5.877971649E-1,-4.191358089E-1,3.065347672E-1
1.224017345E1,5.116099119E-1,-5.422199965E-1,5.907564163E-1
1.225017345E1,4.334670007E-1,-5.602583885E-1,5.611152649E-1
1.226017345E1,2.495790422E-1,-4.636845589E-1,3.453369141E-1
1.227017345E1,4.578416049E-1,-4.056003094E-1,2.232980728E-1
1.228017345E1,3.587231040E-1,-4.155924320E-1,-8.180618286E-3
1.229017345E1,3.133791089E-1,-3.611826897E-1,-2.295389175E-1
1.230017345E1,2.363432646E-1,-3.345046043E-1,-4.300889969E-1
1.231017345E1,2.571220696E-1,-3.967189789E-1,-5.104084015E-1
1.232017345E1,3.344655335E-1,-4.808013439E-1,-5.492668152E-1
1.233017345E1,3.098163009E-1,-4.759855270E-1,-6.734800339E-1
1.234017345E1,2.883242667E-1,-4.454300404E-1,-7.785062790E-1
1.235017345E1,4.203166366E-1,-4.352881908E-1,-6.412096024E-1
1.236017345E1,5.679281950E-1,-3.379695415E-1,-2.306175232E-1
1.237017345E1,4.058275223E-1,-1.949713230E-1,2.198429108E-1
1.238017345E1,2.416009307E-1,-1.233725548E-1,6.300411224E-1
1.239017345E1,3.136898279E-1,-1.138114929E-1,8.672294617E-1
1.240017345E1,3.788001537E-1,-2.748904228E-1,7.603425980E-1
1.241017345E1,3.623521924E-1,-2.496047020E-1,4.359874725E-1
1.242017345E1,2.906050086E-1,-3.038108349E-1,2.917861938E-1
1.243017345E1,9.690099955E-2,-3.909909725E-1,3.230295181E-1
1.244017345E1,8.778327703E-2,-4.851174355E-1,1.164112091E-1
1.245017345E1,2.823174000E-1,-5.065331459E-1,-1.652317047E-1
1.246017345E1,5.424009562E-1,-5.056446791E-1,-4.050931931E-1
1.247017345E1,5.770033598E-1,-5.624952316E-1,-5.884838104E-1
1.248017345E1,5.133954287E-1,-6.199905872E-1,-7.275009155E-1
1.249017345E1,5.821335912E-1,-5.839257240E-1,-7.509326935E-1
1.250017345E1,6.473764777E-1,-4.635686874E-1,-6.127681732E-1
1.251017345E1,6.557029486E-1,-3.596258163E-1,-4.307441711E-1
1.252017345E1,7.865630388E-1,-2.792425156E-1,-2.063598633E-1
1.253017345E1,8.569513559E-1,-1.957924366E-1,1.245880127E-1
1.254017345E1,7.931084633E-1,-1.165647507E-1,4.311532974E-1
1.255017345E1,8.064574599E-1,-1.134345531E-1,7.045221329E-1
1.256017345E1,8.442681432E-1,-1.218910217E-1,8.570203781E-1
1.257017345E1,8.322783709E-1,-1.723635197E-1,9.527988434E-1
1.258017345E1,7.497843504E-1,-2.462453842E-1,9.809856415E-1
1.259017345E1,6.416952014E-1,-2.798831463E-1,8.779077530E-1
1.260017345E1,6.368482709E-1,-2.910587788E-1,4.816446304E-1
1.261017345E1,6.053602099E-1,-3.896366358E-1,-8.989048004E-2
1.262017345E1,5.015450716E-1,-5.214316845E-1,-5.783681870E-1
1.263017345E1,3.953987956E-1,-5.898420811E-1,-9.388923645E-1
1.264017345E1,3.799701333E-1,-5.719850063E-1,-1.097026825E0
1.265017345E1,3.512179255E-1,-5.417361259E-1,-1.147279739E0
1.266017345E1,3.000857234E-1,-5.029399395E-1,-1.015626907E0
1.267017345E1,3.152933717E-1,-3.782308102E-1,-6.109333038E-1
1.268017345E1,4.038011432E-1,-1.709070206E-1,2.331733704E-3
1.269017345E1,4.508371353E-1,2.511215210E-2,4.950447083E-1
1.270017345E1,4.737064242E-1,6.445288658E-2,7.038507462E-1
1.271017345E1,4.770600200E-1,-2.198767662E-2,9.243240356E-1
1.272017345E1,4.273514748E-1,-1.669518948E-1,1.080260277E0
1.273017345E1,4.374641180E-1,-2.628849745E-1,1.162912369E0
1.274017345E1,3.926403522E-1,-3.185627460E-1,1.263443947E0
1.275017345E1,3.194790483E-1,-3.586428165E-1,1.098653793E0
1.276017345E1,4.743385315E-1,-4.313993454E-1,6.423215866E-1
1.277017345E1,6.958107352E-1,-5.418660641E-1,2.097835541E-1
1.278017345E1,7.954081297E-1,-5.946741104E-1,-4.456710815E-2
1.279017345E1,8.586132526E-1,-5.231223106E-1,-1.547307968E-1
1.280017345E1,8.880798817E-1,-3.603104353E-1,-2.613058090E-1
1.281017345E1,9.058280587E-1,-2.292814255E-1,-4.755468369E-1
1.282017345E1,8.348239660E-1,-1.742904186E-1,-6.416435242E-1
1.283017345E1,6.485062838E-1,-1.326854229E-1,-6.287937164E-1
1.284017345E1,5.072934628E-1,-1.431884766E-1,-4.966640472E-1
1.285017345E1,4.301490784E-1,-2.413814068E-1,-4.068565369E-1
1.286017345E1,4.146608710E-1,-3.322906494E-1,-2.119979858E-1
1.287017345E1,3.969270587E-1,-3.437588215E-1,1.371355057E-1
1.288017345E1,3.909077048E-1,-2.852513790E-1,5.526075363E-1
1.289017345E1,3.860650659E-1,-2.201906443E-1,8.447093964E-1
1.290017345E1,4.534128308E-1,-2.440731525E-1,8.679389954E-1
1.291017345E1,5.985746384E-1,-3.473043442E-1,7.417821884E-1
1.292017345E1,7.269046903E-1,-4.456901550E-1,5.126075745E-1
1.293017345E1,7.154120803E-1,-5.056197643E-1,2.038125992E-1
1.294017345E1,6.927193403E-1,-5.139285326E-1,-1.198167801E-1
1.295017345E1,6.440829635E-1,-5.678030252E-1,-3.985280991E-1
1.296017345E1,5.191046000E-1,-6.067743301E-1,-6.374406815E-1
1.297017345E1,3.768311143E-1,-6.223723888E-1,-7.758684158E-1
1.298017345E1,2.931103706E-1,-6.011382341E-1,-7.314872742E-1
1.299017345E1,2.280898094E-1,-5.248272419E-1,-5.406131744E-1
1.300017345E1,2.125028968E-1,-4.257416725E-1,-3.439636230E-1
1.301017345E1,2.235167027E-1,-2.845958471E-1,-2.709093094E-1
1.302017345E1,4.955529571E-1,-2.691156864E-1,-6.037712097E-3
1.303017345E1,5.790092349E-1,-2.352330685E-1,4.742116928E-1
1.304017345E1,6.018828750E-1,-2.431150675E-1,9.376726151E-1
1.305017345E1,5.008707643E-1,-2.680057287E-1,1.106032372E0
1.306017345E1,2.403832674E-1,-2.347054482E-1,8.891839981E-1
1.307017345E1,4.739310741E-1,-3.769408464E-1,6.231784821E-1
1.308017345E1,4.203777909E-1,-5.176488161E-1,3.841896057E-1
1.309017345E1,4.542894959E-1,-5.913069248E-1,1.273326874E-1
1.310017345E1,5.617935658E-1,-5.345923901E-1,-8.269882202E-2
1.311017345E1,5.946605206E-1,-4.759271145E-1,-3.128929138E-1
1.312017345E1,6.550575495E-1,-4.922122955E-1,-5.567378998E-1
1.313017345E1,7.906671762E-1,-5.315800905E-1,-7.634859085E-1
1.314017345E1,8.587357402E-1,-6.102080345E-1,-4.775047302E-1
1.315017345E1,5.807383060E-1,-6.061275005E-1,1.127929688E-1
1.316017345E1,4.414078593E-1,-5.131869316E-1,3.288793564E-1
1.317017345E1,6.309125423E-1,-4.499166012E-1,4.451475143E-1
1.318017345E1,6.441845894E-1,-3.023061752E-1,6.053810120E-1
1.319017345E1,5.601537228E-1,-7.833766937E-2,6.337022781E-1
1.320017345E1,5.232229233E-1,8.004093170E-2,6.714010239E-1
1.321017345E1,5.631747246E-1,5.946540833E-2,6.028232574E-1
1.322017345E1,7.743589878E-1,-1.373234987E-1,3.943862915E-1
1.323017345E1,9.143668413E-1,-3.911035061E-1,2.798089981E-1
1.324017345E1,9.259221554E-1,-5.721290112E-1,2.592144012E-1
1.325017345E1,8.940591812E-1,-7.253918648E-1,-1.604976654E-1
1.326017345E1,1.082462430E0,-8.212935925E-1,-6.837482452E-1
1.327017345E1,9.336547852E-1,-8.232736588E-1,-1.036972046E0
1.328017345E1,8.132554293E-1,-7.870781422E-1,-1.244133949E0
1.329017345E1,7.248950005E-1,-6.557352543E-1,-1.187743187E0
1.330017345E1,5.642654896E-1,-4.661295414E-1,-8.778610229E-1
1.331017345E1,4.386851788E-1,-3.000488281E-1,-5.282020569E-1
1.332017345E1,4.210584164E-1,-2.423113585E-1,-2.665090561E-1
1.333017345E1,5.032325983E-1,-2.550828457E-1,2.538299561E-2
1.334017345E1,5.434372425E-1,-2.579503059E-1,4.257593155E-1
1.335017345E1,5.428715944E-1,-2.839865685E-1,8.645935059E-1
1.336017345E1,5.910756588E-1,-2.863693237E-1,1.227112770E0
1.337017345E1,6.825296879E-1,-4.131734371E-1,1.327813148E0
1.338017345E1,7.105294466E-1,-4.281432629E-1,1.313287735E0
1.339017345E1,8.114379644E-1,-3.980057240E-1,1.108147621E0
1.340017345E1,9.830803871E-1,-3.848457336E-1,9.969415665E-1
1.341017345E1,1.155756354E0,-4.283900261E-1,6.541233063E-1
1.342017345E1,1.135225415E0,-4.502453804E-1,2.329750061E-1
1.343017345E1,1.161383271E0,-4.214665890E-1,-1.634588242E-1
1.344017345E1,1.079253078E0,-4.216744900E-1,-3.605442047E-1
1.345017345E1,1.275257945E0,-4.427213669E-1,-3.617305756E-1
1.346017345E1,9.534068108E-1,-4.141395092E-1,-4.777097702E-1
1.347017345E1,9.421344995E-1,-2.436127663E-1,-3.946599960E-1
1.348017345E1,9.237385988E-1,-1.825346947E-1,-1.822366714E-1
1.349017345E1,8.502136469E-1,-1.742187738E-1,1.663236618E-1
1.350017345E1,8.720051050E-1,-2.291574478E-1,5.274505615E-1
1.351017345E1,8.069933653E-1,-2.143030167E-1,7.981967926E-1
1.352017345E1,8.228613138E-1,-2.626543045E-1,8.520698547E-1
1.353017345E1,9.086146355E-1,-3.772139549E-1,7.814807892E-1
1.354017345E1,9.998040199E-1,-5.167272091E-1,3.539171219E-1
1.355017345E1,1.135156155E0,-6.600921154E-1,-6.672191620E-2
1.356017345E1,6.529047489E-1,-8.042763472E-1,-6.252288818E-2
1.357017345E1,6.088572741E-1,-7.561858892E-1,-2.643070221E-1
1.358017345E1,4.507400990E-1,-7.213354111E-1,-4.557952881E-1
1.359017345E1,3.586761951E-1,-6.067097187E-1,-5.086345673E-1
1.360017345E1,3.190445900E-1,-5.233907700E-1,-5.660610199E-1
1.361017345E1,3.566361666E-1,-4.486269951E-1,-6.615362167E-1
1.362017345E1,3.845667839E-1,-4.352201223E-1,-7.297649384E-1
1.363017345E1,3.975853920E-1,-4.788634777E-1,-6.594209671E-1
1.364017345E1,4.605104923E-1,-5.054965019E-1,-4.156932831E-1
1.365017345E1,3.962029219E-1,-4.872848988E-1,9.371757507E-3
1.366017345E1,3.456902504E-1,-4.816975594E-1,3.245820999E-1
1.367017345E1,5.469396114E-1,-5.799455643E-1,7.291965485E-1
1.368017345E1,7.959970236E-1,-6.982138157E-1,1.163431168E0
1.369017345E1,8.445427418E-1,-6.880885363E-1,1.297700882E0
1.370017345E1,9.382041693E-1,-5.710289478E-1,1.102098465E0
1.371017345E1,9.306305647E-1,-4.395462275E-1,5.392656326E-1
1.372017345E1,9.652185440E-1,-5.011193752E-1,-1.137819290E-1
1.373017345E1,8.152005672E-1,-5.813405514E-1,-5.901660919E-1
1.377679032E1,0.000000000E0,0.000000000E0,0.000000000E0
1.378772345E1,-9.137877822E-2,5.326771736E-2,8.210277557E-2
1.379865657E1,-1.101181805E-1,2.572700977E-1,-2.617635727E-1
1.380958964E1,2.861080766E-1,2.292530537E-1,-9.003243446E-1
1.382052277E1,8.752878308E-1,-6.608986855E-2,-1.196093559E0
1.383145589E1,8.701834679E-1,-3.250744343E-1,-2.311773300E-1
1.384238897E1,9.400409460E-1,-2.954589128E-1,1.198258400E0
1.385332209E1,7.217026949E-1,-2.536247969E-1,2.081951141E0
1.386425522E1,-2.922689915E-2,4.329037666E-2,1.881278992E0
1.387518834E1,-3.544315100E-1,4.037878513E-1,1.575203896E0
1.388612142E1,-7.582734823E-1,5.800902843E-1,1.276774406E0
1.389705454E1,-4.069830179E-1,5.259003639E-1,5.729999542E-1
1.390798766E1,4.800686836E-1,6.971025467E-2,1.746082306E-1
1.391892079E1,5.571827888E-1,-7.210515738E-1,1.564664841E-1
1.392985386E1,7.216795683E-1,-9.899028540E-1,4.144744873E-1
1.394078699E1,1.240190744E0,-8.707512617E-1,1.021532059E0
1.395172011E1,4.939389229E-1,-7.634520531E-3,1.127680779E0
1.396265324E1,-2.180278301E-1,8.865654469E-1,1.649817467E0
1.397358631E1,-8.077858686E-1,1.233903170E0,2.010356903E0
1.398451944E1,-9.425207376E-1,1.012948275E0,1.821365356E0
1.399545256E1,-8.247670531E-1,4.700446129E-1,9.201002121E-1
1.400638563E1,-7.032267451E-1,-4.375219345E-2,-4.408483505E-1
1.401731876E1,-7.701684237E-1,-4.746838808E-1,-1.715123177E0
1.402825188E1,-6.225253344E-1,-5.966458321E-1,-2.682255268E0
1.403918501E1,-4.680452347E-1,-7.787970304E-1,-3.255449295E0
1.405011808E1,-2.852554321E-1,-9.257698059E-1,-3.601445198E0
1.406105121E1,-2.623733282E-1,-8.488374949E-1,-3.506120682E0
1.407198433E1,-3.619658947E-1,-6.533913612E-1,-3.098728180E0
1.408291746E1,-1.137313843E-1,-3.497346640E-1,-2.996500969E0
1.409385053E1,1.125125885E-1,-8.025455475E-2,-3.101644039E0
1.410478366E1,-1.551578045E-1,4.156763554E-1,-2.776058197E0
1.411571678E1,-4.254297018E-1,8.720695972E-1,-1.590862274E0
1.412664985E1,-2.867149115E-1,1.030082941E0,7.155799866E-2
1.413758298E1,2.286670208E-1,9.486014843E-1,1.516474724E0
1.414851610E1,5.276318789E-1,8.345763683E-1,2.923426628E0
1.415944923E1,6.033511162E-1,5.726802349E-1,3.941813469E0
1.417038235E1,2.194700241E-1,2.497189045E-1,4.150822639E0
1.418131543E1,-1.051696539E-1,-3.452038765E-2,3.501804352E0
1.419224855E1,-1.696823835E-1,-2.150037289E-1,2.227073669E0
1.420318168E1,-2.920973301E-2,-3.745986223E-1,8.451747894E-1
1.421411475E1,-1.350324154E-1,-5.307801962E-1,-2.329540253E-1
1.422504787E1,-1.489787102E-1,-4.934561253E-1,-1.098665237E0
1.423598100E1,-1.960700750E-1,-4.283356667E-1,-1.527491570E0
1.424691412E1,-3.107101917E-1,-4.013464451E-1,-1.639770031E0
1.425784725E1,-3.367602825E-1,-2.177925110E-1,-1.681724072E0
1.426878032E1,-1.934152842E-1,5.628967285E-2,-1.913754463E0
1.427971345E1,-6.737959385E-2,3.398694992E-1,-2.185136795E0
1.429064657E1,4.618287086E-3,6.789588928E-1,-2.062596321E0
1.430157970E1,1.616635323E-1,1.267935514E0,-1.738615036E0
1.431251282E1,4.716312885E-2,1.663628101E0,-8.055820465E-1
1.432344589E1,-4.289720058E-1,1.773005962E0,5.722169876E-1
1.433437902E1,-9.895951152E-1,1.557396889E0,1.862825394E0
1.434531214E1,-1.203853607E0,1.003018379E0,2.683331490E0
1.435624527E1,-1.199880958E0,5.413651466E-1,3.072594643E0
1.436717834E1,-1.110381246E0,-1.258399487E-1,3.277668953E0
1.437811147E1,-5.682545900E-1,-8.721159697E-1,2.820704460E0
1.438904459E1,-1.004959941E-1,-9.220023155E-1,2.212787628E0
1.439997772E1,1.409493685E-1,-1.071008444E0,1.724097252E0
1.441091079E1,6.178928018E-1,-8.406465054E-1,1.294311523E0
1.442184392E1,6.654180884E-1,-5.531824827E-1,6.969003677E-1
1.443277704E1,5.024751425E-1,-4.776087999E-1,-1.611309052E-1
1.444371016E1,4.648291469E-1,-5.427700281E-1,-7.482643127E-1
1.445464329E1,4.125773907E-1,-4.601762295E-1,-1.023186684E0
1.446557636E1,4.553383589E-1,-4.798935652E-1,-8.835105896E-1
1.447650949E1,6.647779942E-1,-4.189819098E-1,-6.003799438E-1
1.448744261E1,8.254796267E-1,-3.714708090E-1,-2.240028381E-1
1.449837574E1,5.535510778E-1,-7.875407934E-1,4.154367447E-1
1.450930881E1,2.028892636E-1,-9.788417816E-1,1.121481895E0
1.452024178E1,6.271798015E-1,-9.408739209E-1,1.379595757E0
1.453117506E1,1.158179998E0,-1.062099457E0,1.121589661E0
1.454210819E1,1.028296590E0,-9.097104073E-1,4.174203873E-1
1.455304126E1,1.589753628E-1,-4.396688938E-2,-7.827339172E-1
1.456397438E1,-6.823083162E-1,7.767177820E-1,-1.007788658E0
1.457490751E1,-1.183273196E0,9.901685715E-1,-6.745510101E-1
1.458584063E1,-1.268024921E0,9.525393248E-1,-9.815311432E-2
1.459677376E1,-1.186537743E0,7.085657120E-1,7.348384857E-1
1.460770683E1,-1.244168997E0,4.621429443E-1,1.688796043E0
1.461863996E1,-1.378518343E0,3.431189060E-1,2.683785439E0
1.462957308E1,-1.864598989E0,3.880790472E-1,3.091723442E0
1.464050621E1,-2.426297188E0,2.719737291E-1,2.482799530E0
1.465143928E1,-1.840465546E0,-2.688301802E-1,1.591929436E0
1.466237241E1,-9.376693964E-1,-9.035633802E-1,2.775630951E-1
1.467330553E1,-1.031904221E-1,-1.349943280E0,-1.003364563E0
1.468423866E1,5.771805048E-1,-1.237408042E0,-1.798058510E0
1.469517178E1,7.761015892E-1,-8.258895874E-1,-2.437409878E0
1.470610485E1,1.185736418E0,-5.639305115E-1,-2.823725700E0
1.471703798E1,1.194865346E0,-1.409271955E-1,-2.794579983E0
1.472797110E1,9.294977188E-1,6.776944399E-1,-2.200007915E0
1.473890423E1,-6.780028343E-3,1.046735764E0,-1.030034065E0
1.474983735E1,-7.476321459E-1,9.429676533E-1,5.085420609E-1
1.476077042E1,-1.035031080E0,5.035068989E-1,1.717906952E0
1.477170355E1,-7.699135542E-1,2.071464062E-2,2.202503204E0
1.478263668E1,-2.682757378E-1,-3.668878078E-1,1.811945915E0
1.479356980E1,1.304634809E-1,-6.924260259E-1,1.177571297E0
1.480450293E1,3.492879868E-2,-5.702531338E-1,4.889278412E-1
1.481543600E1,-4.475849867E-1,-2.491456270E-1,-1.726417542E-1
1.482636912E1,-8.277465701E-1,1.005644798E-1,-5.576000214E-1
1.483730225E1,-9.628278613E-1,4.561336040E-1,-7.212371826E-1
1.484823537E1,-9.535033107E-1,5.954318047E-1,-6.874933243E-1
1.485916850E1,-9.122980833E-1,5.459831953E-1,-5.100851059E-1
1.487010157E1,-7.670261860E-1,3.795605898E-1,-3.541831970E-1
1.488103470E1,-7.673441768E-1,1.866809130E-1,-1.258897781E-1
1.489196782E1,-8.100160360E-1,1.592439413E-1,1.379766464E-1
1.490290095E1,-9.045518041E-1,1.501522064E-1,7.958221436E-2
1.491383407E1,-6.094350219E-1,1.433248520E-1,-8.327102661E-2
1.492476714E1,-3.488426208E-1,1.526619196E-1,-1.197757721E-1
1.493570027E1,-2.570213079E-1,1.626464128E-1,4.587078094E-2
1.494663339E1,-4.451580048E-1,6.829273701E-2,4.496383667E-1
1.495756652E1,-6.112895012E-1,5.022883415E-3,8.540363312E-1
1.496849964E1,-6.148536205E-1,1.629590988E-4,1.091962814E0
1.497943277E1,-6.975916624E-1,9.391582012E-2,1.229924202E0
1.499036584E1,-8.231801987E-1,2.733850479E-1,1.188472748E0
1.500129897E1,-7.159768939E-1,3.965299129E-1,1.013166428E0
1.501223209E1,-5.930796862E-1,4.824002981E-1,8.299341202E-1
1.502316522E1,-4.467177987E-1,5.897587538E-1,8.296384811E-1
1.503409834E1,-4.496346116E-1,6.331710815E-1,8.942461014E-1
1.504503142E1,-4.373251200E-1,5.860905647E-1,9.951334000E-1
1.505596454E1,-5.277159810E-1,4.940747023E-1,9.505491257E-1
1.506689766E1,-5.646210909E-1,3.778029680E-1,7.145729065E-1
1.507783079E1,-5.944446325E-1,3.804404736E-1,4.714097977E-1
1.508876392E1,-8.239813447E-1,3.805465698E-1,1.674270630E-1
1.509969704E1,-7.969835401E-1,4.403359890E-1,-1.872615814E-1
1.511063011E1,-5.218423009E-1,4.695919752E-1,-5.084829330E-1
1.512156324E1,-3.606748581E-1,3.261814117E-1,-7.006044388E-1
1.513249636E1,-2.958339453E-1,2.246248722E-1,-7.447862625E-1
1.514342944E1,-4.164769650E-1,2.441494465E-1,-6.842498779E-1
1.515436261E1,-5.194369555E-1,2.555432320E-1,-7.988367081E-1
1.516529574E1,-6.918596029E-1,2.306653261E-1,-1.024035454E0
1.517622881E1,-8.887709975E-1,2.138067484E-1,-1.597397327E0
1.518716194E1,-5.876196027E-1,1.371786594E-1,-2.067661285E0
1.519809506E1,-5.217884779E-1,2.200406790E-1,-2.170214653E0
1.520902819E1,-6.229575872E-1,4.761925936E-1,-1.885515690E0
1.521996131E1,-4.239545465E-1,6.793670654E-1,-1.253867149E0
1.523089444E1,-6.545290351E-1,8.096752167E-1,-3.708038330E-1
1.524182751E1,-7.410765290E-1,8.819675446E-1,8.601551056E-1
1.525276063E1,-7.940381765E-1,8.538978100E-1,1.950821877E0
1.526369376E1,-9.971906543E-1,6.479474306E-1,2.750593185E0
1.527462688E1,-9.697591066E-1,3.952028751E-1,2.751448631E0
1.528556001E1,-7.935652733E-1,1.111203432E-1,1.893705368E0
1.529649308E1,-7.314437628E-1,1.422774792E-2,6.991100311E-1
1.530742616E1,-7.727667689E-1,1.176252365E-1,-4.946908951E-1
1.531835933E1,-8.619738817E-1,2.857620716E-1,-1.499913216E0
1.532929246E1,-8.907955289E-1,4.193042517E-1,-2.054341316E0
1.534022558E1,-9.299716353E-1,5.044102669E-1,-2.207376003E0
1.535115871E1,-7.484472990E-1,5.488322973E-1,-2.104084969E0
1.536209183E1,-7.328174710E-1,6.160968542E-1,-1.855221272E0
1.537302496E1,-7.554162741E-1,7.241954803E-1,-1.432810307E0
1.538395803E1,-6.632413268E-1,7.680021524E-1,-8.412017822E-1
1.539489116E1,-6.658273935E-1,7.620356083E-1,-3.347005844E-1
1.540582428E1,-5.912042856E-1,7.864319086E-1,1.376781464E-1
1.541675740E1,-6.788947582E-1,7.953437567E-1,4.984788895E-1
1.542769053E1,-7.152272463E-1,6.462547779E-1,6.637477875E-1
1.543862366E1,-8.088963032E-1,4.225286245E-1,4.471902847E-1
1.544955673E1,-9.377136230E-1,2.872897387E-1,9.871578217E-2
1.546048985E1,-9.546602964E-1,1.621478796E-1,-2.994394302E-1
1.547142298E1,-9.827062488E-1,1.392791271E-1,-7.501220703E-1
1.548235610E1,-9.954299927E-1,2.485721111E-1,-1.033894539E0
1.549328923E1,-9.813310504E-1,3.737537861E-1,-9.863557816E-1
1.550422235E1,-1.014233589E0,5.119999647E-1,-6.220397949E-1
1.551515548E1,-1.059295535E0,6.710922718E-1,1.582717896E-2
1.552608860E1,-1.248514295E0,7.831405401E-1,7.056827545E-1
1.553702168E1,-1.355372429E0,7.663727999E-1,1.154378891E0
1.554795480E1,-1.193972826E0,6.735529900E-1,1.188818932E0
1.555888792E1,-1.062305331E0,5.336335897E-1,6.033563614E-1
1.556982105E1,-7.605448365E-1,2.969820499E-1,1.749830246E-1
1.558075418E1,-5.604963303E-1,1.175593138E-1,2.624702454E-2
1.559168730E1,-8.598487973E-1,3.017295599E-1,-3.248939514E-1
1.560262043E1,-1.107595205E0,4.382990599E-1,-5.537586212E-1
1.561355355E1,-1.056005478E0,6.144335270E-1,-5.789756775E-1
1.562448662E1,-1.030307531E0,5.476549864E-1,-4.269933701E-1
1.563541975E1,-9.322239757E-1,3.948638439E-1,-3.140649796E-1
1.564635287E1,-9.287221432E-1,2.926963568E-1,-3.990335464E-1
1.565728600E1,-7.725840211E-1,3.503769636E-1,-5.243940353E-1
1.566821912E1,-8.139342070E-1,4.330853224E-1,-2.187213898E-1
1.567915225E1,-9.815506935E-1,5.649868250E-1,2.792892456E-1
1.569008537E1,-1.263955355E0,6.738002300E-1,9.177989960E-1
1.570101850E1,-1.374420404E0,7.115833759E-1,1.588277817E0
1.571195157E1,-1.504664898E0,7.473640442E-1,2.074649811E0
1.572288470E1,-1.584286928E0,4.969865084E-1,1.957155228E0
1.573381782E1,-1.357249498E0,2.261451483E-1,1.098123550E0
1.574475095E1,-1.009495378E0,-1.968848705E-2,-5.398845673E-2
1.575568407E1,-8.301320076E-1,-8.703422546E-2,-1.053019524E0
1.576661720E1,-6.668787003E-1,-6.133389473E-2,-1.594593048E0
1.577755032E1,-6.456736922E-1,1.361513138E-2,-1.711073875E0
1.578848345E1,-7.509933114E-1,2.126097679E-1,-1.513076305E0
1.579941652E1,-9.217407703E-1,4.706637859E-1,-9.270334244E-1
1.581034964E1,-1.066893220E0,7.623139620E-1,-6.543827057E-2
1.582128277E1,-1.338981867E0,9.277321100E-1,8.471412659E-1
1.583221589E1,-1.383350849E0,8.797175884E-1,1.375940323E0
1.584314902E1,-1.162307978E0,5.486243963E-1,1.477889061E0
1.585408214E1,-8.444342613E-1,1.803795099E-1,1.166646957E0
1.586501527E1,-6.612644196E-1,-4.307985306E-3,6.889829636E-1
1.587594839E1,-6.492702365E-1,1.151360273E-1,3.473463058E-1
1.588688152E1,-7.675400972E-1,1.831250191E-1,7.673645020E-2
1.589781459E1,-8.230293393E-1,3.539092541E-1,-3.637514114E-1
1.590874772E1,-7.163338661E-1,4.219038486E-1,-8.801622391E-1
1.591968084E1,-1.460269690E0,2.683928013E-1,-1.414336205E0
1.593061397E1,-1.390648842E0,5.281345844E-1,-1.462537289E0
1.594154709E1,-7.451393604E-1,4.318869114E-1,-1.430233479E0
1.595248022E1,-4.301091135E-1,5.360715389E-1,-1.076663017E0
1.596341334E1,-8.691809177E-1,5.134453773E-1,-5.256776810E-1
1.597434647E1,-1.042895913E0,5.559196472E-1,1.984004974E-1
1.598527959E1,-8.895373344E-1,5.671367645E-1,1.012297630E0
1.599621267E1,-9.021747708E-1,3.889461756E-1,1.511841774E0
1.600714579E1,-8.408508301E-1,2.890436649E-1,1.551835060E0
1.601807892E1,-1.070595264E0,2.044553757E-1,1.199328423E0
1.602901204E1,-1.051395178E0,1.532828808E-1,6.420507431E-1
1.603994517E1,-8.557171822E-1,5.322337151E-2,-1.104507446E-1
1.605087829E1,-7.387574315E-1,-7.814764977E-2,-6.745319366E-1
1.606181142E1,-6.750536561E-1,-1.056663990E-1,-8.983640671E-1
1.607274454E1,-2.399348021E-1,-7.525575161E-2,-8.015451431E-1
1.608367766E1,-2.096343040E-1,1.149964333E-1,-5.079898834E-1
1.609461079E1,-7.064617872E-1,5.018267632E-1,6.361770630E-2
1.610554392E1,-7.298446298E-1,5.399081707E-1,8.080873489E-1
1.611647704E1,-2.159544230E-1,1.218816042E-1,1.579383850E0
1.612741016E1,1.248406172E-1,-1.565500498E-1,1.887248039E0
1.613834324E1,1.659862995E-1,-3.114953041E-1,1.721848488E0
1.614927636E1,8.315551281E-2,-2.869647741E-1,1.506262779E0
1.616020949E1,-5.345118046E-2,-1.621786356E-1,1.420125961E0
1.617114261E1,-7.509994507E-2,-1.230250597E-1,9.741201401E-1
1.618207574E1,-8.302450180E-2,-1.572604179E-1,5.273990631E-1
1.619300886E1,-3.542057276E-1,-2.192628384E-1,6.373119354E-2
1.625778309E1,0.000000000E0,0.000000000E0,0.000000000E0
1.626871621E1,3.124691248E-1,-1.685168743E-1,-2.455420494E-1
1.627964939E1,1.923394203E-2,4.677128792E-2,-1.723489761E-1
1.629058256E1,1.962714195E-1,3.240633011E-1,-7.225704193E-2
1.630151574E1,2.327517271E-1,3.110289574E-1,-6.551885605E-2
1.631244892E1,3.531575203E-1,-6.773614883E-2,-4.063234329E-1
1.632338210E1,9.069027305E-1,-9.720253944E-2,-6.298317909E-1
1.633431527E1,7.855367661E-1,6.304216385E-2,-6.665639877E-1
1.634524840E1,3.304456472E-1,-3.509392738E-1,-3.772478104E-1
1.635618158E1,4.870935082E-1,-5.965728760E-1,1.854510307E-1
1.636711475E1,5.708196759E-1,-8.334991932E-1,9.542803764E-1
1.637804793E1,8.969998360E-2,-9.087045193E-1,1.805177689E0
1.638898111E1,-3.337131143E-1,-7.301383018E-1,2.384204388E0
1.639991428E1,-4.578443766E-1,-4.600975513E-1,2.635845184E0
1.641084741E1,-6.421186924E-1,-9.968638420E-2,2.378889084E0
1.642178058E1,-2.048970461E-1,2.013161182E-1,1.680709839E0
1.643271376E1,2.533616424E-1,3.836362362E-1,7.629499435E-1
1.644364694E1,2.836217284E-1,4.821648598E-1,-2.260208130E-3
1.645458012E1,3.876726627E-1,6.051347256E-1,-5.377411842E-1
1.646551329E1,2.743042707E-1,8.754487038E-1,-7.772154808E-1
1.647644642E1,-2.768424153E-1,8.912823200E-1,-9.528264999E-1
1.648737960E1,-3.850059509E-1,6.487824917E-1,-3.432021141E-1
1.649831277E1,-6.211607456E-1,9.054923058E-2,6.119327545E-1
1.650924595E1,-1.265368462E-1,2.253198624E-1,1.121431351E0
1.652017913E1,2.338087559E-2,2.341167927E-1,1.007405281E0
1.653111230E1,1.781647801E-1,-6.542801857E-2,9.007062912E-1
1.654204548E1,2.097163200E-1,5.261254311E-2,-3.454399109E-2
1.655297866E1,3.401094675E-2,3.262910843E-1,-1.058323383E0
1.656391184E1,-1.778030992E-1,5.223243237E-1,-1.467691422E0
1.657484496E1,-5.550055504E-1,6.549515724E-1,-7.483191490E-1
1.658577814E1,-9.185162187E-1,8.018238544E-1,6.827926636E-2
1.659671131E1,-1.136465549E0,7.443475723E-1,1.017600060E0
1.660764449E1,-1.343640924E0,5.890307426E-1,1.662286758E0
1.661857767E1,-9.810904860E-1,4.639892578E-1,2.278156281E0
1.662951085E1,-6.352109909E-1,5.672993660E-1,2.229748726E0
1.664044402E1,-3.513797522E-1,7.534954548E-1,1.659309387E0
1.665137720E1,-2.858930826E-1,9.245035648E-1,1.361543655E0
1.666231038E1,-5.744163990E-1,9.632518291E-1,1.299609184E0
1.667324355E1,-3.789914846E-1,1.029769659E0,1.200742722E0
1.668417673E1,-3.765007854E-1,8.535542488E-1,1.236413002E0
1.669510991E1,-7.262960672E-1,4.599435329E-1,1.288309097E0
1.670604303E1,-5.981050134E-1,2.109420300E-1,1.541028976E0
1.671697621E1,-1.235778332E-1,-1.910278797E-1,1.893052101E0
1.672790939E1,7.917696238E-1,-1.167996168E0,2.214153290E0
1.673884256E1,1.461501002E0,-1.097151518E0,2.374953270E0
1.674977574E1,2.064472198E0,-1.581817031E0,2.302493095E0
1.676070892E1,2.418990374E0,-1.581832528E0,1.266368866E0
1.677164210E1,2.606192112E0,-1.560196877E0,1.046752930E-2
1.678257527E1,2.619160652E0,-1.679664254E0,-7.125644684E-1
1.679350845E1,2.620333433E0,-1.832543731E0,-8.054409027E-1
1.680444163E1,1.205152750E0,-1.036508322E0,-9.000444412E-1
1.681537480E1,-5.599999428E-1,1.448576450E-1,-9.982223511E-1
1.682630798E1,-1.233864903E0,6.472690105E-1,-1.010092735E0
1.683724116E1,-9.622592330E-1,3.689606190E-1,-1.172408104E0
1.684817428E1,1.012134254E-1,-1.707599163E-1,-1.517961979E0
1.685910746E1,1.062583685E0,-7.541394234E-1,-1.590636253E0
1.687004064E1,1.291764140E0,-1.025100350E0,-1.130452156E0
1.688097381E1,1.204381943E0,-1.007858992E0,-2.666807175E-1
1.689190699E1,9.095392227E-1,-9.076652527E-1,4.462671280E-1
1.690284017E1,5.926885009E-1,-8.166177273E-1,7.659807205E-1
1.691377335E1,4.232839346E-1,-6.118125916E-1,6.281576157E-1
1.692470652E1,4.103165567E-1,-4.827771187E-1,-9.384918213E-2
1.693563970E1,3.217216432E-1,-2.434012890E-1,-9.171924591E-1
1.694657288E1,1.314941943E-1,4.028511047E-2,-1.280978203E0
1.695750605E1,7.243774086E-2,1.548428535E-1,-1.318468094E0
1.696843923E1,4.426242411E-2,2.433331013E-1,-1.329647064E0
1.697937241E1,2.216272801E-1,1.572842598E-1,-1.226252556E0
1.699030558E1,4.418295622E-1,-2.177906036E-2,-8.695840836E-1
1.700123876E1,3.353421688E-1,-5.282831192E-2,-4.049768448E-1
1.701217194E1,9.173374623E-2,1.015603542E-1,-1.745510101E-1
1.702310512E1,3.355503976E-1,1.568136215E-1,1.708250046E-1
1.703403829E1,6.491736174E-1,2.272510529E-2,5.730457306E-1
1.704497147E1,7.895656824E-1,-9.566020966E-2,6.536808014E-1
1.705590460E1,7.711146474E-1,-1.721775532E-1,1.940145493E-1
1.706683783E1,5.930448771E-1,-2.618103027E-1,-2.303152084E-1
1.707777100E1,3.787830472E-1,-2.755057812E-1,-1.060686111E-1
1.708870418E1,1.237163544E-1,-1.150283813E-1,2.669448853E-1
1.709963736E1,9.916722775E-3,2.607727051E-2,5.135879517E-1
1.711057053E1,3.629326820E-3,1.268253326E-1,7.180786133E-1
1.712150371E1,3.159636259E-2,2.027337551E-1,7.791099548E-1
1.713243689E1,3.181906939E-1,9.108901024E-2,4.698514938E-1
1.714337006E1,5.858163238E-1,-6.623268127E-4,8.503150940E-2
1.715430324E1,7.465727329E-1,-3.631281853E-2,-1.932821274E-1
1.716523642E1,7.126661539E-1,-2.157926559E-2,-4.183950424E-1
1.717616960E1,4.750342369E-1,1.095924377E-1,-5.178279877E-1
1.718710277E1,1.698415279E-1,1.088824272E-1,-4.580039978E-1
1.719803595E1,-3.556555510E-2,3.832840919E-2,-3.782081604E-1
1.720896913E1,-1.683369279E-1,3.114724159E-2,-2.650032043E-1
1.721990230E1,-1.503229737E-1,-5.117321014E-2,-1.908035278E-1
1.723083548E1,-7.179009914E-2,-2.685840130E-1,2.279367447E-1
1.724176866E1,5.170756578E-2,-3.953740597E-1,7.492036819E-1
1.725270184E1,9.788674116E-2,-3.067393303E-1,1.097280502E0
1.726363501E1,9.272581339E-2,-1.643769741E-1,1.245947838E0
1.727456819E1,1.357212067E-1,-5.287122726E-2,1.282007217E0
1.728550137E1,7.334136963E-2,9.193754196E-2,1.294423103E0
1.729643454E1,-8.890706301E-2,2.443132401E-1,1.283457756E0
1.730736772E1,-2.195489407E-1,4.173400402E-1,1.186539650E0
1.731830090E1,-4.441797137E-1,5.489451885E-1,1.131775856E0
1.732923408E1,-6.250860691E-1,5.944902897E-1,1.042522430E0
1.734016725E1,-6.580536366E-1,4.851489067E-1,9.303150177E-1
1.735110043E1,-5.654018521E-1,3.481013775E-1,8.352861404E-1
1.736203361E1,-4.958819747E-1,2.308320999E-1,7.502679825E-1
1.737296678E1,-4.152816534E-1,1.314718723E-1,5.924739838E-1
1.738389996E1,-2.703857422E-1,3.594636917E-3,4.506931305E-1
1.739483314E1,8.696430922E-2,-9.881424904E-2,4.757537842E-1
1.740576631E1,1.472991705E-2,-1.149835587E-1,2.345495224E-1
1.741669949E1,-8.440494537E-3,-4.091882706E-2,-1.000785828E-2
1.742763272E1,-1.113446951E-1,-4.638171196E-2,7.651042938E-2
1.743856590E1,-2.152622342E-1,-1.156761646E-1,1.272764206E-1
1.744949908E1,-3.600373268E-1,-9.384036064E-2,2.568626404E-1
1.746043225E1,-4.668881893E-1,-1.831645966E-1,7.774791718E-1
1.747136543E1,-4.688798785E-1,-6.298637390E-2,6.426391602E-1
1.748229861E1,-2.951865196E-1,7.272624969E-2,3.748474121E-1
1.749323178E1,-8.049821854E-2,-6.232428551E-2,1.349134445E-1
1.750416496E1,1.777137518E-1,-1.570420265E-1,3.174018860E-2
1.751509814E1,1.841728687E-1,-1.572842598E-1,8.450317383E-2
1.752603131E1,-8.045166731E-2,-8.096456528E-3,-1.733427048E-1
1.753696449E1,-3.678146601E-1,1.253173351E-1,-4.917573929E-1
1.758414158E1,0.000000000E0,0.000000000E0,0.000000000E0
1.759507481E1,1.018279791E-1,5.220174789E-3,-7.138061523E-2
1.760600804E1,2.738815546E-1,-1.464896202E-1,-1.799201965E-1
1.761694126E1,4.201647043E-1,-1.481239796E-1,1.050910950E-1
1.762787449E1,4.452657104E-1,4.450798035E-3,3.191947937E-1
1.763880772E1,3.378824592E-1,1.364996433E-1,3.852300644E-1
1.764974095E1,6.953585148E-2,2.423236370E-1,4.883756638E-1
1.766067413E1,-1.710518003E-1,2.183957100E-1,3.573150635E-1
1.767160736E1,-5.263590813E-1,1.097705364E-1,2.100639343E-1
1.768254059E1,-2.848217487E-1,-7.054781914E-2,6.544113159E-2
1.769347382E1,-5.759215355E-2,-4.194567204E-1,-4.822816849E-1
1.770440705E1,3.111031651E-1,-5.138087273E-1,-1.207774162E0
1.771534027E1,4.676359594E-1,-5.311623812E-1,-1.373045921E0
1.772627350E1,6.520007253E-1,-4.384366274E-1,-9.939870834E-1
1.773720673E1,7.019993067E-1,-2.850735188E-1,-4.676408768E-1
1.774813991E1,6.127309203E-1,-7.305073738E-2,-2.762784958E-1
1.775907319E1,3.799726963E-1,1.593801975E-1,-2.169322968E-1
1.777000642E1,9.348881245E-2,3.033614159E-1,-3.061561584E-1
1.778093965E1,-6.177204847E-2,2.876915932E-1,-2.275304794E-1
1.779187288E1,-1.467364430E-1,1.490895748E-1,1.437530518E-1
1.780280611E1,-1.667216122E-1,-3.916716576E-2,3.856563568E-1
1.781373929E1,-1.999801397E-2,-1.439979076E-1,4.354791641E-1
1.782467251E1,8.464217186E-2,-1.619145870E-1,7.966766357E-1
1.783560574E1,-5.921423435E-3,2.111840248E-2,8.676433563E-1
1.784653897E1,-1.480237246E-1,3.099014759E-1,4.728450775E-1
1.785747220E1,-4.225274622E-1,5.167407990E-1,4.683542252E-1
1.786840543E1,-7.183374166E-1,6.524899006E-1,6.515502930E-1
1.787933866E1,-8.529413342E-1,7.646842003E-1,1.000337601E0
1.789027189E1,-9.821382761E-1,8.760726452E-1,1.218910217E0
1.790120512E1,-1.144389749E0,7.848126888E-1,9.314231873E-1
1.791213835E1,-1.219362736E0,6.656613350E-1,4.499597549E-1
1.792307158E1,-1.267506599E0,4.502997398E-1,-1.291456223E-1
1.793400481E1,-1.273683548E0,3.478219509E-1,-6.909065247E-1
1.794493804E1,-9.073227048E-1,2.749748230E-1,-1.211111069E0
1.795587126E1,-6.831135750E-1,2.321434021E-1,-1.564563274E0
1.796680449E1,-4.001242816E-1,2.534353733E-1,-1.534428120E0
1.797773772E1,-1.126786768E-1,2.415313721E-1,-1.088280678E0
1.798867095E1,7.712662220E-3,1.923449039E-1,-3.343772888E-1
1.799960418E1,-2.075281739E-2,8.831429482E-2,2.258081436E-1
1.801053741E1,3.141631186E-2,5.908966064E-3,4.530401230E-1
1.802147064E1,1.572970450E-1,-5.231308937E-2,3.566007614E-1
1.803240387E1,3.680328727E-1,-1.012692451E-1,1.535692215E-1
1.804333710E1,5.546431541E-1,-1.805896759E-1,7.676982880E-2
1.805427033E1,6.072359681E-1,-3.305413723E-1,2.015571594E-1
1.806520356E1,5.982370377E-1,-4.374566078E-1,4.755563736E-1
1.807613679E1,6.344920397E-1,-4.771194458E-1,9.113206863E-1
1.808707001E1,6.726176739E-1,-4.966042042E-1,1.267518044E0
1.809800324E1,7.248158455E-1,-5.070825815E-1,1.482553482E0
1.810893647E1,8.592079282E-1,-5.668101311E-1,1.486672401E0
1.811986970E1,9.643154740E-1,-7.533756495E-1,1.113720894E0
1.813080293E1,1.161399603E0,-7.827082872E-1,6.201534271E-1
1.814173616E1,1.243557930E0,-6.442086697E-1,1.279487610E-1
1.815266939E1,1.107442498E0,-5.013412237E-1,-3.938312531E-1
1.816360262E1,1.002386093E0,-3.983876705E-1,-6.160192490E-1
1.817453585E1,1.041856885E0,-3.643348217E-1,-7.808523178E-1
1.818546908E1,1.139166594E0,-2.193737030E-1,-8.654975891E-1
1.819640231E1,6.850839853E-1,1.225426197E-1,-9.687776566E-1
1.820733554E1,1.574630141E-1,3.727939129E-1,-9.802131653E-1
1.821826882E1,-3.008994460E-2,5.194847584E-1,-6.618032455E-1
1.822920199E1,-2.106513679E-1,5.190603733E-1,-3.147106171E-1
1.824013522E1,-8.604346216E-2,4.407985210E-1,5.564689636E-2
1.825106845E1,3.137484789E-1,4.336805344E-1,3.264932632E-1
1.826200168E1,7.259237170E-1,2.787532806E-1,6.307258606E-1
1.827293491E1,9.767275453E-1,7.109642029E-3,1.021135330E0
1.828386814E1,8.378570080E-1,-1.036621332E-1,1.273973465E0
1.829480137E1,6.682467461E-1,-1.702796221E-1,1.475543976E0
1.830573460E1,3.735102415E-1,-1.399080753E-1,1.255925179E0
1.831666783E1,4.204426408E-1,-1.003937721E-1,7.438554764E-1
1.832760111E1,-6.879159808E-2,-3.729033470E-2,1.090021133E-1
1.833853429E1,-5.110536814E-1,2.261939049E-1,-5.071773529E-1
1.834946757E1,-4.376702905E-1,-2.750635147E-3,-8.300561905E-1
1.836040074E1,-1.533428431E-1,-4.448890686E-1,-7.842626572E-1
1.837133402E1,-9.448289871E-2,-3.509609699E-1,-9.245357513E-1
1.838226725E1,-4.789276123E-1,-2.946166992E-1,-1.007389069E0
1.839320048E1,-7.920431495E-1,-2.723653316E-1,-8.734197617E-1
1.840413371E1,-9.405967593E-1,-1.938889027E-1,-8.259963989E-1
1.841506694E1,-1.079429388E0,-2.549519539E-1,-6.957483292E-1
1.842600017E1,-1.171872616E0,-4.397912025E-1,-4.945678711E-1
1.843693340E1,-1.244128466E0,-9.188643694E-1,4.159317017E-1
1.844786663E1,-1.188140988E0,-1.063784957E0,5.830965042E-1
1.845879986E1,-9.150924683E-1,-8.428908587E-1,2.825870514E-1
1.846973304E1,-7.072820663E-1,-7.153198719E-1,1.081848145E-2
1.848066632E1,-4.427182674E-1,-6.873511076E-1,5.885887146E-2
1.849159955E1,-1.556480527E-1,-7.296949625E-1,3.230705261E-1
1.850253277E1,2.614432573E-2,-7.265878916E-1,5.701828003E-1
1.851346600E1,8.063602448E-2,-5.838317871E-1,6.927938461E-1
1.852439923E1,6.013920903E-2,-3.100504875E-1,6.873989105E-1
1.853533251E1,-1.108380705E-1,-8.153915405E-3,6.655902863E-1
1.854626574E1,-1.628032625E-1,2.155163288E-1,6.193294525E-1
1.855719897E1,-1.163327172E-1,4.105198383E-1,6.668310165E-1
1.856813220E1,1.619219184E-1,3.429679871E-1,5.715417862E-1
1.857906543E1,6.395305395E-1,6.518912315E-2,5.528869629E-1
1.858999866E1,9.495801926E-1,-8.343219757E-3,7.440338135E-1
1.860093189E1,6.721415520E-1,3.870592117E-1,9.061975479E-1
1.861186512E1,1.241014153E-1,5.475234985E-1,8.657388687E-1
1.862279835E1,-8.771783859E-2,4.439642429E-1,5.776109695E-1
1.863373158E1,-1.960351914E-1,3.623127937E-1,1.776666641E-1
1.864466486E1,-1.530492455E-1,1.495139599E-1,-2.278966904E-1
1.865559809E1,-2.562625706E-1,7.094383240E-2,-3.753175735E-1
1.866653132E1,-1.606307179E-1,5.877709389E-2,-5.723381042E-1
1.867746455E1,-7.976250350E-2,1.035706997E-1,-1.017652512E0
1.868839777E1,5.142326280E-2,1.169531345E-1,-1.311878204E0
1.869933100E1,1.006328166E-1,-5.893945694E-3,-1.403501034E0
1.871026423E1,1.811936796E-1,-1.166472435E-1,-1.219648361E0
1.872119746E1,2.741526067E-1,-2.571771145E-1,-8.586654663E-1
1.873213069E1,8.053983748E-2,-2.339079380E-1,-3.427534103E-1
1.874306397E1,-2.896300554E-1,1.098334789E-1,3.384294510E-1
1.875399720E1,-2.929466963E-1,3.515362740E-1,4.866361618E-1
1.876493043E1,-5.764137506E-1,8.079743385E-2,9.295406342E-1
1.877586366E1,-3.602342308E-1,6.656527519E-2,1.221645355E0
1.878679689E1,-9.477156401E-2,1.125075817E-1,9.874696732E-1
1.879773012E1,4.396046698E-2,6.282329559E-2,6.590442657E-1
1.880866335E1,1.954351813E-1,-8.599162102E-2,4.278144836E-1
1.881959663E1,4.771647230E-2,-2.146692276E-1,2.697038651E-1
1.883052986E1,-1.277094148E-2,-8.360528946E-2,5.329036713E-2
1.884146309E1,-3.995444998E-2,-1.505765915E-1,-4.407882690E-1
1.885239632E1,-1.544289440E-1,-3.286910057E-1,-1.112249374E0
1.886332955E1,-7.349497080E-2,-2.689888477E-1,-1.581886292E0
1.887426277E1,-1.005181074E-1,-1.107771397E-1,-1.694555283E0
1.888519600E1,-1.249400526E-1,-1.192405224E-1,-1.502068520E0
1.889612923E1,-1.041833609E-1,-1.268241405E-1,-1.315015316E0
1.890706251E1,1.791722178E-1,-1.325950623E-1,-1.078489304E0
1.891799574E1,3.288326263E-1,1.387717724E-1,-9.047698975E-1
1.892892897E1,2.620232999E-1,3.605346680E-1,-6.200714111E-1
1.893986220E1,1.454283744E-1,5.282106400E-1,-2.661037445E-2
1.895079543E1,1.394712478E-1,4.658546448E-1,6.067819595E-1
1.896172866E1,1.548929811E-1,3.112165928E-1,9.914331436E-1
1.897266194E1,4.683797956E-1,2.457213402E-1,1.262089729E0
1.898359517E1,5.304135084E-1,4.060816765E-2,1.258874893E0
1.899452840E1,4.457245767E-1,-2.228035927E-1,1.030243874E0
1.900546163E1,1.807821542E-1,-4.486856461E-1,7.003307343E-1
1.901639491E1,-3.916072845E-2,-2.519018650E-1,3.189125061E-1
1.902732814E1,-1.174645498E-1,-2.190313339E-1,-1.207666397E-1
1.903826137E1,1.750981361E-1,-2.192814350E-1,-6.824159622E-1
1.904919460E1,3.755615354E-1,-2.376077175E-1,-1.132969856E0
1.906012783E1,2.686629593E-1,-1.420948505E-1,-1.277554512E0
1.907106106E1,-2.609707415E-2,1.391799450E-1,-1.001597404E0
1.908199434E1,-2.854813337E-1,3.782699108E-1,-5.362844467E-1
1.909292757E1,-3.110986948E-1,4.251437187E-1,-1.721057892E-1
1.910386080E1,-1.222915351E-1,2.948346138E-1,1.098423004E-1
1.911479402E1,-8.672899008E-2,2.133250237E-1,3.719806671E-1
1.912572725E1,1.683305949E-2,5.508351326E-2,4.872283936E-1
1.913666048E1,1.853891462E-2,-4.356687069E-1,3.056173325E-1
1.914759376E1,-1.931336671E-1,-9.031907320E-1,1.475372314E-1
1.915852699E1,-6.437547505E-2,-6.823118925E-1,5.002899170E-1
1.916946022E1,-2.997201681E-1,-3.061912060E-1,7.254953384E-1
1.918039350E1,-3.004517555E-1,4.148745537E-2,7.377758026E-1
1.919132673E1,-2.356269807E-1,2.229089737E-1,5.842218399E-1
1.920225996E1,4.297645018E-2,3.183841705E-1,4.619493484E-1
1.921319319E1,2.661795020E-1,4.222030640E-1,4.038944244E-1
1.922412642E1,1.901716888E-1,4.726696014E-1,2.964439392E-1
1.923505970E1,3.170376644E-2,4.798598289E-1,1.251211166E-1
1.924599293E1,-9.524511546E-2,2.881004810E-1,3.390216827E-2
1.925692616E1,-1.040964201E-1,8.280563354E-2,-5.065822601E-2
1.926785939E1,-2.078188211E-2,-7.016801834E-2,-1.250638962E-1
1.927879262E1,1.969677210E-2,-6.562376022E-2,-2.209558487E-1
1.928972590E1,9.584753960E-2,-4.631757736E-3,-3.352632523E-1
1.930065913E1,3.805094212E-2,4.428410530E-2,-2.678337097E-1
1.931159236E1,-4.141182303E-1,-1.015505791E-1,-1.107454300E-1
1.932252564E1,-6.626516581E-1,-2.155237198E-1,1.463651657E-1
1.933345887E1,-2.490595430E-1,1.216077805E-2,2.482547760E-1
1.934439210E1,-1.521636397E-1,3.144240379E-2,1.922197342E-1
1.935532533E1,-2.902137637E-1,5.724287033E-2,1.513223648E-1
1.936625856E1,-1.958650649E-1,1.928489208E-1,2.549571991E-1
1.937719184E1,-5.196336657E-2,1.190462112E-1,4.936571121E-1
1.938812507E1,3.078476712E-2,6.772041321E-3,9.357404709E-1
1.939905830E1,1.121943444E-1,-2.162599564E-2,1.243110657E0
1.940999152E1,1.144108772E-1,-4.595518112E-3,1.172976494E0
1.942092481E1,7.161039859E-2,-1.602292061E-2,8.660736084E-1
1.943185804E1,6.912196428E-2,-4.350566864E-2,6.311445236E-1
1.944279126E1,8.652563393E-2,-6.306433678E-2,4.399156570E-1
1.945372455E1,-8.009555936E-2,-1.098084450E-1,2.297744751E-1
1.946465777E1,-2.476873398E-1,-1.641643047E-1,-7.565879822E-2
1.947559100E1,-1.985455453E-1,-1.554107666E-1,-4.420938492E-1
1.948652423E1,-2.082381845E-1,-1.003775597E-1,-4.653797150E-1
1.949745751E1,-1.637637019E-1,-1.719880104E-2,-4.795074463E-1
1.950839074E1,-1.629243195E-1,4.367303848E-2,-7.491245270E-1
1.951932397E1,-8.605360985E-3,6.153750420E-2,-8.726549149E-1
1.953025715E1,7.740075886E-2,2.253890038E-2,-8.969287872E-1
1.954119048E1,5.124304444E-2,2.769470215E-2,-7.031984329E-1
1.955212371E1,1.080815122E-1,-9.848594666E-3,-3.692350388E-1
1.956305689E1,8.918061852E-3,4.865622520E-2,1.346683502E-2
1.957399022E1,-5.235265195E-2,1.248013973E-1,4.011220932E-1
1.958492345E1,-9.802840650E-2,6.607842445E-2,5.038738251E-1
1.959585668E1,-8.724908531E-2,-4.238295555E-2,5.698413849E-1
1.960678991E1,7.183790207E-3,-7.040357590E-2,6.119241714E-1
1.961772319E1,4.221506417E-2,-2.153148651E-1,6.625461578E-1
1.962865642E1,7.598737627E-2,-3.271532059E-1,4.592094421E-1
1.963958965E1,1.810081452E-1,-2.118461132E-1,2.255468369E-1
1.965052293E1,2.767147124E-2,5.141592026E-2,2.664279938E-2
1.966145616E1,-1.076738238E-1,2.402894497E-1,2.333488464E-1
1.967238939E1,-3.667028844E-1,2.918176651E-1,5.759105682E-1
1.968332267E1,-3.432682157E-1,2.657935619E-1,7.830591202E-1
1.969425590E1,6.963640451E-3,2.032902241E-1,6.948957443E-1
1.970518913E1,2.764303386E-1,6.905865669E-2,5.595722198E-1
1.971612241E1,3.123528361E-1,-4.364943504E-2,4.051942825E-1
1.972705564E1,1.274904758E-1,-1.258656979E-1,1.388397217E-1
1.973798887E1,-7.875478268E-2,-2.400252819E-1,-2.594718933E-1
1.974892215E1,-1.221159697E-1,-3.457891941E-1,-7.117385864E-1
1.975985538E1,4.730752110E-2,-3.929240704E-1,-1.247039795E0
1.977078861E1,1.977920234E-1,-2.435886860E-1,-1.647268772E0
1.978172189E1,8.150783181E-2,-2.046895027E-2,-1.749869347E0
1.979265512E1,-7.776033878E-2,3.339192867E-1,-1.570030212E0
1.980358835E1,-1.649072766E-1,4.290986061E-1,-1.152167320E0
1.981452163E1,-1.506137252E-1,3.163030148E-1,-6.413326263E-1
1.982545486E1,-3.404435515E-2,1.385574341E-1,-4.981422424E-2
1.983638809E1,-5.367529392E-2,1.402401924E-2,5.801639557E-1
1.984732137E1,-1.408595145E-1,-4.818916321E-2,9.332904816E-1
1.985825460E1,-4.213929176E-2,-1.125721931E-1,8.921260834E-1
1.986918783E1,9.401303530E-2,-1.410393715E-1,5.131874084E-1
1.988012111E1,1.689410359E-1,-7.211136818E-2,7.306957245E-2
1.989105434E1,5.790725350E-2,1.005105972E-1,-8.839702606E-2
1.990198757E1,-9.839853644E-2,2.656207085E-1,1.530551910E-2
1.991292085E1,-1.316998750E-1,3.275170326E-1,2.203369141E-1
1.992385408E1,-3.069558740E-2,2.437348366E-1,4.777469635E-1
1.993478736E1,7.660929859E-2,1.650955677E-1,6.248140335E-1
1.994572059E1,8.473034203E-2,6.575226784E-2,5.316038132E-1
1.995665382E1,8.524350822E-2,-8.234858513E-2,1.431493759E-1
1.996758710E1,2.722853422E-2,-1.612286568E-1,-4.258174896E-1
1.997852033E1,-1.097381711E-1,-1.318104267E-1,-9.149417877E-1
1.998945356E1,-1.754983068E-1,-1.164202690E-1,-1.291747093E0
2.000038684E1,-1.308857501E-1,-1.013290882E-1,-1.472821712E0
2.001132007E1,-1.064919233E-1,-9.283065796E-3,-1.438607693E0
2.002225335E1,-1.435433775E-1,1.947412491E-1,-1.129881859E0
2.003318658E1,-1.003607959E-1,3.564574718E-1,-6.611328125E-1
2.004411981E1,-8.313864470E-3,2.711553574E-1,-2.283735275E-1
2.005505309E1,6.908510625E-2,9.566760063E-2,1.231985092E-1
2.006598632E1,-1.257166266E-3,-7.590055466E-3,2.197093964E-1
2.007691960E1,-1.729379892E-1,-1.636409760E-2,2.416076660E-1
2.008785283E1,-2.279640287E-1,5.867242813E-3,2.328796387E-1
2.009878606E1,-1.619884372E-1,8.069992065E-3,1.755886078E-1
2.010971934E1,-1.540733874E-2,-1.455974579E-2,1.563510895E-1
2.012065257E1,6.971205771E-2,-1.514458656E-2,3.039703369E-1
2.013158585E1,5.920365453E-2,1.255679131E-2,5.383081436E-1
2.014251908E1,1.020011157E-1,6.128191948E-2,7.841100693E-1
2.015345231E1,1.696993858E-1,6.804633141E-2,9.353475571E-1
2.016438559E1,1.273399591E-1,3.767323494E-2,8.094606400E-1
2.017531882E1,3.582762182E-2,1.603913307E-2,3.623952866E-1
2.018625210E1,-1.016961634E-1,2.164125443E-3,-1.419258118E-1
2.019718533E1,-2.602536380E-1,-7.808923721E-3,-5.156688690E-1
2.020811856E1,-3.720664680E-1,4.931378365E-2,-7.818870544E-1
2.021905184E1,-3.830878437E-1,1.784961224E-1,-9.062929153E-1
2.022998507E1,-3.155935407E-1,3.167150021E-1,-6.998319626E-1
2.024091835E1,-2.764004171E-1,4.117324352E-1,-3.103199005E-1
2.025185158E1,-1.610091776E-1,4.059381485E-1,4.961967468E-2
2.026278486E1,4.211553931E-2,2.632634640E-1,4.027280807E-1
2.027371809E1,1.582476199E-1,9.620714188E-2,5.335350037E-1
2.028465137E1,1.223684177E-1,-6.505370140E-2,5.464162827E-1
2.029558460E1,1.148822904E-2,-1.927294731E-1,3.730421066E-1
2.030651783E1,-1.382763684E-1,-2.078552246E-1,6.770133972E-2
2.031745111E1,-2.650024295E-1,-1.844000816E-1,-2.023038864E-1
2.032838434E1,-3.997770846E-1,-1.319806576E-1,-4.267292023E-1
2.033931762E1,-4.118368030E-1,2.025580406E-2,-4.301824570E-1
2.035025085E1,-2.656971812E-1,1.128695011E-1,-1.864099503E-1
2.036118413E1,-2.392168045E-1,1.764721870E-1,2.738714218E-1
2.037211736E1,-2.228830308E-1,2.337846756E-1,8.766059875E-1
2.038305064E1,-7.278239727E-2,2.612223625E-1,1.349186897E0
2.039398387E1,6.356500089E-2,2.301011086E-1,1.547505379E0
2.040491715E1,2.693954110E-1,3.268861771E-2,1.367088318E0
2.041585038E1,2.520188391E-1,-2.297289371E-1,6.895961761E-1
2.042678361E1,1.434425414E-1,-4.788460732E-1,5.230426788E-2
2.043771689E1,-9.741994739E-2,-5.014966726E-1,-5.140151978E-1
2.044865012E1,-3.747571707E-1,-5.211573839E-1,-1.141976357E0
2.045958340E1,-2.792268097E-1,-4.413301945E-1,-1.661761284E0
2.047051663E1,-7.522204518E-2,-2.598092556E-1,-1.959654331E0
2.048144991E1,-6.148588657E-2,5.451250076E-2,-1.910411358E0
2.049238314E1,-6.679974496E-2,3.257791996E-1,-1.419242859E0
2.050331642E1,-1.609716862E-1,4.365117550E-1,-6.437788010E-1
2.051424965E1,-6.775915623E-2,2.906432152E-1,-5.304908752E-2
2.052518293E1,1.218906119E-1,-9.441304207E-2,4.201421738E-1
2.053611616E1,3.505199552E-1,-3.049786091E-1,6.729860306E-1
2.054704944E1,2.871634662E-1,-2.580780983E-1,7.453727722E-1
2.055798267E1,-5.694648623E-2,-1.413621902E-1,7.205085754E-1
2.056891595E1,-2.113838345E-1,5.533695221E-3,5.044088364E-1
2.057984918E1,-1.991518438E-1,2.395675182E-1,3.135156631E-1
2.059078246E1,-2.357364446E-1,3.175139427E-1,3.120517731E-1
2.060171569E1,-2.636471689E-1,1.681306362E-1,5.783853531E-1
2.061264897E1,-1.427793354E-1,3.814530373E-2,5.168781281E-1
2.062358225E1,-1.096582413E-2,3.535628319E-2,2.315692902E-1
2.063451548E1,-3.291337192E-2,5.210971832E-2,4.253387451E-4
2.064544871E1,-5.859349668E-2,5.874347687E-2,-2.269096375E-1
2.065638199E1,-1.478735507E-1,2.873325348E-2,-3.940620422E-1
2.066731522E1,-2.877834439E-1,-1.558852196E-2,-3.750600815E-1
