Time_interval,Time,Acceleration_x,Acceleration_y,Acceleration_z
0,0.259067675,-0.1597236030020408,0.6934139606816326,1.5429082793285716
1,0.754067675,0.18559836744199998,-0.10670853711966,-0.20805773739200004
2,1.254067675,0.0278216469348,-0.17982797070416,-0.03844764709399999
3,1.754067675,-0.09254501105138001,-0.31893913804958,0.0003754138918000027
4,2.254067675,0.07729620337199998,-0.09194130418019998,-0.0116880703478
5,2.754067675,-0.43294722438199995,-0.29662485483,-0.19578446388999995
6,3.254067675,0.17613462923239998,0.1592675567125,-0.036762790718499964
7,3.754067675,0.2901715260716,-0.027352652534000002,0.654078416862
8,4.254067675,-0.044632143969999996,-0.10458299158400003,0.014834680533999922
9,4.754067675,-0.573525633865,-0.0674736344448,0.27245742796760003
10,5.254067675,0.22650019107039998,-0.4830250185616,-0.21882843972939997
11,5.754067675,-0.45216030656080003,-0.14475124101960002,1.3721150015666002
12,6.254067675,0.05206618486632003,-0.0751692235228,-1.2340400696188
13,6.754067675,-0.082507176676,-0.327968813528,0.9723972988442
14,7.254067675,-0.05277203313322002,-0.09820497806220001,-0.965392484637
15,7.754067675,-0.66771863217,0.07545794728159999,-0.27294237145199995
16,8.254067675,1.1253877127360001,-0.08392744897819998,-0.16122709270760002
17,8.754067675,0.06255101798379999,-0.6155303569194,0.3051783562194
18,9.254067675,-0.39505127194309997,0.051735979924600016,-0.457254638668
19,9.754067675,-0.1434079575238,0.23678211813220001,-0.9931293296833799
20,10.25406768,-0.40527026887646,-0.449955312919,-0.177459545052
21,10.75406768,0.6278045869083999,-0.49105408423,-0.3906061841288
22,11.25406768,-1.3604973983002,-0.30716053241,0.5648419095124
23,11.75406723,0.26842615607000003,-0.7294472879274,0.35228440285051205
24,12.25406718,0.1810533571126,-0.25850839436600004,-0.5563163662514
25,12.75406718,-1.0579339694860002,-0.15936200620020002,0.6483248519556
26,13.25406718,-0.27185681163840003,-0.6128628682704,0.3634769248782
27,13.75406718,0.1987738280534,-0.045445114395200006,0.10131331450139996
28,14.25406718,0.14265103962400003,-0.1761130022804,0.3125162029758
29,14.75406718,-0.3317032879992,0.7104755830767999,-1.3194352722328
30,15.25406718,-0.41607326449,-0.178775901841,1.199457902920022
31,15.75406718,0.1424868480438,0.12255764483800002,-1.22823029520602
32,16.25406718,-0.011420770878200006,-0.36597891336739996,0.08315300936499997
33,16.75406718,-0.125462901612,-0.5193451678600001,-0.140283832554
34,17.25406718,0.51529469250696,-0.5761417055526,0.49091744422800004
35,17.75406718,-0.9629463148099999,-0.15601077558388002,-1.5414993285540002
36,18.25406718,-0.399645047179,-0.11500389569700001,1.400560941704
37,18.75406718,0.6392757773568,-0.47332077980309994,-0.5088002919960001
38,19.25406718,-0.024358343496799998,-0.2750626897532,-0.678532390556
39,19.75406718,0.5441795009712,-0.04116289139999999,1.3554576587412002
40,20.25406718,-0.5192729115720001,-0.505458137974,-0.8565233898038
41,20.754067180000003,-1.8424805924796,-0.7448289584599999,0.5488346958070001
42,21.254067180000003,0.8266332566788,-0.4086423492516801,0.40331839571160005
43,21.754067180000003,-0.1429506111532,-0.3370910549122,-0.1346981001370001
44,22.254067180000003,-0.3792805784752,0.2201753377664,-0.41697858808679994
45,22.754067180000003,0.6791652345826,0.10715197567399999,-0.15487795833688
46,23.254067180000003,-0.0478490507458,-0.018139486316800006,-0.38571310999639996
47,23.754067180000003,0.10586092473208,-0.2076603937112,0.016440315318799997
48,24.254067180000003,-0.2014544272504,-0.20099854471260004,-0.204956445665
49,24.754067180000003,-0.2615987229142,0.01668446066800001,0.606202421244
50,25.254067180000003,-0.008527843955599999,0.26530699729179996,-0.28689007758199997
51,25.754067180000003,-0.0986545669837,0.41567943097559995,0.307256097741
52,26.254067180000003,-0.2327148151306,-0.34673189162539997,0.04236769675439996
53,26.754067180000003,-0.003281952115400004,0.16794629096379998,-0.2543824911024
54,27.254067180000003,-0.4172586178644,-0.1310236024578,0.1694160461064
55,27.754067180000003,0.4818802785446,0.13011802675200002,-0.4909470367342
56,28.254067180000003,0.32468866823459996,-0.3045749950424,-0.078930826214606
57,28.754067180000003,-0.32407323835484,-0.15882589813186002,-0.16835281374059996
58,29.254067180000003,-0.0409056162818,-0.20069817539479998,0.23779417993808
59,29.754067180000003,0.274567513493,-0.126810989397,-0.2818717097542
60,30.254067180000003,-0.52742999315284,0.2784256935118,0.6372829723204
61,30.754067180000003,-0.19441855669334,0.11596548084120001,-0.12332448959859998
62,31.254067180000003,0.11953950524168,0.36098880766020003,0.1437346076534
63,31.754067180000003,0.021432651282407997,-0.284916038518,-0.33107358929760006
64,32.25406718,-0.1584458708482,0.48788743973579995,-0.3882710266158
65,32.75406718,0.327064512373,-0.275858230575,0.05982122901934602
66,33.25406718,0.6762358618428,-0.1305636024429,-0.7813108825886
67,33.75406718,-0.17125740768220002,-0.48660352704688004,0.48004087447620003
68,34.25406718,-0.4391477132022,0.30023462295956604,-0.05491936684979999
69,34.75406718,0.3091898488977,-0.4392699432778,0.0389035033928
70,35.25406718,-0.5714750146768001,-0.259341206514,-0.11951574327200001
71,35.75406718,0.7648787522282001,0.03609264374618001,0.29391263963743997
72,36.25406718,-0.35419592111939996,-0.2930203819476,-0.2778158187712
73,36.75406718,-0.4925094425966,-0.11779053214000001,0.001553602199999964
74,37.25406718,-0.695077345104,0.4656599072998,0.1275073909836
75,37.75406718,-0.19044090748499998,-1.8040400695796002,0.388314027772
76,38.25406718,-0.464906481504,-0.11739940761162002,-0.029816293739999996
77,38.75406718,0.6788316941566,-0.98337347025576,0.034110269531999964
78,39.25406718,0.17187015215608,0.08903696437619998,-0.7952394389994001
79,39.75406718,0.3202381777588,0.31222397544746,-0.0231978034878
80,40.25406718,-0.026517875200160006,0.159724054314,-0.4342297457932
81,40.75406718,0.0018880885592000062,0.0222417449874,-0.59495217326658
82,41.25406718,-0.1679173051986,0.032183516359200005,0.4357477283019999
83,41.75406718,0.15865409371960001,-0.3809433675214,0.2865177822252
84,42.25406718,-0.07229421141459999,-0.33468712362400005,-0.0009132576181999858
85,42.75406718,-0.2175626087274,0.11713355062060002,-0.12191957473400002
86,43.25406718,0.21644593714160001,0.011617009644399996,-0.10076235771240002
87,43.75406718,0.38707485202280006,-0.2837439620528,-0.124771823826
88,44.25406718,0.3539087915602,-0.1417746877716,0.289878730764
89,44.75406718,-0.493051757802052,0.38116907506,-0.07100697518520001
90,45.25406718,0.2319404911998,-0.13972702933735998,0.3906579494272676
91,45.75406718,0.1592797148224,0.10019444900499998,-0.280536956818
92,46.25406718,0.050352669048,0.2724739563118,0.32055182457340003
93,46.75406718,-0.28615343096580004,-0.27214562237,-0.43159097673400004
94,47.25406718,-0.16442165132751999,0.14274044455180002,-0.23598487853279998
95,47.75406718,0.20599283849039998,-0.20340334112800001,-0.22941941262
96,48.25406718,-0.200113780814,-0.1525234901552,-0.05782333371840002
97,48.75406718,-0.134506801984,-0.14824643969719997,0.09225831990399998
98,49.25406718,0.04434152718400001,-0.1914457690904,0.220569467586
99,49.75406718,-0.15387350798396,0.134245880806,0.39142127992840003
100,50.25406718,-0.16938649235929998,-0.33238908411060003,-0.13081987378104
101,50.75406718,0.20348689855899998,0.211155123712,0.42956840512160005
102,51.25406718,0.14288911789848002,-0.04948466298528,-0.16725519183560003
103,51.75406718,-0.11508932418034,0.287095961532,-0.05839056017480001
104,52.25406718,-0.07341234566100001,-0.05747768463399998,-0.40566701894800006
105,52.75406718,-0.3279083066762,0.0772242015592,0.1921323490416
106,53.25406718,-0.09581925862640002,-0.1993455344804,-0.3535118388408
107,53.75406718,0.1842602586862,0.012020225506599994,0.320675592384
108,54.25406718,0.04118380007764001,-0.031073446601220002,0.747019681976
109,54.75406718,0.13197101831200006,-0.10330625534732002,-0.9339133262970001
110,55.25406718,-0.05107900259499999,0.08013583422438,0.6594822597164
111,55.75406718,-0.5829235815496,0.19448200226878,-0.313901386214
112,56.25406718,0.25198145908284,-0.029038863172399988,-0.1665845584698
113,56.75406718,0.757064984452,0.6069587993991999,-0.56982059482768
114,57.25406718,-0.88629831791,-0.8115414189806001,0.333623542778
115,57.75406718,-0.31635751722719996,-0.084644403464,-0.91393274308
116,58.25406718,-0.6486202108870001,-0.36302437783999997,-0.9637576389492
117,58.75406718,0.8291961765096001,-0.3854182470026,1.0282824515820002
118,59.25406718,-0.13876163364544,-0.451254224802,-0.37414011005439995
119,59.75406718,0.705058286482,-1.0237364256458799,0.417403964976
120,60.25406718,-0.88348296073604,0.030205139194999998,0.21162724488999998
121,60.75406718,0.3208464655416,-0.024310057734799998,0.07189530370870001
122,61.25406718,-0.4702127158986,-0.2039006367376,-0.1205726718632
123,61.75406718,0.7426503753561999,0.26038070917348,0.6540611267186001
124,62.25406718,-0.2220905428994,-0.5903637146902,-0.25949535374160004
125,62.75406718,0.5546039763014,0.516226547909,0.19420948981
126,63.25406718,0.0818099945728,-0.41434821605300004,-0.6562758731939999
127,63.75406718,0.7127537873476,0.2062812817958,-0.06356761929200001
128,64.25406718,-0.5040277558714,-0.491327867526,-0.37112629892
129,64.75406718,0.37901912599624,0.232443946182,-0.026019153602400015
130,65.25406718,0.0301932564456,-0.4325857034542,-0.27505160331639994
131,65.75406718,-0.43774254350279995,-0.07423096418160001,0.01059980394460002
132,66.25406718,0.16469483273020002,-0.1148892545134,-0.14059091568780002
133,66.75406718,-0.31825637159639997,-0.06219370065800001,0.49467841144799996
134,67.25406718,0.11950154335476,-0.1252647066132,0.12615231509792
135,67.75406718,-0.10499865110839998,0.07182221650100001,0.31895363812
136,68.25406718,0.2662168352578,0.0325910842998,0.08614627838439998
137,68.75406718,-0.18338942813839998,-0.11069266555919999,0.18615273475959998
138,69.25406718,0.16764719128604,0.46895923435702,-0.24345380780599998
139,69.75406718,-0.156317505822,-0.6530144000039999,-0.32090196609708
140,70.25406718,0.2437098240894,0.1211765885184,0.176821098392
141,70.75406718,0.2042249852314,-0.41611334593480004,-0.5471804141858
142,71.25406718,-0.4096970690412,0.5923043958945801,0.2409561633848
143,71.75406720699999,0.4282164319878,-0.461386074515,-0.328105525918
144,72.25406721,0.067735468888,0.02329463897212001,-0.10647595402984762
145,72.75406721,0.7601845010859399,-0.34411320566520004,0.2367011737814
146,73.25406721,-1.2569527256408,-0.16031643631979997,-0.1806526184066
147,73.75406721,0.8892007531534,-0.41112030384835996,0.6154366207059999
148,74.25406721,-0.520009540922,-0.3524691831642,-0.39458388325439997
149,74.75406721,1.0619334173112,-0.236490497625,1.0975707245422
150,75.25406721,-0.725640667878,0.12337236283479999,0.07118937489580002
151,75.75406721,-0.101875433885226,-0.5996825975022,-0.21569457052559998
152,76.25406721,-0.509377478088,0.04406609893559999,0.3149940204934
153,76.75406721,0.5579196456194,0.3476603591458,0.29918252943599993
154,77.25406721,-0.52890792368816,-0.3687033289618,-0.951030340201
155,77.75406721,0.24280902741546,0.2983008944772,0.05121627807259999
156,78.25406721,-0.7087581753406,-0.50721462428154,-0.49926531796620005
157,78.75406721,-0.01887120005674,0.061637451618199994,-0.3113203048716
158,79.25406721,0.9501128267856,-0.5496231997172,0.31587614060480007
159,79.75406721,-0.50734307467084,-0.10249959945600001,-0.435131492612
160,80.25406721,1.244205745779,-0.60592229480964,0.9477721405
161,80.75406721,-0.5184019893603999,-0.43853916881399996,-0.4682127380308
162,81.25406721,0.67046451168638,-0.27048485633020003,1.055020465843
163,81.75406721,-1.0036558571574,-0.1715118980386,-0.23932603834200003
164,82.25406720999999,1.5473767274648,0.007137794477000013,0.539865779856
165,82.75406720999999,-0.9970788633944401,-0.89348998548,-0.5793436622472
166,83.25406720999999,1.1262410545896,0.49206375954099996,0.6201325226486
167,83.75406720999999,-0.993232429026,-0.783706376537,-1.2705335426602
168,84.25406720999999,0.18020646689739997,0.1772406983,0.0813511466856
169,84.75406720999999,0.723205748149,-1.0329075545412,-0.995245761896
170,85.25406720999999,0.07649238109399996,-0.3460553622168,0.48519797319599994
171,85.75406720999999,0.2726179648,-0.46819898337540006,0.41494137761160005
172,86.25406720999999,-0.550071352724,-0.38408739717536,-0.661408786832
173,86.75406720999999,0.6398528037039,-0.27565650011984,1.1222159481376002
174,87.25406720999999,-0.42986691118613995,-0.2233384543714,-0.510324707054
175,87.75406720999999,1.1945570966561398,-0.2728975451056,1.2762433719418
176,88.25406720999999,-1.512918730412,-0.656663500655,-0.5805702877907999
177,88.75406720999999,2.664394142692,0.1687396062922,0.33920042040459997
178,89.25406720999999,-0.215508278026,-3.6201605603580003,2.8565166616620004
179,89.75406720999999,-2.19986090669,-6.16412341122,2.368143302183
180,90.25406720999999,-3.1460736704976,-0.981747360296,3.8664868354229465
181,90.75406720999999,-0.21927189343419998,0.17420981766220003,-1.8957945251800001
182,91.25406720999999,0.1453957581732,-1.0188518798298,0.13510952936799994
183,91.75406720999999,-0.6209994876476,0.189260616318,-0.23537402154426001
184,92.25406720999999,0.3573305544008,-0.10840840338320001,0.060450925852399966
185,92.75406720999999,-0.385586600278,-0.29866533951100005,-0.4785356044268
186,93.25406720999999,0.384222082518,-0.4725333130224,1.0800063800400002
187,93.75406720999999,-0.3407176550748,-0.14951251010972,-0.6229315280856
188,94.25406720999999,1.6784703421418001,-0.737555226095,2.0696064376520003
189,94.75406720999999,-1.13319069624008,-1.1394824424354,-1.04187438009
190,95.25406720999999,0.60826733470454,0.34564225432400003,1.8837247085562001
191,95.75406720999999,-0.22044418008204,-1.444852415352,-1.423085899378
192,96.25406720999999,0.6145169840168601,0.6472847705728,0.5141641330768
193,96.75406720999999,-0.37906152366,-0.583391561523,-0.499649114642
194,97.25406720999999,-0.17005317927664002,0.46029694391014003,-0.2322569942768
195,97.75406720999999,0.3508423411872,-0.651600226180464,-0.5292671680664001
196,98.25406720999999,-0.513923499262,0.28257522793188,0.060260848953999996
197,98.75406720999999,0.47183519305120003,-0.2031916640982,0.22478129385584
198,99.25406720999999,-0.3162764540488,-0.16830884728284,-0.35732736593159997
199,99.75406720999999,1.0509181046536,-0.45934219776600005,0.7281394386118001
200,100.25406720000001,-1.0305713618362,-0.07020654144060001,-0.66006575582306
201,100.75406720000001,1.7962815821206,-0.7619932431142,1.226192646041
202,101.25406720000001,-1.4651899909286,-0.6745842909763999,-0.44761042594480005
203,101.75406720000001,1.45330984471,0.0583211481432,0.846578435898
204,102.25406720000001,-0.736187891936,-0.41319056554920003,-0.73683540342
205,102.75406720000001,0.9819408917979999,0.051669175630500004,0.308966970398
206,103.25406720000001,-1.2657825294222,-1.2811319279764002,-1.3090236567846
207,103.75406720000001,0.18757472486940002,0.024751516416200003,0.682456884393
208,104.25406720000001,-0.5060448229778001,-0.25987490069074,-0.07432218550859998
209,104.75406720000001,-0.37240380641480003,-0.36895923885759996,-0.08771089556579996
210,105.25406720000001,0.7563087892597999,-0.4770516899188,0.436067905396
211,105.75406720000001,-0.5249646377474,-0.120843321677,-0.3623794554874
212,106.25406720000001,1.5902426403984,-0.7130195737244001,1.313353118956
213,106.75406720000001,-0.78471710953,-0.930746673358,-0.41961812019600003
214,107.25406720000001,0.8801985520079999,0.0035418236960000106,1.7120908069222
215,107.75406720000001,-0.8001162238786,-0.4113541054652,-0.5288784980779999
216,108.25406720000001,0.62753817796598,0.1619341373528,-0.135207042726
217,108.75406720000001,-0.15333085478379999,0.15483579876259998,-0.30813060761259997
218,109.25406720000001,0.5763291128014,0.08999247195400001,-0.4057586097752
219,109.75406720000001,0.3354311984764,-0.5862817919378,0.05784211167600001
220,110.25406720000001,-0.36138394983154,0.03740746020480001,-0.1152505493236
221,110.75406720000001,0.31881279113120004,-0.23370724679399998,-0.2657105446068
222,111.25406720000001,-0.283551459762,-0.039697103499780007,-0.08456409452000002
223,111.75406720000001,-0.0796867346874,-0.11890238526359999,-0.09245000840199998
224,112.25406720000001,-0.224175995561,0.09712331058574,0.367346229554
225,112.75406720000001,0.4681626106598,-0.13151134729480002,0.6698468684745801
226,113.25406720000001,-8.886544120000006e-05,0.11355723619020001,-0.04853985787199999
227,113.75406720000001,0.49606688796882,0.1703965616574,0.01697160723799998
228,114.25406720000001,-1.0225615871336,-0.029202725900199993,-0.450288438728478
229,114.75406720000001,0.9291446662012,-0.1070367529872,-0.1542939090796
230,115.25406720000001,0.4848643970375,-0.3164880605104,0.0769133090764
231,115.75406720000001,-0.39577772020022,-0.2056571900908,-0.256240997288
232,116.25406720000001,-0.17519002109292,-0.2363135575894,-0.222674570126
233,116.75406720000001,-0.5232191485306,-0.08179695126860001,0.035465631476800014
234,117.25406720000001,0.04173613236514,-0.13112139109999998,0.4232548904432
235,117.75406720000001,-0.6585912542315999,0.16240113972912,0.0354617214194
236,118.25406720000001,0.19110184759364,-0.0086140561388,0.4962124634276
237,118.75406720000001,-0.253677348499,-0.052030150895399994,-0.14851805690459996
238,119.25406720000001,0.19039634316135998,0.15470039726579998,-0.007766427966400004
239,119.75406720000001,-0.30686787366359997,-0.0756348407062,0.1384842777168
240,120.25406720000001,-0.28783903001812,0.2053707504374,-0.13381443973279997
241,120.75406720000001,0.20947069527051998,-0.3854250204883,-0.35113322256
242,121.25406720000001,-0.30212102709419997,0.09036585153344,0.2097730350422
243,121.75406720000001,0.053644699458539995,-0.04201527533020001,-0.2546159744094
244,122.25406720000001,-0.03636539818739999,-0.0869606018036,-0.1382927798568
245,122.75406720000001,0.57652956128232,-0.4315182554706,-0.018559742006599985
246,123.25406720000001,-0.38713546753799993,0.005296527776880007,-0.09721506115799997
247,123.75406720000001,0.7302225088404001,-0.06580193668999999,0.38781884192238
248,124.25406720000001,-0.42307271659900003,-0.18917840155136,0.04692471508800001
249,124.75406720000001,0.18290178952920003,-0.08291784004699998,0.572037897118
250,125.25406720000001,-0.31149162175154,-0.083501645599,0.23454127316799997
251,125.75406720000001,0.4544902628658,-0.1461666930978,0.28909057621
252,126.25406720000001,0.2870513106723,-0.297268587327,-0.902339153334
253,126.75406720000001,-0.20799691024139996,0.40340845613200005,0.09085222249200003
254,127.25406720000001,-0.06197195409679999,-0.5306972813394,-0.787401199326
255,127.75406720000001,-0.1579266798644,-0.32342024210965997,-0.563160944014
256,128.25406719999998,0.7683243918232,-0.5018121468858,0.530738134394
257,128.75406719999998,-0.5776067813746,-0.055900178524699994,-0.2432192517002
258,129.25406719999998,0.09277843085452,-0.33294142127535997,1.155988998418
259,129.75406719999998,0.5831171220584,0.09613803595519999,-0.06080924986839989
260,130.25406719999998,0.3677942752748,-0.35234358074194,0.515176200831
261,130.75406719999998,-0.63474007320644,-0.02225443843599998,-0.498954429655
262,131.25406719999998,0.058609877812400006,0.16003942963579998,-0.07931523320120001
263,131.75406756,-0.7956217178759999,0.0578903770296,-0.5384106731267999
264,132.25406759999998,0.47545388340719996,-0.7734964608999999,-0.1424878405178
265,132.75406759999998,-0.2167245673606,-0.5517395067356,-0.027495117172000004
266,133.25406759999998,-1.3449445891654201,-0.361568517706,-0.6062752104820001
267,133.75406759999998,0.80228431102584,-0.3935618782006,0.347207379376
268,134.25406759999998,0.1535362147912,-0.40437583745514,0.13456338877799998
269,134.75406759999998,0.156583585752,0.025457425321600002,0.388569440814
270,135.25406759999998,-0.2306006550898,0.07703914486080002,0.41923312189039996
271,135.75406759999998,0.2585013505676,0.18789191840560002,0.21881319050800005
272,136.25406759999998,0.07657476844420001,-0.3021825522382,-0.6020055198518001
273,136.75406759999998,-0.1362581914882,0.459787398618,-0.319411792752
274,137.25406759999998,0.5918948128857999,-0.491126967953,-0.06252828599199996
275,137.75406759999998,-0.60333008052266,0.0890485197234,-0.6327739143602
276,138.25406759999998,0.3883563705136,-0.26058336065144,0.021429243050319968
277,138.75406759999998,-0.4233447273014,-0.09246396243739997,0.14420473097540001
278,139.25406759999998,-0.091399087765,-0.22771056653279997,0.294269008698
279,139.75406759999998,-0.2600447553462,0.001028351189999992,0.08689514160799998
280,140.25406759999998,0.6279666155426,0.04711734353380001,0.5531188010772
281,140.75406759999998,-0.2819265579206,-0.0571778196462,-0.02487227443700001
282,141.25406759999998,0.4214153448938,-0.25668542415608,0.3565423011756
283,141.75406759999998,-0.030345375531,0.34390705644999997,-0.165613689394
284,142.25406759999998,0.5530804702727999,-0.28619431255796,-0.7990804958277999
285,142.75406759999998,-0.069982432749,-0.21709551991999998,-0.1413578700204
286,143.25406759999998,-0.3009638343368,-0.0021086948920000024,-0.11193561558080002
287,143.75406759999998,0.20165805918868,-0.034772432717800006,-0.375893163684
288,144.25406759999998,-0.2965899440688,-0.056087609277599995,-0.028135080286799986
289,144.75406759999998,-0.088226271868,-0.28750684018902,0.22064273833599998
290,145.25406759999998,-0.1189491367724,0.030303635597399996,0.17355249406919998
291,145.75406759999998,0.7916387105244,-0.23044137482379998,0.9776113986486
292,146.25406759999998,-0.4137821888714,-0.46187827056032,-0.3253321457074
293,146.75406759999998,0.5468372660886139,0.3756219649448,0.363921918888
294,147.25406759999998,-0.37654932707462,-0.16690773813394,-0.760275792994
295,147.75406759999998,0.21717031031799996,0.356002175762,0.07001982698140001
296,148.25406759999998,-0.18561553955,-0.1997293377542,-0.18704645154160005
297,148.75406759999998,-0.0893612587166,-0.21501084091359998,-0.34156295779400003
298,149.25406759999998,0.23118445097919998,-0.28719197365264004,-0.49410787580399995
299,149.75406759999998,-0.056794539088399994,-0.11645208375924,0.23313743598199999
300,150.25406759999998,0.12474931275399999,-0.298444178407,0.426913471234
301,150.75406759999998,-0.428807191855,-0.01018020037179999,0.322289085374
302,151.25406759999998,-0.35370991108938,-0.0913975095948,0.16795022966599998
303,151.75406759999998,-0.07943656207759998,0.17586277494580002,0.19682957653199998
304,152.25406759999998,-0.407936611182,-0.006664755373999993,-0.314119300832
305,152.75406759999998,0.37915119166116,0.235808527502,-0.25131357189
306,153.25406759999998,0.285023925276,-0.6595153033356,-0.46401790616599997
307,153.75406759999998,0.2503045117934,-0.2492646998166,-0.57826688769
308,154.25406759999998,-0.02237612605799999,-0.07566947580000001,-0.014653005592399992
309,154.75406759999998,-0.62644841432,-0.3263420057752,-0.354061870674
310,155.25406759999998,-0.24530067676999998,0.133192234018,1.9031908321038
311,155.75406759999998,0.2927683258394,-0.92192266711,-0.8004780673786001
312,156.25406759999998,-0.4223756968874,0.14307974100576,0.6326288699691359
313,156.75406759999998,0.037150463895000006,-0.259395680461,0.08208736416599997
314,157.25406759999998,-0.32059010208960004,0.3489389348065,-0.0902313041982
315,157.75406759999998,0.014178028707800005,0.13706262763080002,0.7047585773406
316,158.25406759999998,-0.15828147646840002,0.0861449217458,-0.777855205564
317,158.75406759999998,0.12613998182602,-0.06591963052239999,-0.16077032091239998
318,159.25406759999998,0.34220474691040004,0.03710299973399999,-0.381999692881
319,159.75406759999998,-0.16408303558860002,-0.2378975677586,-0.026608800847999978
320,160.25406759999998,0.1329172218158,-0.1428127240986,-0.2710353851472
321,160.75406759999998,-0.19387310533014,0.08150736565019999,-0.2109986304924
322,161.25406759999998,0.53246571154544,0.031826232685660004,0.16618381501520002
323,161.75406759999998,-1.01506442784754,-0.009353378882999981,0.16338019369760004
324,162.25406759999998,-0.18635900259059998,-0.51873641014244,0.010319547642799999
325,162.75406759999998,-0.2775599837627,0.3250810752142,0.8912690258560001
326,163.25406759999998,0.45272802831,-0.3058058273914,-0.16428602221060004
327,163.75406759999998,-0.72346029281,0.1885304471804,0.039141206747999965
328,164.2540676,0.31168037654614,-0.04235882460459999,-0.08033998487999998
329,164.7540676,0.2722639918606,0.12716875554840001,-0.18995138167
330,165.2540676,-0.0584906816216,-0.8452509308626,-0.9671605110538001
331,165.7540676,0.1247315621828,0.2237680607698,-0.03900417326216001
332,166.2540676,-0.1913025807898,-0.445928342375,-0.557249774962
333,166.7540676,-0.08317319871888001,-0.1482087904338,0.1405441474706
334,167.2540676,-0.6724504256236,-0.056736738712399995,0.34160894393600005
335,167.7540676,0.47900031746764,-0.13532803537,0.02183357240600005
336,168.2540676,-0.05297068895119999,0.1162019920968,0.231934423418
337,168.7540676,0.29683331490459997,-0.04402189012,0.27782109256599996
338,169.2540676,-0.1294505943282,-0.1251958930662,0.18873890877200006
339,169.7540676,0.20422300401616,0.123684606556,0.21668788916600004
340,170.2540676,-0.6787191873818,0.1241364216862,0.11484920503800002
341,170.7540676,-0.17070675343114,0.1144054317338,-0.09336763385039998
342,171.2540676,0.21708777397112,0.29949493172520003,-0.4105247688839999
343,171.7540676,0.3218958050048,-0.2748276877402,-0.27505329136400003
344,172.2540676,0.050088415135199994,-0.0609997392032,-0.2288807010282
345,172.7540676,-0.6364139182895999,-0.1357693266598,-0.03650301937199998
346,173.2540676,0.40102879344976006,-0.07629758596419998,-0.329526548356
347,173.7540676,-0.15324170945699,-0.10854937910000001,0.3623552131932
348,174.2540676,0.4620026871266,-0.14492624160158,0.060447215994800005
349,174.7540676,-0.0995615828594,-0.051174804007219986,0.232764635068
350,175.2540676,0.26833437145760003,-0.1105279516908,0.21966746330200004
351,175.7540676,-0.3316134023278,0.26354576823639997,0.19235383033779999
352,176.2540676,-0.023222734920600004,0.060463570349999995,0.04579127313200001
353,176.7540676,-0.17868709383833997,0.16076497553894,-0.5645698737632
354,177.2540676,-0.40964473305893995,0.0471992326368,-0.143147716501
355,177.7540676,0.19488853933872,-0.196402218341,-0.3918949604892
356,178.2540676,-0.23364119170279998,-0.13537196035920002,0.03627802853600001
357,178.7540676,0.17632167937999998,0.07290081976802,0.038568410892199985
358,179.2540676,0.015065207806400005,-0.014726899891399992,0.493659877832
359,179.7540676,0.412140399844,0.08386216881800002,0.1276616859446
360,180.2540676,-0.343857965776798,-0.10447437167239998,0.10561590197216003
361,180.7540676,0.058475352221400004,0.07409132833280001,0.220240707462
362,181.2540676,-0.21619268865942398,0.1185832274018,-0.05869260794679997
363,181.7540676,0.2440132737116,0.012288008938122994,-0.467941608402
364,182.2540676,-0.16436039348050002,0.04929097177879999,-0.2198131656304
365,182.7540676,0.23495884238509998,-0.14101498963559997,-0.078048067112
366,183.2540676,0.03807441576619999,-0.1448189317896,-0.213103055924
367,183.7540676,-0.26063384890288,-0.27246750242424,-0.12979418756599997
368,184.2540676,0.45752510996150003,-0.05370825292660001,0.05739195820600003
369,184.7540676,-0.4625374885176,-0.078824712002,0.290759382256
370,185.2540676,-0.19488759967188,-0.217459005116,0.17307415008139998
371,185.7540676,-0.10409161356790002,0.08062536955259998,0.353582382202
372,186.2540676,0.1536455591384,0.21611559864699997,-0.034953355752
373,186.7540676,-0.4606287844656,0.02932666540902,0.18591468810800002
374,187.2540676,0.3348340264706,0.057808414715,-0.27797165870679996
375,187.7540676,0.167359086805,0.259430544324,-0.35522213940040004
376,188.2540676,0.0814205077292,-0.023111147877560002,0.138369178782
377,188.7540676,0.1295231765448,-0.19085134744772003,-0.504420538014
378,189.2540676,-0.2257828640716,-0.14469755171419998,-0.19700082782800002
379,189.7540676,-0.1864470081012,-0.16034681322320002,0.007191038061999975
380,190.2540676,-0.2578656376412,-0.109604718695,0.22005069732000002
381,190.7540676,0.2566464666856,-0.19855947731,0.22809723861800002
382,191.2540676,-0.166641143406,-0.06505341171800001,0.28572231293399997
383,191.75406741999998,-0.0969672335648,-0.006943941123999995,0.191798267296
384,192.2540674,-0.1267346362649,0.26181401970393997,0.19026645659600003
385,192.7540674,-0.0006549841095999959,0.13292297241540002,0.04024341587599999
386,193.2540674,-0.2063751599284,0.030184090107800002,-0.6728563118308
387,193.7540674,-0.3971794009014,-0.028338153355680008,-0.05729301453
388,194.2540674,0.052106395699999995,-0.3266431593822,-0.51471036913
389,194.7540674,-0.13944294420798,-0.11033660531319998,-0.2682959556856
390,195.2540674,0.0822941006598,-0.1743866276948,0.11765462878679997
391,195.7540674,0.0008081814911999974,-0.036235219181034006,0.45766644479199997
392,196.2540674,0.0476265397626,-0.152246290438,0.129196329148
393,196.7540674,-0.1275229690164,0.0650518668266,0.54929663660006
394,197.2540674,0.026788416864719996,0.103483849687,0.13120290757300002
395,197.7540674,0.138776122646,0.135617915338,-0.428941421516
396,198.2540674,-0.2691489890182,-0.012680908425999995,-0.3681591796928
397,198.7540674,0.1484520812486,-0.002310721831999993,-0.5194303989337999
398,199.2540674,-0.11770187642296001,-0.20762113212804,-0.2485869884936
399,199.7540674,0.1455857704254,-0.0635929691856,0.165316123946
400,200.2540674,-0.3152084871996,-0.11291707038600002,0.2603035354692
401,200.7540674,0.10928693132277999,-0.1471889531268,0.275925016452
402,201.2540674,-0.32978745506720797,-0.14300351745079998,0.2448981284702
403,201.7540674,0.019982339721600004,0.36834295866239997,0.3091325950922
404,202.2540674,-0.521618829223332,0.137223092332,0.009750566446399978
405,202.7540674,0.33513017114519994,-0.12095592973853998,-0.04251062386980003
406,203.2540674,-0.03711046339799999,0.08737312972439999,-0.46088273047719996
407,203.7540674,-0.1007881668126,-0.24571759340340002,-0.18445631981799998
408,204.2540674,0.1501073884902,-0.10646583437600002,-0.30448988918200004
409,204.7540674,-0.062206621774400006,-0.2631646847298,-0.20989834791399997
410,205.2540674,0.33174636714489997,-0.1585473657054,0.11237760544140003
411,205.7540674,-0.018242634519,-0.09008710919180002,-0.06158768656620004
412,206.2540674,-0.395777430522,-0.2036904576412,1.041766519516
413,206.7540674,-0.01468143939433999,-0.012414047682599984,-0.12663265227059997
414,207.2540674,-0.141416231115,0.09689639207146,0.4402528571888
415,207.7540674,-0.0539804153811,0.149763093038,-0.220945091281
416,208.2540674,0.16465961186515998,0.19696191786238,-0.007788848857999984
417,208.7540674,-0.1845656937268,-0.1790131222868,-0.3435270786
418,209.2540674,-0.308054690689858,-0.563958662769,-0.11777846337999996
419,209.7540674,0.4444641914944,-0.2051769554738,-0.442288017278
420,210.2540674,-0.2572380899012,-0.08780518421659998,0.115404233978
421,210.7540674,0.32714381754481997,-0.10467298273,0.05493906024400004
422,211.2540674,-0.1551375302878,-0.03506656286580001,0.06422470095220001
423,211.7540674,0.2583234524716,0.07715677022306,0.41065664295459997
424,212.2540674,-0.42352520794344,0.2477453982605,0.5386740493074
425,212.7540674,0.19130609062520001,0.12112638239660001,-0.05427083974600004
426,213.2540674,-0.38055546405999996,-0.0794510960638,-0.21944437979599996
427,213.7540674,0.0017370605365400072,0.0631621289422,-0.4760775470694
428,214.2540674,-0.12437424781224,-0.090802711266,-0.415990762755
429,214.7540674,-0.04355384586736002,-0.21160933200400003,0.036062917716600015
430,215.2540674,0.32616956650252,-0.006306676881999991,-0.24270245553704
431,215.7540674,-0.17995831373333998,0.00587565842101998,-0.610211133936
432,216.2540674,-0.005292499072199983,-0.457463042148,0.7809953403444
433,216.7540674,-0.045502209643999994,0.27248352645928003,0.42956330302999995
434,217.2540674,-0.23943636239100002,-0.436957576282,0.00712520595760001
435,217.7540674,-0.2133061093748,-0.03242467167719999,0.31496596344620004
436,218.2540674,0.022147675151600002,-0.10471702579179999,0.06820362086240002
437,218.7540674,-0.1474366315988,0.1364082538994,0.1490528774222
438,219.2540674,0.34912881178388,0.029002057307999998,-0.112372283897
439,219.7540674,-0.1108966436972,0.2717577457434,0.04878787046004801
440,220.2540674,0.006675768531999999,-0.26939321398852,-0.397836561226
441,220.7540674,0.51582697153888,0.10512500465139998,-0.010956249257999975
442,221.2540674,-0.6007359361435001,-0.7623747819458001,-0.7220434665300001
443,221.7540674,0.35714538812846003,0.004226376479799994,-0.20329250336
444,222.2540674,0.041403073066580004,-0.5377397370438,-0.211437778434
445,222.7540674,0.5894737672756,-0.46034442425440003,0.07319364546800002
446,223.2540674,-0.4027896475728,0.020005228500000014,0.3413509559438
447,223.7540674,0.825686521523,-0.11803508752719999,0.502155857119
448,224.2540674,-0.778465995847,-0.609048826708,-0.08220163339400001
449,224.7540674,0.2623586705472,0.005274481787840002,0.47899204260334005
450,225.2540674,-0.3667169827992,0.006363503888000015,0.2484121035998
451,225.7540674,0.10715730574196002,0.097816717572462,0.26302219391599996
452,226.2540674,-0.24618409321038,0.13964707138862,-0.15124175072
453,226.7540674,0.2909256294172,0.1188526427768,0.226216983788
454,227.2540674,0.2152459198506,-0.11636460542799998,-0.7116546440329999
455,227.7540674,-0.6800264296180001,-0.15103814483280004,-0.006883134808800051
456,228.2540674,0.09824611319959999,-0.062101941114,-0.48404602060079993
457,228.7540674,-0.16534711065780003,-0.2851588165742,-0.3227934265526
458,229.24849046458334,0.3960123693535417,-0.09446857751666667,0.0438287754160209
459,229.76410652608695,-0.08069214813273914,-0.3159568439447826,-0.3523702931956522
460,230.2540674,0.1527710069474,-0.287218366874,0.05335064883599996
461,230.7540674,-0.0459782834292,-0.05987140179659999,0.46705470086908
462,231.2540674,0.2527466562528,-0.17365002749679997,0.15320221901400002
463,231.7540674,-0.084563681044974,0.1804590451784,0.6101279258926
464,232.2540674,0.20780740469439998,-0.0782889640886,0.30182391171800005
465,232.7540674,-0.39860104663428,0.13029039621764002,0.122501611758
466,233.2540674,0.37894941954899997,-0.1924586009908,-0.1802125358
467,233.7540674,0.07781525913535998,0.27259461042640004,-0.41688911432
468,234.2540674,-0.18498199817820002,-0.1564912533924,0.09142857549200006
469,234.7540674,0.1758980935446,0.016111531263800032,-0.316221294366
470,235.2540674,-0.20446471480394,-0.47694423079730003,-0.18951487543200002
471,235.7540674,0.64717061221696,-0.002405254839680002,-0.28704063414400005
472,236.2540674,-0.29232815715,-0.17597515105540001,-0.13417231554799997
473,236.7495545897959,0.33813569947346933,-0.09366079127959183,0.04533617833877551
474,237.25590491999998,-0.36048311561866664,0.09923814138511111,-0.047474702135777806
475,237.7540674,0.1623929554442,-0.1394598734696,0.146040649374
476,238.2540674,-0.39797863290999996,0.08889075039200002,0.26301872257500003
477,238.7540674,0.23571524874328198,-0.33038139225019997,0.22006982809
478,239.2540674,-0.032261310304200014,0.03803866975540001,0.3674335670308
479,239.7540674,0.21179842266499999,0.0568549322594,0.23311629291599992
480,240.2540674,-0.58281685637902,-0.0988072896282,-0.17016180992999996
481,240.7540674,0.35592005702199997,0.1047461813836,0.6293328189328
482,241.2540674,-0.2497441523762,-0.12713449837552,-0.5538714599398
483,241.7540674,-0.112981108442,-0.06083392139072001,0.140474939348
484,242.2540674,-0.5372855314478,0.3102785337188,0.013496999711400014
485,242.7540674,-0.190808600768,-0.26110915186941996,-0.16776669501999997
486,243.2540674,0.24119709536679998,-0.2783089852366,-0.5992148399492
487,243.7540674,-0.0657466237566,-0.474579105986,-0.25183571813000005
488,244.2540674,0.17633348167794,0.2133722567762,-0.3357003021621999
489,244.7540674,-0.16021371330419998,-0.24258515508932,-0.14860953325159998
490,245.2540674,-0.029397605065839997,-0.42855771061779996,-0.38959871293
491,245.7540674,0.041379249830400006,0.05812454820599999,0.456513566992
492,246.2540674,0.307997976846,-0.5341774028294001,-0.09715861324800006
493,246.7540674,-0.135858132794,-0.027780904812199973,0.5377937126660001
494,247.2540674,-0.07738931234879999,-0.5264418163460001,-0.037798471490000034
495,247.7540674,-0.2280584569582,-0.025851939338600013,0.598334531794
496,248.2540674,-0.020750057248779995,-0.38583015833719997,0.15484925273999997
497,248.7540674,0.33529328510539996,0.154314932224,0.24747932428460004
498,249.2540674,-0.05410238385433999,-0.069289441734986,0.14103720666199998
499,249.7540674,-0.4436285901332,-0.007922790103199996,0.02665341380199999
500,250.2540674,0.2009087148212,0.10827407475,-0.03444893839400003
501,250.7540674,0.16584409979659998,0.15868260620900002,-0.37674258234200003
502,251.2540674,-0.1906553064666,0.1596084022746,-0.19193071369320003
503,251.75406722,0.12126803605934,-0.259659583579,-0.4121390152038
504,252.25406719999998,-0.2539978648882,-0.2284836244306,-0.10606881138799995
505,252.75406719999998,0.1975382509824,0.04699745060039999,-0.26878082269
506,253.25406719999998,-0.18492317911598,-0.193252743504218,-0.1511342144278
507,253.75406719999998,0.29894000593906,-0.059408739817400004,-0.23113289837
508,254.25406719999998,-0.423203152197,-0.1540746468438,0.23212478641940001
509,254.75406719999998,0.2427575358634,-0.17980372488000002,0.2053478622684
510,255.25406719999998,-0.0759921872926,0.0020752930913200186,0.382989072802
511,255.75406719999998,-0.10363032498100001,-0.12708048465240002,0.2063870429448
512,256.2540672,0.09127394444884,-0.051650494317400014,0.336888694764
513,256.7540672,0.0645168781224,0.012111941597560003,0.155604066884
514,257.2540672,-0.38835163160102,-0.1110720455316,-0.13064932825199999
515,257.7540672,0.2465186548306,0.23125113131,0.28955521584939997
516,258.2540672,-0.017618980976200002,0.1220326030508,-0.367477922418
517,258.7540672,-0.14876288055358,-0.014413799925199998,-0.0668249225738
518,259.2540672,-0.0799408896262,0.0607126188332,-0.3862024212004
519,259.7540672,-0.16786409155499998,-0.23557035622699998,0.027217626548000043
520,260.2540672,0.36969246018306,-0.187890307933,-0.5613101768576
521,260.7540672,-0.19609604123300003,-0.3951763963362,-0.3136908340008
522,261.2540672,0.20774983158944,-0.0862767529692,0.054465208108800026
523,261.7540672,-0.4204841447040801,-0.095424057242,-0.250359926266
524,262.2540672,0.3662698221926,-0.1848771810996,0.242316408134
525,262.7540672,-0.3437698777248,-0.1401101112506,0.42621782300919997
526,263.2540672,0.21345276266478,-0.31468919218954,0.1354978180198
527,263.7540672,-0.01275594132213,0.1187045085414,0.22134924894000002
528,264.2540672,0.1111241147182,0.020685148232120004,0.288067865364
529,264.7540672,-0.2593127674751,0.3543516862482,0.25945474626052
530,265.2540672,-0.17660526248482,-0.1793258726708,0.057580051318000015
531,265.7540672,0.2055073530792,0.2358508992264,-0.3094097805636
532,266.2540672,-0.0497987896436,-0.05516774180268,-0.33553018566
533,266.7540672,0.2009145519062,-0.04117777582779999,-0.47249096875119995
534,267.2540672,-0.36908746783620006,-0.217888050059,-0.018195238093800022
535,267.7540672,0.35303857766194,0.14946921406,-0.25674379349
536,268.2540672,-0.1430166447042,0.0518890279743,-0.22982520099959994
537,268.7540672,0.06659877866272,-0.310726056216,-0.0123665142694
538,269.2540672,-0.5035139018414,-0.1809119606534,-0.019043760319999957
539,269.7540672,0.11527110780264,-0.21333626036239997,0.08804955477020002
540,270.2540672,-0.16029259805154003,0.14705697780840002,0.37037944791099997
541,270.7540672,0.28140602260610004,-0.4982289475844,0.0401975727338
542,271.2540672,0.04169695613593999,0.0417872136742,0.39382241248759997
543,271.7540672,0.025500646522599996,0.03655589040999999,0.23751886371644002
544,272.2540672,-0.206214563568,0.018059177411399993,0.04606634134200002
545,272.7540672,0.20458551853224002,0.21807965992279998,0.19124077797599998
546,273.2540672,-0.12764197455708,0.1837836521688,-0.153193273576
547,273.7540672,-0.13103457537186,0.07535839973580001,-0.014504804697999996
548,274.2540672,-0.0987383425258,-0.135308674544,-0.31797492983982
549,274.7497560227273,0.07658528365659091,-0.25652644982818185,-0.03251205791363634
550,275.2490672,0.0713182258352,0.04995635510202002,-0.4889158439354
551,275.7490672,-0.44005214002119997,0.006473384791400012,-0.16674232481199996
552,276.2490672,0.4915514892602,-0.3257058119978,-0.5604608821289999
553,276.745861675,-0.3315514002978542,-0.17667087291624997,0.4462977647854167
554,277.26249312608695,-0.0033082443745652205,-0.684804730155,-0.4674766063430435
555,277.7490672,-0.08744534834779999,-0.032102533497599985,0.371150541362
556,278.2490672,0.15278275875300001,-0.27278779031296,0.0031175995621999953
557,278.7490672,-0.6874945754374001,-0.05047329779544001,0.297188844696
558,279.2490672,-0.34745861294974,-0.3090160658894,0.5833304596016
559,279.7490672,-0.0864472549942,0.03051204679659999,0.289385356832
560,280.2490672,-0.06266722381,-0.43381202637174,0.19435262681340007
561,280.7490672,-0.18427937803232003,0.0718762528352,0.132805213972
562,281.2490672,0.07791264413400001,0.11699703871419999,0.2941655349422
563,281.7490672,-0.07332368283642599,0.26578613644818,-0.38920351026600003
564,282.2490672,-0.0330310714476,-0.0870423039796,0.24447213176600002
565,282.7490672,0.0391807275882,0.10772962719319999,-0.29144085886
566,283.2490672,0.07371826197379999,-0.7363909613138,-0.16820084570360003
567,283.7490672,0.1970281684704,-0.05509871717499999,-0.5464705085446
568,284.2490672,-0.14162437170890002,-0.29896840453400003,-0.6476851558724
569,284.7490672,0.21109923900837999,-0.11952487295059999,-0.488748817434
570,285.2490672,-0.4079132908638,-0.302786101122,0.17667348851
571,285.7490672,0.2557131129404,-0.5891494670399999,-0.12182151795400004
572,286.2490672,-0.08456568724840001,-0.15505520104517997,0.41450235375199995
573,286.7490672,0.0765963566203,-0.531660863107,-0.02923176764919994
574,287.2490672,-0.02198781327453999,0.003581029503599997,0.771882982234
575,287.7490672,0.1812394224984,-0.29816641337,0.09249848360400001
576,288.2490672,0.27556961030820004,0.09031972883160001,0.629928007094
577,288.7490672,0.05569558441,-0.4315761899786,-0.050071506451199996
578,289.2490672,-0.3053748042818,-0.01361434457459998,0.06661993019419998
579,289.7490672,0.029877120255999996,0.14300398945786,0.11364494326000002
580,290.2490672,-0.1999374300028,0.299294248837,-0.38658388132
581,290.7490672,-0.268851612543,-0.07722167966179998,0.12242781633540002
582,291.2490672,0.1949065369614,0.021899036217999993,-0.7815286827060001
583,291.7490672,-0.11733469842026001,-0.41616588236874,-0.013528223011580014
584,292.2490672,0.33272517322760004,-0.174935556092,-0.5092460441219999
585,292.7490672,-0.55538935187976,-0.11267553271301999,-0.05552005774000003
586,293.2490672,0.60077515185582,-0.7152027499739999,0.15269956583859998
587,293.7490672,-0.39617650122670406,0.04341414206607999,0.12288791658840001
588,294.2490672,0.19085649224499998,-0.2364312302748,0.08592642785000003
589,294.7490672,-0.20944994386000002,0.028372238889799995,0.32383216860799996
590,295.2490672,0.242371899481,-0.06641835163788001,0.3386789416912
591,295.7490672,-0.357158432008,-0.11673907306356,0.07054319383399998
592,296.2490672,0.35001950800720005,-0.03515562785439999,0.505040760054
593,296.7490672,-0.7325404758390001,0.006723898064800009,0.0209085559086
594,297.2490672,0.17463372615380002,-0.238504321281,0.14425859459200002
595,297.7490672,-0.6846477809438,0.03713196905000001,-0.402879772178
596,298.2490672,-0.44377368987620003,-0.029419197409799987,-0.47844571114800005
597,298.7490672,0.020448082104799994,-0.30288843244679997,-0.474042901992
598,299.2490672,-0.2188879269066,-0.5760837060328,-0.540636806488
599,299.7490672,0.607018340518,-0.064566400622,-0.43225199695220007
600,300.2490672,-0.4240497702706,-0.229680706535,-0.012699289297999967
601,300.7490672,0.74214008412212,-0.1766797522122,0.009987945588000011
602,301.2490672,-0.39550146222660004,-0.2175780054744,0.16139127737479997
603,301.7490672,0.465771088041,-0.318297443926,-0.321614446564
604,302.2490672,-0.2299005224036,0.036253470769999976,0.23816923126139997
605,302.7490672,1.371250241368,-0.557252516782,-0.04392696384600004
606,303.2490672,-0.3997052377434,0.038321017632507996,0.31214222912439993
607,303.7490672,0.4629548014732,-0.49505098108139994,-0.2778954410498
608,304.2490672,-0.8598279707198,-0.223081251003,0.15197440151000005
609,304.7490672,0.8215890095942,-0.4160441008044,0.04164280884519997
610,305.2490672,-0.9026511232241999,0.1547239110182,0.4131990717232001
611,305.7490672,0.689868651668,-0.9323544578092801,-0.0062415599500000064
612,306.2490672,0.31103779647859997,-0.18530604305799997,0.311455478698
613,306.7490672,0.41020909317999993,-0.493635534708,-0.18378300678000004
614,307.2490672,0.22916468204719997,-0.38855079980539997,0.5907846737460001
615,307.7490672,-0.4215081995802,-0.11000340698380003,0.06245629291999997
616,308.2490672,-0.41470811369202,-0.12684327213459998,0.2566304016
617,308.7490672,0.3650161895024,-0.39715420185620004,0.359481992712
618,309.2490672,0.15466436689,0.06710160669979999,-0.06952538491040003
619,309.7490672,0.30416772899786,-0.38144766390419993,0.555970134684
620,310.2490672,-1.0324247264439999,-0.24961572706000001,-0.33738365180999996
621,310.7490672,0.30358820264200004,0.036912117032999986,0.256414146372
622,311.2490672,-0.91465052608,0.10638538834739998,0.061881785352000035
623,311.749067464,-0.119022455251,0.18087830541798,0.6941194392576
624,312.2490675,-0.6885041523619999,0.2671430658858,0.26328917498999993
625,312.7490675,0.05375178812399998,-0.29927450894220003,0.478810834956
626,313.2490675,-1.7200998306658,-0.2658487862184,0.2244540596134
627,313.7490675,0.5975391435094,-0.24261990006220002,0.798098616618
628,314.2490675,-0.15116614337999998,-0.284111450336,-0.601011662472
629,314.7490675,0.10633213041407999,-0.5545459536954,-0.260348310486
630,315.2490675,-0.1884261083952,-0.5775708895666,-0.509620504452
631,315.7490675,0.2284572917536,-0.30078904271539997,-0.20510938648819999
632,316.2490675,-0.010204458850420008,-0.23305312995519997,0.04894141200779998
633,316.7490675,-0.3584722280776,0.2343456625946,-0.269821405389
634,317.2490675,-0.353912429824,-0.37841920612819996,-0.23926160809600003
635,317.7490675,0.578603618147,0.003422220652000007,0.1591509437768
636,318.2490675,0.11471367355199998,-0.7180893957644,0.508386650084
637,318.7490675,0.6107185554743401,0.3684381031882,0.038369708105
638,319.2490675,-0.25184675461519995,-0.56468914514214,-0.460978927602
639,319.7490675,0.3404797005422,-0.1455257022046,0.4157616805438
640,320.2490675,0.12090602937153999,-0.20602589162140003,-0.30187777524599996
641,320.7490675,-0.5232164120764,-0.32359251620199997,0.724321641976
642,321.2490675,0.6350178814208001,-0.1445198953006,0.24237381932399998
643,321.7490675,-0.127864244859874,-0.005183388069200014,0.238634710332
644,322.2490675,0.09511536240559999,0.12062262053622,0.145417556684
645,322.7490675,-0.44488679826106003,0.03024133447999996,-0.16870019914400003
646,323.2490675,-0.1628308397324,-0.3451593154348,-0.42932604792800005
647,323.7490675,-0.0266782432808,0.586455913179,-0.24669937138880002
648,324.2490675,-0.4195863799358,-1.090196924214,-0.675698308898
649,324.7490675,0.6477005780966,-0.014163310791120005,-0.23024827007000004
650,325.2490675,0.04742813737038001,-0.2353745782048,-0.5182449531844
651,325.7490675,-0.03371381310400001,-0.12077745915379999,0.24956931114199998
652,326.2490675,-0.22221624375500004,-0.15258979708559997,0.5409261226446
653,326.7490675,0.279447315914,-0.2833149030404,0.14779783251400003
654,327.2490675,-0.34393301994360004,-0.41942593757339997,0.5235908603222
655,327.7490675,0.6153167370049001,-0.10021330831940001,0.18790454863999997
656,328.2490675,-0.29998557844131996,-0.08346594034759999,-0.19501279831579998
657,328.7490675,0.5367884650824,-0.07948794086359999,0.5599345970020001
658,329.2490675,-0.5958949758262,0.3827655195586,0.24728433610199996
659,329.7490675,-0.05947859749239999,-1.0060048625246,-1.2285239696928
660,330.2490675,0.253397433910388,0.687838436996194,-0.397748489382
661,330.7490675,2.6500224799992366e-05,-0.467857637408,-0.09870054243399996
662,331.2490675,-0.1467265224278,0.4977908199374,-0.41876948353460003
663,331.7490675,0.12342362530140003,-0.4959822481956,-0.08272133824320002
664,332.2490675,-0.43363076090919994,-0.277235929722004,-0.37770800591740006
665,332.7490675,0.16270645853639998,-0.15529732341280003,0.21958296778180003
666,333.2490675,0.6153163933293999,-0.2236043953946,0.26433117867000006
667,333.7490675,0.03850277898400001,-0.41602165339400005,0.1846212959228
668,334.2490675,0.47104280770359996,-0.1546200972916,0.2627788543480001
669,334.7490675,-0.6003287786284001,-0.277262454042,0.391750230742
670,335.2490675,-0.0007004533490200016,-0.3252166784448,0.22010859490399998
671,335.7490675,0.1026321193391,0.20686323223536,0.59230075835
672,336.2490675,0.13744081507392,-0.1204249846962,0.05777553554919997
673,336.7490675,0.18650459079499998,0.1853124260688,-0.36558580402800006
674,337.2490675,0.39658765256799994,-0.4785155033638,-0.24951679228313203
675,337.7490675,0.8532993687968,0.09288429382739999,-0.2927182674379999
676,338.2490675,-0.20127937260540002,-0.6289069732968,-0.6088410282919999
677,338.7490675,0.22887526457340002,-0.2982473560898,-0.06232110980558003
678,339.2490675,-0.2692857956654,-0.4293430960196,0.024933042514000005
679,339.7490675,-0.0001156020120000023,-0.461509639324,0.14260661119799994
680,340.2490675,-0.3334287435058,-0.293956208838,0.71154657367
681,340.7490675,0.2893990027938,-0.2551785737108,0.1666014861868
682,341.2490675,-0.48337073412119996,-0.2167975503348,0.5841599178664
683,341.7490675,0.3387346827716,-0.2654723320198,0.508263807386
684,342.2490675,-0.44527324077106,0.042550593605000006,0.015999193221999986
685,342.7490675,0.7739508515619999,-0.3676294253512,0.402907152193
686,343.2490675,-0.34759100067514,-0.1819370221592,-0.27443526267220003
687,343.7490675,-0.14384880478019998,-0.34771937538090003,-0.4260175895544
688,344.2490675,-0.02553278326032,-0.5152235078877999,-0.767776899246
689,344.7490675,-0.7950114906065999,-0.8756613349962601,-0.9964955901979999
690,345.2490675,-0.027185052589999995,-0.5038556563996,0.01764090563800003
691,345.7490675,-0.6293244570352,-0.6926388228278,1.3138915156479998
692,346.2490675,0.5300351357362,0.0426136910666,-0.01978287696399999
693,346.7490675,-0.4905768459998,-0.710998180522276,0.6451523399660001
694,347.2490675,0.23422755896400002,-0.0692120419684,0.633719577762
695,347.7490675,0.181127052284,0.338881625536,0.32921895028599996
696,348.2490675,0.2546937627026,0.161445290166142,0.14927291874400003
697,348.7490675,-0.7398940444382,-0.5517157340314001,-0.964363613142
698,349.2490675,-0.05895830691099999,0.07239129186040001,0.8172184849179999
699,349.7490675,0.256190722545,-0.33703830716,0.04949460989199998
700,350.2490675,0.03275364398720001,-1.3327547887058,-1.163798303579
701,350.7490675,0.231935219901,0.0997611778874,-0.52867863656
702,351.2490675,-0.42066883773898,-0.4653431261265,-0.34891053201800004
703,351.7490675,0.5496150266968001,-0.540235349549582,0.585479745792
704,352.2490675,0.1503260110206,-0.24208676220900002,0.3681700801644
705,352.7490675,0.2354905241778,-0.633668242718,0.860725517204
706,353.2490675,-0.03772087810639999,-0.357298482677,-0.01748672486599995
707,353.7490675,0.337507754504,0.13964376208380003,0.40130021097
708,354.2490675,0.20468315448302,0.1737024533782,0.06868401526799997
709,354.7490675,0.09336455075620002,-0.030533752997800003,-0.10498653413860003
710,355.2490675,-0.18262987463983996,-0.36789522052032,-0.726573658036
711,355.7490675,-0.450408583562,-0.46033965411419997,-0.3558177756704
712,356.2490675,0.1412348461042,-0.03923574978459999,-0.17428705217
713,356.7490675,-0.24373685894219999,-0.3702906888314,-0.4888044929359999
714,357.2490675,0.4857116711162,0.03494980538000001,0.33632105831599995
715,357.7490675,-0.5443237995688001,-0.459689671378,0.7421680163965999
716,358.2490675,0.3793828812356,-0.2926755952834,-0.44560609813353996
717,358.7490675,-0.31848513125079997,0.028695975547200003,0.5190349197248
718,359.2490675,0.26269059835092,-0.10602104902340001,-0.3203953361578
719,359.7490675,0.3890797064268,-0.298701521092,0.9236614894659999
720,360.2490675,0.210062320226,0.1073881739442,0.461861743936
721,360.7490675,0.3501497632416,0.3335258421446,-0.298706436152
722,361.2490675,0.009511025874400003,-0.1619809269532,0.11567816727800002
723,361.7490675,-0.28225830090318,-0.2917401212836,-0.768462400496
724,362.2490675,0.09251687229200002,-0.5273582257248001,-0.34323935509419995
725,362.7490675,-0.1187395259968,0.04874089326079998,0.15840123177
726,363.2490675,0.084169590853,-0.7844630122530001,-0.613749465912
727,363.7490675,0.175146621166,0.10147503612520001,-0.15846071240999998
728,364.2490675,-0.27757957691654,-0.22484025534160001,0.14964515688580002
729,364.7490675,0.21284386720858003,-0.562550807048,-0.307169933248
730,365.2490675,-0.30944831278519996,-0.011457717461000026,0.9874792098876201
731,365.7490675,0.11961977734305998,-0.1107815671114,0.34793955796799997
732,366.2490675,-0.2877584266138,-0.05913531069279999,0.1192243957124
733,366.7490675,0.18505078450878,-0.2715573120414,0.42123394016599996
734,367.2490675,-0.13768682294284,0.44326475205439997,0.235660209634
735,367.7490675,0.7161941626421999,-0.27302369595622,0.0496469211308
736,368.2490675,0.49655674215879997,-0.09380162841039999,-0.709152784382
737,368.7490675,-0.06091577232740002,-1.1285774904126,-0.486312522904
738,369.2490675,-0.7872152477668,0.333476612532,-0.784738378552
739,369.7490675,-0.2359887915968,-0.94220265506858,0.18423815729600002
740,370.2490675,0.6454916250666,-0.45387297958940004,-0.007905111340399973
741,370.7490675,-0.302143947779,-0.251680610194,0.8716992950614001
742,371.2490675,0.0250884841356,-0.33452246782800005,0.031797609380900003
743,371.749067412,-0.009392293085800005,0.003336486818200006,0.5301607226588
744,372.2490674,0.05520036579600001,0.039662405255759994,0.4206550312068
745,372.7490674,-0.5661641767364,0.214325559121,0.12577270504399998
746,373.2490674,0.6060990809872799,-0.2210269164908,0.13184496878800003
747,373.7490674,0.283617024588,0.161571452310022,-0.31934254646200005
748,374.2490674,-0.0455770284872,-0.3874061632336,-0.820471344012
749,374.7490674,-0.08900708199094001,-0.12383463170513999,-0.33426069263559993
750,375.2490674,-0.14112415266492,-0.15003620033480003,-0.03991515157200001
751,375.7490674,0.39822119835398,-0.12662797090449998,-0.158845396038
752,376.2490674,-0.383028321882,-0.34499243917499994,0.34705276483652
753,376.7490674,0.4796821238669,-0.03951104344359999,0.1230044078566
754,377.2490674,-0.419265108201,-0.17755560814400004,0.39300186152440003
755,377.7490674,0.10351329010319998,0.07908198700079999,0.6279961681332
756,378.2490674,-0.36103275893559994,0.01273348595962001,-0.08600570674159996
757,378.7490674,0.5490335890639999,0.02427307758248,0.10733179092600001
758,379.2490674,-0.522823437477676,-0.18063047469642002,-0.46889196394079996
759,379.7490674,0.1164684569792,-0.5062544795946,-0.75476426126
760,380.2490674,0.18348085528799998,-0.3412744747734,-0.39598183629600003
761,380.7490674,-0.331441590782,-0.3446495222826,0.018313169462
762,381.2490674,0.3352053904596,-0.26257237313556003,0.11029589651000003
763,381.7490674,-0.27579455558980004,-0.1868856278361,0.697625379592
764,382.2490674,0.5584025775774399,-0.08693172574940002,0.10191759103800001
765,382.7490674,-0.242525165614,-0.024126777125399998,0.2175980854419
766,383.2490674,0.24340435327680002,-0.0320985809164,0.136605129276
767,383.7490674,-0.812042444356,0.18649515266999997,-0.17049850459799998
768,384.2490674,0.48333347433760004,-0.05001140952760001,-0.29704271314167996
769,384.7490674,-0.037177064399180004,0.08978315352486,-0.4405782413568
770,385.2490674,0.09039495471839999,-0.304134945855,-0.1043702220858
771,385.7490674,0.06525320170294001,-0.123044896138,-0.1806489181692
772,386.2490674,-0.5301211858136,-0.014416189177200014,-0.04983358383560001
773,386.7490674,0.37462659358000006,-0.1989313364578,0.22254224786199997
774,387.2490674,-0.24187987092667998,-0.002876164857999983,0.367990751238
775,387.7490674,0.2708456254046,0.2169706035,0.2543710232
776,388.2490674,-0.9104658973009999,0.027404688608799993,-0.04839694020580003
777,388.7490674,0.2907067167356,0.1867775451998,-0.3110352039186
778,389.2490674,-0.021756191254400002,-0.188046123997062,-0.5930564784616
779,389.7490674,-0.50999168637134,-0.023667014860000002,-0.35189700126
780,390.2490674,0.08362750977321999,-0.133628817855,-0.120724554118
781,390.7490674,-0.05183120009939999,-0.1754840732224,0.3239689827012
782,391.2490674,0.13960629463342,-0.07826350211020001,0.28331888199620003
783,391.7490674,-0.07861953080659999,0.12313617464399998,0.38914001462488
784,392.2490674,0.0325463819342,0.09890362858260002,0.18965349194399997
785,392.7490674,-0.035765449988,0.28180068021174,-0.525084657632
786,393.2490674,0.034764630792800004,-0.1046927833826,-0.111658716192
787,393.7490674,-0.10052480042050799,-0.04791074633439999,-0.3444735622294
788,394.2490674,-0.0343802607204,-0.3097943961062,-0.10693976404
789,394.7490674,0.2077930879762,-0.12232792853240002,-0.09064709660400001
790,395.2490674,-0.36201503757060005,0.00018204211360001589,0.5235992908453599
791,395.7490674,-0.1438759946454,0.16992558957,0.3038006877516
792,396.2490674,-0.1731795025001,0.051686804247,0.11251316071746002
793,396.7490674,0.1467642265592,0.1384151601808,-0.436868705802
794,397.2490674,0.4392779040522,0.082205820096,-0.27914101604978003
795,397.7490674,-0.04194892643046,-0.0887477731412,-0.2845427703968
796,398.2490674,-0.2977784329708,0.0245264983414,-0.317973709068
797,398.7490674,-0.11162508726260001,-0.2396849751764,0.10047616954199996
798,399.2490674,0.0606967204696,-0.19158256533581997,0.22952881812260004
799,399.7490674,-0.2099920272988,0.045132174507399994,0.30326578139844995
800,400.2490674,0.1550396621274,0.023722776153999998,0.28633193975320004
801,400.7490674,-0.18830795884760002,0.2536107564,0.16735213276920002
802,401.2490674,0.20861868738706002,0.2011357688712,-0.3314708041519999
803,401.7490674,-0.28734858496,0.08343487265260001,-0.5285845375078
804,402.2490674,0.21907999632116,-0.20445349454939998,-0.04914401048
805,402.7490674,0.46060234309556003,-0.17604492191416,0.023329496385999998
806,403.2490674,-0.2362451064686,-0.07866441723880001,0.0062271404500000085
807,403.7490674,0.9501133644269,-0.0547817886138,-0.026776046792600035
808,404.2490674,-0.4551172792694,-0.092889316054,0.921319055576
809,404.7490674,0.4775909885916,-0.1609515702556,-0.025121116662
810,405.2490674,-0.337335782630824,-0.09956649776999998,0.15023742672119997
811,405.7490674,-0.029465636885599986,-0.032632664456959996,0.09556259157200003
812,406.2490674,-0.3349828879614,0.2538243568302,-0.609816055339
813,406.7490674,-0.073167481859,-0.2909163617842,-0.262841157926
814,407.2490674,0.34381970285519997,-0.17807621595860001,-0.3616689873426
815,407.7490674,-0.3232025480376,-0.34061569814099996,0.13917759897004
816,408.24456850416664,0.24151093574027083,0.03897417838716668,0.21322633827729162
817,408.7637574723404,-0.5543336944361702,-0.18206463358659575,0.45061614666319144
818,409.2540674,-0.29761728436052,0.0928680071372,-0.101397781354
819,409.7540674,-0.09723493604668,-0.09532050373284,0.218549213382
820,410.2540674,0.3708640540702,0.1460593772308,-0.2518755817214
821,410.7540674,-0.44040391459372,0.2370927262264,-0.4944685840126
822,411.2540674,-0.0663342066488,-0.32873251677140003,-0.15565415387799997
823,411.7540674,0.3248994969614,-0.2357684707412,-0.181795320582
824,412.2424450795454,-0.1361688619354341,-0.0250885229584091,0.4374233809713637
825,412.7490674,0.21289786532218,-0.0210666465688,-0.0012944793740000105
826,413.2490674,-0.40726023634934,-0.07278158666449999,0.350993938412
827,413.7490674,0.24391475782718,0.0667060423462,0.16427176471840002
828,414.2490674,-0.1295713367598,0.40908320426526,-0.04981475823700001
829,414.7490674,0.46110231994,0.4651629710092,-0.9024233436738
830,415.2490674,-0.519405788196,-0.20054395922700002,0.09250985142000005
831,415.7490674,-0.24289600818220003,-0.1897687410788,0.629291515432
832,416.24457906530614,0.35849727626938777,-0.30530984550306123,-0.5679591237571429
833,416.75582005217393,-0.2700280200541304,-0.07200384791108697,-0.025730215941304348
834,417.2540674,0.2863929882808,-0.0278923415914,0.46631556512559996
835,417.7540674,0.03193320569156002,0.0631019616288,0.188121471462
836,418.2540674,0.34198959797676,0.32437514185099997,0.2274090481016
837,418.7540674,-0.3959533414172,0.14739986660079998,-0.14334753044520002
838,419.2540674,-0.052049487230199996,0.13542679547364,-0.29807882311
839,419.7540674,0.2084715568972,-0.11364593145560001,-0.37109569545
840,420.2540674,-0.33783688454980004,0.06974285964416001,-0.11502101897599999
841,420.7540674,0.2094939804068,-0.1397520708894,-0.3312023830532
842,421.2540674,-0.3547713524064,0.0777947175522,0.30503656392100004
843,421.7540674,0.6095598371132,-0.201787703034,0.353814678206
844,422.2540674,-0.33507992585136004,-0.09838775877340002,0.20178978924319999
845,422.7540674,0.11909295648633199,0.0711941266468,0.06728954315182004
846,423.2540674,-0.57619526086614,0.05180770634940001,-0.006234436139359971
847,423.7540674,-0.3939401960314,0.013119170652399995,-0.26277742385639996
848,424.2540674,0.317061811911392,0.0760269844884,-0.48516813281640003
849,424.7540674,-0.1416662567882,-0.3939165151754,-0.08054139135422
850,425.2540674,0.6092772248224,-0.218275634016792,-0.07613961214599999
851,425.7540674,0.17051861050503997,0.07118173717347999,0.5460741805930001
852,426.2540674,0.95677939118802,0.21242531301200004,0.15247097013400002
853,426.7540674,0.051706883057400004,-0.213515884866,0.12977812768619998
854,427.2540674,0.8619547808608501,-0.27999615667,-0.04299792291335999
855,427.7540674,0.5168951186463999,-0.8887856841372,0.4098597908154
856,428.2540674,-0.5151976484456,-0.39477168114914,-0.348565197009
857,428.7540674,-2.2747007441548,-1.269170999575,0.37551877976
858,429.2540674,0.9295242381280001,0.10997946262309999,0.9455465126202001
859,429.7540674,-0.918718136554,-0.16667000949702002,-1.1789264679291
860,430.2540674,-0.13312829649506003,-0.19042218388999999,0.026094694123999986
861,430.7540674,-0.11730476022059999,0.018605588713799987,0.5401866721999999
862,431.2540674,-0.4291338390132,0.154003676176,0.88225588798
863,431.7540674,-0.17370527550828002,0.3386445128812,-1.399471302088016
864,432.2540674,-0.439632728036,-0.852566094396078,-0.08092294694039999
865,432.7540674,-0.51602639227,-0.244311313638,1.0102354050088
866,433.2540674,-0.5670943469013799,0.6469710587992,-0.60363635063
867,433.7540674,0.502538823192,-0.33808950656906,-0.463287343984
868,434.2540674,-0.1548633903166,-0.16583924773980002,-0.1642075157372
869,434.7540674,-0.21457400740060004,-0.24577754132559998,0.33570721625654004
870,435.2540674,0.2454877317086,-0.061215437653599984,0.0824742317374
871,435.7540674,-0.5130367421782001,-0.19039115305094,0.46577912328788
872,436.2540674,0.08052075149479998,-0.3731096166506,0.547738018013
873,436.7540674,-0.30068794729752,-0.47047334823077996,-0.09667025563780002
874,437.2540674,0.774447325503,-0.12135147452946,0.193793058388
875,437.7540674,0.2091065156424,0.2131034255236,-0.5297081184222
876,438.2540674,0.3635618758048,-0.1572126341174,-0.29295355803656004
877,438.7540674,-0.0667552403944,0.057009801840400005,-0.37159813884933995
878,439.2540674,0.009402155859200002,-0.47528504965560003,0.020928621247239997
879,439.7540674,0.74297804475922,-0.17987007973699998,0.024489459991780028
880,440.2540674,0.2841890415612,0.0537532376914,0.4670493316844
881,440.7540674,0.40821331927335996,-0.31970607407600005,0.518714666326
882,441.2540674,0.19010976553292,0.11349178912279999,0.4941740035812
883,441.7540674,0.35133584947,0.1301232349674,0.06998006820600004
884,442.2540674,-0.2811958873392,-0.39833071467400005,-0.77981330874468
885,442.7540674,-0.07415745556954,-0.3121755170754,-0.36977156633999997
886,443.2540674,0.645077334753,-0.07106585977240001,-0.2664412116986
887,443.7540674,-0.51120810506074,-0.35546790004724005,0.1672555637084
888,444.2540674,-0.02121419550022,0.0386874008206,0.274193925816
889,444.7540674,-0.4579487077164,-0.0004963159371999938,0.353128538134
890,445.2540674,0.21008002934960002,0.06549070837479999,0.377143754936
891,445.7540674,-0.189362643057794,0.1103728258426,-0.2987087726416
892,446.2540674,-0.0325235857156,-0.1886538290766,-0.3079632281668
893,446.7540674,-0.08699820833000001,-0.2286950433664,-0.44588900566600004
894,447.2540674,-0.1880229842604,-0.1886798333856,-0.03356983182800001
895,447.7540674,0.10618013978584,-0.1575383913216,0.19909030909632
896,448.0840674,0.17215782031875,0.72748345879375,-1.05385127665125
