Time (s),Gyroscope_X,Gyroscope_Y,Gyroscope_Z
10.251415280000002,0.010938209687343133,0.006822933306920695,0.03938373355250547
10.751415280000002,0.011886290384368352,0.01191496027911538,0.02775386136044685
11.251415280000002,-0.021669506417091044,0.01680721368553712,0.02536048017060555
11.751415280000002,0.0037819558546349787,0.011099709895470261,0.05750317059651957
12.251215279999998,-0.000800213534937102,0.005411394786337017,0.029779086552691316
12.751415280000002,-0.016603896108894477,-0.00442223958770068,0.027107784777567187
13.251415280000002,-0.0025922766081649578,0.007844811289205644,0.028883951917879805
13.751415280000002,-0.006149663926724142,-0.0018994843490582908,0.03125493556150962
14.251415280000002,-0.030555886794498197,-0.00997119723429371,0.011545228290759525
14.751215279999998,-0.02268468448738298,-0.04401561316193506,0.024521752935107995
15.251415280000002,-0.03659516486734673,0.0007853449806772356,0.006429717325240652
15.751415280000002,0.028175561745252143,-0.005026835562617276,0.009112077177405335
16.25141528,0.030114375717978446,-0.0137467740324378,0.00738315113422406
16.75141528,0.003261696255177066,0.02469367261510573,0.012631680238535847
17.25141528,0.015174273782747405,0.07322082791555438,0.008681087187705246
17.75141528,-0.04041718732756767,-0.01630416494059542,-0.014172453164566995
18.25141528,-0.007738302382948601,0.0016966328623860126,0.010358225828257048
18.75141528,-0.0006302696387725921,-0.003199528462011445,-0.0024015333958061517
19.25141528,0.004861850201622858,-9.740468354273068e-05,-0.001880262309956794
19.75141528,0.00013635442252149182,-0.002502325436422337,-0.0013885531731379036
20.25141528,0.002230340434805124,0.0019868771510600965,-0.001638214735689124
20.75141528,0.0017006500673858015,0.0020278293972661094,-0.001522038366423038
21.25141528,-0.003744721123060717,-0.0005004790561798898,-0.0011302282189231843
21.75141528,-0.008016649118673148,-0.0006589215503153326,-0.002295685546998287
22.25141528,-0.0007087256996203026,-0.001832651487428445,-0.0013090450117688112
22.75101528,-0.00035262259970860447,0.0020266863838358192,-0.0009868309694244346
23.25141528,-0.004219754782985207,-0.0035732303723228285,-0.0005007017722369001
23.75141528,0.014928000145437593,-0.0038113318191405955,-0.005101063524568095
24.25141528,-0.009638000370589914,0.001637950758848305,-0.0008153027107793548
24.75121528,-0.005451054300163623,0.0013796812899307554,-9.931806766265867e-05
25.25141528,-0.002533587842002011,0.006030797089812621,-0.0009525357102424809
25.75101528,0.0004551295829585461,0.005160970278439504,9.889089078969136e-05
26.25141528,-0.00151999044148162,-0.004921652503279374,-0.0020798951732278613
26.75121528,-0.0007249112602135141,-0.004041699983944421,-0.0024147869041235255
27.25141528,-0.030289032278663766,0.03329484568133189,-0.007269995871784115
27.75141528,-0.0015537556582413503,-0.002511095633274441,0.00088679265796334
28.25141528,0.04847566422106801,-0.023297185780922564,0.03155703031166706
28.75141528,0.06587456668107983,0.005944396800077796,0.0819717918267588
29.25141528,-0.0010641853059994997,-0.006697620629621348,-0.027547066960255474
29.75141528,0.07896374726895931,0.009890398636499011,-0.04272558295720739
30.25141528,0.06324143921306305,-0.08259125638931694,-0.011003674926587355
30.75141528,-0.01929811604507628,0.006534023808776864,-0.01576203162340738
31.25141528,-0.013059248113837286,0.017649502711703072,-0.006637600752573447
31.75141528,0.002159749894846106,0.011517925566282512,-0.006071791776654292
32.25141528,-0.04489131663208196,0.023300651433420354,0.00021357101843978905
32.75141528,-0.04022877042143769,-0.1601407574128357,-0.026270209443212175
33.25141528,0.01941732474958806,-0.0059263596936299555,0.02246531409278104
33.751215280000004,-0.04721597656521018,0.1408511368166638,0.061997901015656234
34.25141528,0.0032264535267798144,-0.08556572369119485,0.006971968834688333
34.75141528,0.036106823904743374,-0.04015583854448883,-0.021156767889113515
35.25141528,-0.0031097811661686806,-0.013404134884214793,0.00868209828040204
35.75141528,-0.018940865157208584,-0.09646539087846792,0.015019311842742659
36.25141528,0.07083133967066305,-0.008024238381037111,0.016294872930839192
36.75141528,0.045143803758446746,0.1402277450121453,0.034768203921447714
37.25141528,-0.05826001640062322,0.008510752688487076,-0.01674864554387681
37.75141528,0.01842545441447571,0.03927042164551076,0.027935829782858357
38.251215280000004,0.026670577228691088,0.04319743019675685,0.02912752370487353
38.75141528,0.007097247984055992,0.042093942624876333,0.006955872571797152
39.25141528,0.06877090927752823,0.11109852839830178,0.03350443333301373
39.75141528,-0.014823630302456196,-0.1331154249573164,0.018782565224759403
40.25141528,-0.05993790090810923,0.03568690679258121,-0.00023667176449089082
40.751215280000004,-0.003401954473257186,0.06356247194334191,0.029413221378895196
41.25121528,-0.007686972975223427,-0.05008923782405451,0.016514268488235256
41.75141528,-0.016635984146159886,0.0370068153994061,0.032144719874052576
42.25141528,0.007094041264424177,-0.014045613461911237,0.049063911563013395
42.75141528,-0.0047443207726537715,0.01383530189974192,0.022630437651875432
43.25141528,-0.06533612996219045,-0.02124680818423152,0.0289891908480064
43.75141528,0.018154495435095844,0.020856876982590773,0.03137298376373807
44.25141528,0.0033493927182808663,0.09602220338224486,0.04215597824358312
44.75141528,0.030409183201966065,-0.08866963145421126,0.04999123396244072
45.25141528,0.021699735922668342,0.05779184627221826,0.056020087158386786
45.75141528,-0.017405287729525074,0.046450451533215115,0.018020280136570112
46.25141528,-0.08536209932371577,0.0706734402571871,0.003228563677954369
46.75141528,0.001375205295606321,0.021511266770863922,0.011012333373816375
47.25141528,-0.05050007979484349,-0.04270077647406548,-0.017407892158286226
47.75141528,-0.008970705285731056,-0.002734261865549931,-0.0017887732628815594
48.25141528,-0.002060440692853105,-0.005536508041187001,-0.005559429020231967
48.75141528,-0.004675156252256273,0.0023730524937322396,-0.0005512530946535757
49.256219201568626,0.0003700904494686153,-0.0010665410820987348,0.0009515792985020416
49.75641528,0.02276104953594971,0.051267635427589386,0.00830950630276547
50.25141528,-0.010623308326969196,-0.013759600081335942,0.006727466344791045
50.75141528,-0.008865832001926975,0.015943529702598484,0.003543332310330448
51.25121528,-0.020579001589951962,-0.03157301501481051,-0.0017808131251046797
51.75141528,0.015055282723886308,0.0339966421076807,0.002674687232704184
52.25141528,-0.01596171811297506,-0.03701686582486562,0.0159092721053472
52.75121528,-0.0041676015601729175,0.0041401156694365225,-0.0015559086895401352
53.25141528,-0.008846796070539896,-0.03562928708021912,-0.007154281832079734
53.75121528,-0.0026846977668008175,0.024169736543217083,-0.0038837675902971313
54.25141528,-0.0017971118237024048,-0.00498925611228584,-0.0016743442122149623
54.75141528,-0.010455345985500313,0.01746670010604643,-0.014977546166030755
55.25141528,0.008678174316305949,-0.012828349441500903,-0.0016996676773943363
55.75141528,0.006484559625207871,0.0034446829982921843,-0.002453771667164476
56.25141528,0.006783832629599541,0.006398699079021857,-0.017680544314354663
56.75141528,0.010475401708214477,-0.023580571939346748,0.0007817865222800458
57.25141528,-0.022819001619056704,0.024631461148053112,-0.022858532120991502
57.75141528,-0.024221692876059478,-0.027731121550668404,0.009997022163501158
58.25141528,-0.0009428127143386643,0.03758121862905572,-0.004543723827942978
58.75141528,0.008835628111572598,-0.013252770371643725,0.003194362862631247
59.25141528,0.003699212658168585,-0.01427421042831978,-0.006922561605900404
59.75141528,0.01002060797055785,-0.0045252848031240205,0.00430571551023812
60.25141528,0.05392021919853695,0.051258049878267674,-0.009448055581410148
60.75141528,-0.019879838640395428,-0.04505892893703509,0.0068841118615590394
61.25141528,0.012099798589067668,0.019729653005769947,-0.012168846038230496
61.75141528,-0.0049098775110900305,0.03143344290535909,0.00713750919001655
62.25141528,0.05448790790021054,0.058530421853246466,-0.026210581287917645
62.75141528,-0.047157891061979915,-0.005950815613565049,-0.0013899461701587074
63.25141528,-0.0028016109619296253,-0.009831777755732254,0.003892063401835931
63.75141528,-0.034038620197789554,0.021752841409275275,0.005346705533512895
64.25141528,-0.04442265807953885,-0.0074610396995022634,-0.0007606031624744739
64.75141528,0.026029057421271058,-0.15976090596676804,-0.02983114220357284
65.25141528,-0.005355968240806601,-0.018700566781653466,-0.024470456984163568
65.75141528,-0.018559114238679442,-0.02166858039040726,-0.06805142237104395
66.25141528,0.09724304427143574,0.17782207364005803,-0.06808793367138437
66.75141528,-0.0405387575110755,-0.06418414204775655,-0.1344215514953096
67.25141528,-0.04137842503341334,-0.09506602669556362,-0.14453072011109
67.75141528,0.034259752606373796,0.16118973402427803,-0.21386161726833566
68.25141528,-0.10068901874945745,0.05209017347545064,-0.15334000139989074
68.75141528,-0.02342804467748959,-0.1706907819809315,-0.11675619227227899
69.25121528,0.005760766380331991,0.026663028725532275,-0.13397952125518592
69.75141528,0.037338403220421236,-0.08105173909011466,-0.15804886668363122
70.25141528,-0.08435340482664029,-0.16062778238755424,-0.15989883027238824
70.75141528,-0.039191495654313784,-0.02995633154623478,-0.15845144342866666
71.25141528,0.002827523532861497,0.006293496644662961,-0.1543956335242587
71.75141528,0.09487713453284537,0.08154220683357569,-0.0895311121109526
72.25141528,0.008732572299988478,0.03913728543565945,-0.14531950078073355
72.75141528,-0.08508806135293873,-0.10864331126522343,-0.13328298737682434
73.25141528,-0.03138576374652615,0.07569401016582895,-0.11481653099049033
73.75141528,0.023466524453136,0.030766605505982415,-0.047530303157587876
74.25141528,-0.03145078712953855,0.000508416653658767,0.01983912123521492
74.75121528,0.08470773258454647,-0.07442370592740526,-0.02346451277040642
75.25141528,-0.035461156011835894,-0.257347843406435,-0.10518142635244597
75.75141528,0.06644428046120132,0.012712225019710397,0.0961391676563487
76.25121528,-0.11742345290266702,0.0542688854614817,0.13554679681796275
76.75141528,0.18325563217808621,0.007596788626865681,0.024008916091879048
77.25141528,-0.017503010132816195,0.03659324299828815,0.07227033908102233
77.75141528,-0.0545437962930654,-0.05853430284555259,-0.02276221801740782
78.25121528,-0.029742193252331406,-0.009463732275856446,-0.0330012010845602
78.75141528,0.029175995407263323,0.09300556958194323,-0.021297156067966137
79.25141528,-0.016508580532918874,-0.03381833011227279,-0.010021328082096685
79.75141528,0.03495697202184106,0.022483153331756534,0.0030548325487148326
80.25141528,-0.003760362085091953,-0.16079016986789377,-0.0003059598412431186
80.75141528,-0.0006840350455385641,0.07484905465628941,0.002978067817626437
81.25141528,0.018555200742170794,0.23742829769346002,0.0018858829857924142
81.75141528,-0.004370834890129791,-0.07341940391574,-0.023448047250866296
82.25141528,0.02711721307333911,0.014371825877994767,-0.0028430046117624785
82.75141528,0.022635347262341076,0.04292442389277807,-0.011389675779609238
83.25141528,0.09017801668276476,0.1596271158427128,0.009761962089752413
83.75141528,0.015696789354974858,0.13175720181246867,0.10919029910545777
84.25141528,-0.011988173294125081,-0.28609725549971576,-0.2091925132404455
84.75141528,-0.020546744190750945,0.055063829356851786,0.01709192101439664
85.25141528,0.1795477367476675,-0.005556916063715279,0.05403165941921455
85.75141528,0.03783576903988429,-0.15070336148122784,-0.10464458794194849
86.25141528,0.042507373043936175,0.22689536968458576,0.0118683294712499
86.75121528,0.04185639023405062,0.08238107963734631,-0.05662815077380087
87.25141528,-0.03735767207773774,-0.12380494671010184,-0.01470825051229148
87.75141528,-0.025596284633666554,-0.002460587604949666,0.0006956580919132982
88.25141528,-0.015356498040523258,-0.027318076816170208,-0.005691636715648934
88.75141528,-0.027725431879054883,-0.05108169244112724,-0.015822963828156723
89.25121528,-0.027163066370397802,-0.0840537661887083,0.013729613945555606
89.75141528,-0.04879145437059232,-0.07163451539212531,0.014741701867462794
90.25141528,-0.06376800787157035,-0.10017673925966226,4.9445108295731966e-05
90.75141528,0.060645688621197166,0.2520173253429814,0.02352475815884541
91.25141528,-0.0028046999729507377,0.04923482760293388,0.014152637108728723
91.75141528,-0.02010221715657559,-0.020148196952709488,-0.0011378263785485107
92.25141528,0.02097147822589321,0.06518981222809672,0.0024988968001563266
92.75141528,0.08314975828453539,0.13068262230766917,0.013629991004102176
93.25141528,-0.07569608320669233,-0.273679205968559,-0.011443776977400288
93.75141528,0.008683798510092954,0.1300426621509959,0.02164260952383132
94.25141528,-0.014086427488637103,-0.040934733285745636,0.00349849993958781
94.75141528,0.02207447302620925,0.03527859108500281,-0.00971359441435905
95.25141528,0.07131092497316441,0.12379267895811218,-0.0549372402807736
95.75141528,-0.13452308516013534,-0.11970554055296909,0.13080426616950303
96.25141528,0.015102516517227542,0.027698980652358433,-0.011298266710079448
96.75141528,0.05745207854589193,0.026300751432577173,-0.0584659866089151
97.25141528,-0.048441429928814526,0.0032842373959968947,0.009199697155334429
97.75141528,-0.053269389796260176,-0.051724826430413866,0.04127710922683659
98.25141528,-0.0022172251273742936,0.09626930325204944,-0.008628897923650578
98.75141528,-0.029971562332600298,-0.04363387988648106,-0.001890907129781447
99.25101527999999,0.004258793234123813,0.006809877370834153,-0.0027363191792138496
99.75141528,-0.002920240988259838,0.001752205870086591,-0.0020683690607602103
100.2514153,-0.03434191975635595,0.010043109626517093,-0.034799616065647784
100.7514153,0.06543352405123327,0.23765173524925567,0.1478137668283262
101.2514153,0.08524575291945498,-0.16761974461276466,-0.06963712036021968
101.7514153,-0.0590862188467441,-0.06153100492063592,0.01675462790925256
102.2514153,-0.022680720507032813,-0.031144568827925604,0.006661963825405581
102.7514153,-0.030900853176246246,-0.04437725413480271,0.007813076735132825
103.2514153,-0.006282041457728629,-0.004157964513344449,0.0007975598007554049
103.7514153,-0.023006260906206083,-0.006080561758442899,0.006411883005009683
104.2514153,0.14281116886529557,-0.0007649294671611917,-0.07841144828273054
104.7514153,-0.13216443492761154,-0.0389860933597329,-0.009181943342616341
105.2514153,-0.05051939732171852,-0.022289411773405588,-0.03705716959988953
105.7514153,-0.02952106576048479,0.019158960444152485,-0.019926246871162064
106.2512153,-0.002639459670272273,-0.0009666725639943932,-8.019591108486823e-05
106.7514153,-0.016231596627128288,-0.0023517554790968014,0.0007661646697380902
107.2514153,0.0081586467785424,0.012906553843900204,0.0022732424197588817
107.7514153,-0.022384775968896643,-0.00816883467089807,-0.004908479122194011
108.2514153,0.017050378482338136,0.008941484478348713,-0.0023873070333729966
108.7512153,-0.0014896792563955832,0.01479225495678277,0.0006277974418354615
109.2514153,-0.006294699759893433,-0.004174542600801183,-0.0030424247113370055
109.7514153,-0.006865425135239599,-0.005899139848686992,-0.0021642150525989804
110.2510153,-0.0008666971211759807,0.009419726334062505,-0.003064491717837017
110.7514153,0.0031741391000325806,0.002807160219385982,0.005306400899236606
111.2514153,-0.0058177801751429946,0.005221603366255097,-0.0011526074999106209
111.7514153,-0.00867679218781068,-0.008789358755373738,0.0008515338394759639
112.2514153,-0.012988208537288657,-0.012263360057701223,-0.004078170408543592
112.7512153,-0.005246536829880726,-0.0011514306149796871,-0.0031655207194947656
113.2512153,-0.008905709456840409,-0.002877261954676349,-0.0007395599091923459
113.7514153,0.004659635120729206,0.0030981761919145505,0.0012338943479227183
114.2514153,0.00044218341258948744,0.00389292874171581,-0.001008832048334501
114.7514153,0.00015482000420761905,0.001697705566140885,0.0009042146888236502
115.2514153,-0.003754856075680454,-0.0029575773110190415,-0.0014318631846962548
115.7514153,0.005727695932295146,0.014728125682175788,0.000488304940860325
116.2514153,0.0008121840426207799,0.011265322431966427,-5.938609835841895e-05
116.7514153,0.008862286846177857,0.010510458492873529,-0.0010906938228464932
117.2514153,0.0015887439525811885,0.010952327592616716,-0.0024323254778700217
117.7512153,0.05516900744792791,0.029880690142099344,-0.0047391250215845625
118.2514153,0.029449081428605858,-0.1172188729604963,0.0318334148150651
118.7514153,-0.005086402675212495,0.0511696781948606,0.0028496229297551136
119.2514153,-0.010422799989310288,-0.04854867253464027,-0.002249412741786237
119.7514153,0.032828744204803355,0.10739114812429833,0.0007668310922932829
120.2514153,-0.014031471310409384,-0.01692719332788518,-0.0028701784903462967
120.7512153,-0.017680635499269536,0.02732294421647725,0.0017741119014209618
121.2514153,-0.010305029595541993,0.0018205647070621378,0.002169865071542516
121.7514153,-0.02778695915727242,-0.0026754803079607303,-0.008524602360461953
122.2514153,-0.0020252630023845034,-0.01133981773257608,0.004890878692326671
122.7514153,-0.005605922149544718,0.011289700183556699,-0.005159163198067883
123.2514153,0.0015334746072441943,-0.015267726465157895,0.0018425906476689476
123.7514153,0.01288857446324087,0.007846775786666533,-0.006046606007907317
124.2514153,0.003288678084955009,-0.001150584302896647,0.0014841302570239307
124.7512153,0.030440631811855794,0.005754977580839526,-0.006040849300728787
125.2514153,0.16492520678412798,0.2641075672155199,0.054520056755474604
125.7514153,-0.01853710231103948,-0.10024186739529557,-0.008088671462736096
126.2514153,-0.016470774044513505,-0.045651455869988714,-0.006266556803758692
126.7514153,-5.6048639662721957e-05,0.0026073604562773735,-0.0028146207931107436
127.2514153,0.01424097166255084,0.012376694844313203,-0.006889971014432038
127.7514153,-0.001162359070966621,0.0046415074955007555,-0.005409571463937648
128.25141530000002,0.013660381841045253,-0.010106181634920074,-0.0016977724852101834
128.75141530000002,-0.017584808202058284,0.038149118534824084,0.004071202058800273
129.2512153,-0.024621724930476617,-0.01761570826576339,0.017384987203022072
129.75141530000002,-0.013554234008866684,-0.002780587664365843,-0.021666727363539532
130.25141530000002,-0.000658693601720884,-0.016022059045321526,-0.002106956978040136
130.75141530000002,0.0028389475292221805,0.008925315754263282,-0.00972171479634238
131.25141530000002,-0.005350640930776611,-0.01563844091775174,0.004553939995410055
131.7512153,-0.005208412373950537,0.010711492436414156,-0.003235726989458155
132.25141530000002,0.006858334612160321,-0.0021490752081150893,-0.0011501572575317754
132.75141530000002,-0.0008306478959634913,0.017934845646235847,-0.00306565670471037
133.25141530000002,0.007616161982684504,-0.008897247976723484,0.004557573848990362
133.75141530000002,0.013513400777089811,-0.0037698802198254744,-0.0061330627721042945
134.25141530000002,0.001770966922422605,-0.02003723610467223,0.0027867409871711853
134.75141530000002,-0.0029984076763341465,0.013229236010534893,-0.0023182422116807323
135.25141530000002,0.0033588418089114235,-0.005050828211524116,0.00174177063977343
135.75141530000002,-0.0009200200144132174,0.01495424101051789,-0.0019448423571424467
136.25141530000002,-0.005422911930597645,0.007710271221341255,-0.002370725200837935
136.75141530000002,-0.0011764153241871234,0.010077466334126983,-0.003234288473611205
137.25141530000002,0.12314587513055715,0.1477267036031865,-0.007100736095212148
137.75141530000002,0.13628713194900435,0.23982903797218463,0.11339768614762077
138.25141530000002,-0.1691352133048424,-0.3433127373873331,-0.024588226817081296
138.75141530000002,-0.08326948416957614,-0.13927189661791148,-0.03924576311822472
139.25141530000002,-0.015309092983614245,0.02752348433670514,-0.0149690906942081
139.75141530000002,0.02145836881897575,0.006813496796486525,-0.0026703985197686258
140.25141530000002,0.022052225908188117,0.04929762066058605,-0.028214003614378994
140.75141530000002,0.03801038596152147,0.07777722371271437,0.01277367429470433
141.25141530000002,-0.024358565674347875,-0.022859347557022215,0.002392553577489359
141.75141530000002,-0.0018171486555728696,0.009303333029996532,-0.002516056762011837
142.25141530000002,0.0020973225085606237,0.05770384500974826,0.0036895603945230893
142.75141530000002,-0.005783782709764987,0.010000899578601336,-0.002762238403212709
143.25141530000002,0.0008771587953004392,-0.016073326902470892,0.0051288199167080365
143.75141530000002,-0.027077534289368273,-0.06692820068310701,0.005932783474122235
144.25141530000002,0.0077366311010180246,0.028802680250734486,-0.0004216674015504247
144.75141530000002,-0.0014156291580324062,-0.026301026662426886,-0.0048950810899303435
145.25141530000002,0.01566753069619313,0.06515908023110444,-0.007416936029020414
145.75141530000002,0.043539761439171064,0.14784233793020304,0.011351431865914583
146.25141530000002,-0.03749509237218863,-0.10285982826490044,0.00017261181829734043
146.7512153,-0.004097654710059609,-0.013152187472154988,-0.002036846225364061
147.25141530000002,-0.009432528055678195,-0.041378105465319885,-0.006951658472861371
147.75141530000002,0.006455570258054398,0.007065474261661002,0.003768695363478547
148.2512153,0.008350903590345586,0.037023609134494054,0.003637907141747869
148.75141530000002,-0.004552464728782423,-0.038508543829449134,0.0016799726278121968
149.25141530000002,0.00031612573765736916,0.013081283859406587,-0.0022061341114734266
149.75141530000002,0.013998601268143547,0.024039418856342813,0.008727588176730704
150.25141530000002,-0.02100151338058771,0.009483086905067623,-0.01186174049909403
150.75141530000002,0.17674051110702085,-0.09831880105067199,-0.13076856038673282
151.25141530000002,0.19299205109647746,0.21586040037433013,-0.038550026114602336
151.75141530000002,0.009872873012631296,0.011693690263996968,-0.011432105410149409
152.25141530000002,-0.002471214962363808,-0.04953368912055442,-0.00626896215651638
152.7591417680851,-0.08162521425789737,-0.11930053252625551,0.03473331117466558
153.2547948,-0.00459027347868452,0.04512507782069651,-0.012948381457402718
153.7547948,0.0017219156447693994,0.026783118699494714,0.016669503381602474
154.2547948,0.008826281168285127,-0.007730281465800304,0.012398141503850681
154.7547948,0.02399163140440547,0.027282250634693715,-0.012945259670201664
155.2547948,-0.002214030774298823,-0.0015357855928217828,-0.001474368568270347
155.7547948,-0.0015761716326474122,0.0061514157551052625,-0.0015290017163829344
156.2547948,-0.002006742729853501,0.0014561005374712243,-0.006536336564236364
156.7422996851064,-0.007812749858794817,-0.012489268943706213,0.00034353302145512466
157.2542272,-0.09022269998355799,-0.09429613379309738,-0.019914092642690014
157.7542272,-0.046340637437405886,-0.07891285849765305,0.04786651453323321
158.2542272,-0.08014663195052998,0.06844878007656392,0.06683813977573039
158.7540272,-0.024920267781295493,0.02618231112496037,-0.07978697063010326
159.2542272,0.07160034713307786,-0.029929672620930582,-0.011747174098855633
159.7542272,-0.06487020578245954,-0.04375838638590946,-0.013030764849518438
160.2542272,-0.011312882954933877,0.01150789249265911,-0.004649308704400809
160.7542272,0.008991301969446518,0.005767562247322806,-0.00031551978340835604
161.2542272,-0.018620082236823213,0.01710337423095056,-0.0019790915801844357
161.7542272,0.005950592393094491,0.0002124787730352347,-0.00015941145089956018
162.2542272,-0.014333972339097197,0.007480366013639426,-0.0039108490514129885
162.7542272,-0.0016338209150176613,0.013657905330346444,-0.003155070218931177
163.2542272,0.010116877585875768,0.003154264383055869,0.0004462279778862652
163.7542272,-0.0006242165606874953,0.008574829815996068,-0.0009113515337676897
164.25422719999997,-0.002449968069067399,0.013041681259575288,-0.000401362345781301
164.75422719999997,0.01232573463787342,-0.009505900556873507,-0.0005761548045038665
165.25422719999997,-0.007662393052162335,0.03036381254592299,-0.0014374109563909773
165.75422719999997,0.028454299344756268,0.016004959052131448,-0.0013095378883943459
166.25422719999997,-0.033764171846243904,-0.062101568183099115,-0.000630077342804757
166.75422719999997,-0.007911090911849954,0.010993654908247158,-0.002770656912682814
167.25422719999997,0.004453832076538793,-0.007063659374118475,-0.002818584583313525
167.75422719999997,0.005488811148249309,0.013272763336571382,-0.00026623317038613884
168.25422719999997,0.09902074516044354,0.14408827482535025,0.10840462677573239
168.75422719999997,0.018965276017842626,-0.008203441585269824,0.00715526042227378
169.25422719999997,-0.051905659098614026,-0.08241967790979732,-0.010044392382223407
169.75422719999997,0.019341507071716474,0.028914536005753978,-0.013832077048391463
170.25422719999997,-0.01466826916791678,-0.004264571587408116,-0.003583256070697037
170.75422719999997,-0.03706946687746053,-0.10447193911971801,-0.02040783158851939
171.25422719999997,0.0029441876649952082,0.024968320771679847,-0.0029290025157133848
171.75422719999997,-0.023532570885025573,0.021626117813232003,-0.00209221035125751
172.25422719999997,0.026535921605460807,0.01826974528316746,0.004415183062957309
172.75422719999997,0.0619278522590914,0.11470707417762674,-0.00519559653978906
173.25422719999997,0.017479673347306112,-0.2982393082535004,0.0737000270256654
173.75422719999997,0.30588784921303575,-0.1482760575857483,-0.06624463444667521
174.25422719999997,-0.02044350636034809,0.20751399107321988,-0.007974873610529726
174.75422719999997,-0.0561803019272407,-0.14161209513183212,-0.01803889334557649
175.25422719999997,0.019697819098669522,0.0012830450741480215,-0.04092055263035307
175.75422719999997,-0.030734573043985546,-0.09213834278055408,0.0011809636727727368
176.25422719999997,-0.06101188860838391,-0.14534635813161995,-0.011388024202390299
176.75422719999997,-0.16414146778821415,0.24282576059099326,0.007031747822676512
177.25422719999997,0.030681800788205482,0.13378067808853258,0.003619038174090983
177.75422719999997,-0.0010496855502239188,0.056748650544406976,-0.015826926596424932
178.25422719999997,0.00983636311268587,-0.0503627766796054,0.030013570475195355
178.75422719999997,-0.028892343570252374,-0.002041282821917227,-0.003908084609513882
179.25422719999997,-0.02630410172274481,0.021033998917688996,-0.0056462082871427096
179.75422719999997,-0.0025369980583877173,-0.00893341380863438,-0.0008061242159661917
180.25422719999997,0.024841559366553204,-0.024009510099579155,0.0055861845542854805
180.75422719999997,-0.017642286174518435,0.03884713652572165,0.025231420539617494
181.25422719999997,-0.1332160821739642,-0.05639898903301369,0.09906551580850227
181.75422719999997,0.19587621279047623,0.11778245637865294,-0.03756722425839667
182.25422719999997,0.005453052251834153,-0.09313802542283986,-0.0259970651895352
182.75422719999997,-0.025503764722888195,-0.034148896422462716,0.005183695541692987
183.25422719999997,-0.05065768515328773,-0.05989770884209907,0.0035559727673032822
183.75422719999997,0.12701526630239868,0.12057066122956861,-0.0007021437108473489
184.25422719999997,0.0011513950268057453,-0.013631484896228785,-0.040908645144474766
184.75422719999997,-0.008059412989321401,0.002439437133048404,0.0021588675099513625
185.25422719999997,-0.003891885931744905,0.011228139371095574,0.0061196294467061796
185.75422719999997,-0.026772990779354747,-0.002584226522422184,0.0052811449758541395
186.25422719999997,-0.021045366300671886,-0.0037527332974544225,0.005988984023783828
186.75422719999997,-0.024913090080581065,-0.02495279333908817,0.003369189170261102
187.25422719999997,0.010815089512137452,0.007643938825041212,-0.001969731285357754
187.75422719999997,0.006665447302824239,0.007159930515118072,-0.0020559832188302525
188.25422719999997,-0.016137049140934813,-0.02313962836599681,0.0066364101446426595
188.75422719999997,-0.001918864439918995,0.010986506342747298,0.0007461502384849636
189.25422719999997,-0.007778885712188935,-0.009629358650872336,0.00016402368558229212
189.75422719999997,-0.009956804563718674,-0.014745725530202793,-0.0029409255897704214
190.25422719999997,0.0009754912583731536,0.004544347968748918,-0.0101842613809705
190.75422719999997,0.009609270832021639,0.007929405144937162,-0.0004800824301626974
191.25422719999997,-0.008610664953483333,0.014669403683122306,0.02221927900126606
191.75422719999997,-0.00893921308206707,0.007134377968463429,-0.004314284843648312
192.25422719999997,0.0031562752221768364,-0.023188456346457942,-0.0035861431351921287
192.75422719999997,-0.00542789168017792,-0.021797780252100045,-0.0058856194996819424
193.25422719999997,0.01197715643967132,0.0401195148113635,-0.015168688644779294
193.75422719999997,0.021046003771166846,0.02962520937702576,-0.014858420446457523
194.25422719999997,0.02838981548331622,0.03553921742071985,0.016951591432946563
194.75422719999997,-0.03585405204344301,-0.014801430561411855,0.007233605785469771
195.25422719999997,0.033976265417658164,0.04214993763627989,-0.0006602708986173761
195.75422719999997,0.05123837670435322,0.03932937180003673,-0.0021416746238546564
196.25422719999997,-0.011650023182244094,-0.0010271785538117772,-0.005335859020023462
196.75422719999997,-0.0046111701605066335,-0.010996571872049388,0.006104682530337163
197.25422719999997,-0.02912732110399785,-0.042484476301494205,-0.007815986266646622
197.75422719999997,-0.011135416728116061,0.00854538354784275,-0.005853433977874971
198.25422719999997,0.01851909368602316,0.032767233914147584,0.0114434174162575
198.75422719999997,0.000572279949658564,0.009363182430547491,0.0113293387635636
199.25422719999997,0.052695061593846015,0.09172447571445339,0.044257737977753085
199.75422719999997,-0.06619312234589977,-0.047592060873876484,-0.026918989442824465
200.25422719999997,-0.004922535248484119,-0.07568488665400251,-0.08610392639834974
200.75422719999997,0.01358198777222357,-0.07655107432125785,0.054244376480773224
201.25422719999997,0.005972016474603766,-0.10345035774105024,-0.05311980989475176
201.75422719999997,0.021139316920444864,0.08973188810727169,0.018992528772682996
202.25422719999997,0.025103256507359558,0.11367388956228126,-0.010610163335497741
202.75422719999997,-0.009920916532328239,-0.029696228173331347,-0.002782193927638177
203.25422719999997,0.010045798577419662,0.027622903370862994,0.0021402088291546193
203.75422719999997,-0.010601256793520373,0.06270162811758243,0.006352156542645762
204.25422719999997,0.003647638467285709,-0.02808112878284064,-0.0017986811988398568
204.7540272,-0.07037426860349531,-0.07835420257457282,0.0031315009812562
205.25422719999997,0.06355909986127992,-0.10198802326696935,-0.0466230779315016
205.75422719999997,0.028240137406244013,0.02711620919011867,-0.005403670886697043
206.25422719999997,0.032335654662706347,-0.0002662806286821656,-0.004928160950634573
206.75422719999997,-0.03666265423221608,-0.03428079131025776,-0.0032999936103885272
207.25422719999997,-0.0056138272567360795,0.10753939306599175,0.000164067530492316
207.75422719999997,0.08345541134801708,0.09219436858262235,0.0376545312625145
208.25422719999997,-0.023599349616685562,-0.10937917281889106,0.00281683497186279
208.75422719999997,-0.016781210256287,0.015618730814714352,-0.009897724254401415
209.25422719999997,-0.021176611045861674,-0.003941921564113696,-0.003124876670892388
209.75422719999997,0.02305970516969122,-0.014351427969285197,-0.00476402978811134
210.25422719999997,0.014765908456658363,0.0001923790890965074,0.0006385643539202345
210.75422719999997,-0.012253934884131006,0.01680120550939578,-0.00598372467659317
211.25422719999997,0.008852456689575542,0.007234264358710322,0.0010843468791678114
211.75422719999997,0.004966256231893985,-0.002594506096122553,0.006058927724502321
212.25422719999997,-0.0016459904712488442,0.0012863709566586022,-0.005889274955909827
212.75422719999997,0.0018646946515866625,0.009362815019209596,0.001673168714954184
213.25422719999997,-0.0034102207469117072,0.005935625787187807,0.0008197155647428359
213.75422719999997,0.009826111204751513,0.0016143763122515348,0.0028667005423007714
214.25422719999997,-0.043486411561367955,-0.1293263859219143,-0.0004587051222851155
214.75422719999997,0.07483643442255171,-4.389666509383022e-06,0.031032406787622556
215.25422719999997,0.0014833690053441533,0.13352362307884735,-0.03745577102271819
215.75422719999997,-0.09946498114818436,-0.09688743737395455,0.02083847346779657
216.25422719999997,-0.005734203219271607,-0.011637049420069434,-0.012824447634696211
216.75422719999997,-0.039271637592315306,0.05912631807627408,-0.011723630226507832
217.25422719999997,0.06698002040472113,0.08212179839300876,-0.04586944192376407
217.75422719999997,0.009505609865283864,0.05948072508972338,-0.01732489997060986
218.25422719999997,-0.07588857023655714,-0.09111463451790067,0.0431212747149553
218.75422719999997,-0.017168289376113983,-0.0302417040558994,-0.004184349531520953
219.25422719999997,-0.03011548591566664,0.07064296811264145,-0.017967512413151816
219.75422719999997,0.0005943508637551256,-0.010904097826356242,-0.008728392192459482
220.25422719999997,0.21116513158014252,0.08197562805135701,0.04029657009961946
220.75422719999997,0.1076174265789215,-0.27757723594137274,-0.013682029663363949
221.25422719999997,-0.04028690680580648,0.06920953208338992,0.01617322807982523
221.75422719999997,-0.011158725927445046,0.08479954227668733,-0.035193407685344555
222.25422719999997,-0.0025364990588435956,0.0044597399347289565,-0.010720051777879921
222.75422719999997,-0.003528355366303429,-0.11834759099821604,0.05031391855064681
223.25422719999997,0.01710902517882188,-0.06480422256922867,-0.023972779585706844
223.75422719999997,-0.01056303602611895,-0.007371651881375618,0.0054840137586800765
224.25422719999997,0.009035304731165452,-0.017491562715672582,-0.004768369527845303
224.75422719999997,0.023526129397516714,-0.13517935850455373,-0.0013994356693610534
225.25422719999997,0.027683947324503716,0.1493440018031916,0.003511378733263323
225.75422719999997,0.03774522387196474,-0.003623956895815061,-0.016543174181806893
226.25422719999997,0.018930856812414985,0.08258634781924895,0.01587329822529782
226.75422719999997,-0.06758176096542035,-0.05642366819347765,0.026823352495174636
227.25422719999997,-0.013768218959891651,-0.007517274373884375,-0.045717114688203477
227.75422719999997,0.04968021984501642,0.036756752081802346,0.009886641722741833
228.25422719999997,-0.006602396465379126,0.002540032302696712,-0.010192639194075788
228.75422719999997,0.08347466822065602,0.0918190612774059,-0.004798473913228075
229.25422719999997,-0.03410632066083077,0.025131411307568446,0.008829751558903337
229.75422719999997,-0.01731032678360997,-0.037626043580958,0.021756292483352514
230.25422719999997,-0.022131697315389772,-0.12177826966709974,-0.016831816424155117
230.75422719999997,-0.02604441149798754,0.04800180475350484,-0.009379118322182434
231.25422719999997,0.11808657083300506,0.033655348779135785,-0.01862317189785385
231.75422719999997,-0.11398427423610352,-0.0775432547457825,0.025303674369008697
232.25422719999997,0.02429729608483733,0.018150882644198188,-0.004389259937083262
232.75422719999997,0.003419014301376334,0.01003152383973081,0.006104187366300056
233.25422719999997,-0.04086950086855348,0.01730763364193564,-0.010675417801410276
233.75422719999997,-0.027096131341521907,-0.03064519405419622,0.004447541194552115
234.25422719999997,-0.0036106389431304962,0.17234099255501917,-0.01915347569422173
234.75422719999997,-0.05686424715082643,-0.07485434114230242,0.0007791036196565165
235.25422719999997,0.0011985019307514855,-0.04477467551692364,-0.01220340710037324
235.75422719999997,-0.014183024735394352,0.008090880688205335,-0.002345898674523933
236.25422719999997,-0.018263670611315574,0.005961761488394557,0.015642333599752777
236.75422719999997,0.0634601886238868,0.12961979982603533,0.0079432185174224
237.25422719999997,0.003981778171454297,-0.13407302985105052,-0.020645880273608613
237.75422719999997,0.015910467450733573,-0.024091538050471085,0.03368019509016098
238.25422719999997,-0.03802978422881509,0.008557112083863288,-0.025843846673844068
238.75422719999997,0.04848577049821708,-0.06755450671158351,-0.01940800452738708
239.25422719999997,0.009772230527866264,-0.10132278284651884,0.00924542243290489
239.75422719999997,-0.04577526686615165,0.08843745241269584,-0.010767324283789818
240.25422719999997,0.011320494788848478,0.012286217270374624,-0.008095945846816645
240.75422719999997,-0.002643082867040819,-0.031252354673747526,-0.008631727544729358
241.25422719999997,0.03045987166039015,0.08394108177373809,-0.012110029510181735
241.75422719999997,0.015116352697930945,0.11765931804707007,-0.01274622668382324
242.25422719999997,-0.05938832509698817,-0.05212640736613868,0.010088015426575933
242.75422719999997,0.017939258412063723,0.02453806659405278,-0.022670287289230463
243.25422719999997,0.028737736801685673,0.004009360988469924,-0.006734217683300919
243.75422719999997,0.010208462981086382,0.13133570945017975,-0.01942211603106524
244.25422719999997,-0.0022279892007906837,0.12344555319112564,-0.025323524890942934
244.75422719999997,-0.12775738169372533,-0.20963047509520366,0.026724730536731443
245.25422719999997,0.05860977246753667,0.10220924772947612,-0.0198072444310384
245.75422719999997,0.06533248566648087,0.24927802847204428,0.11402766641896282
246.25422719999997,-0.1910550227868395,-0.43680293381338137,-0.024646117869285583
246.75422719999997,0.010393555218764975,0.045335840870928165,-0.001009938362242718
247.25422719999997,0.0007883952151676244,-0.01868884995864145,0.0040366077140724654
247.75422719999997,-0.003171184378072382,0.018915121585447163,-0.01241322199709606
248.25422719999997,-0.03440358042749041,-0.0456679807054073,0.027002895054351595
248.75422719999997,0.16811336882926006,0.11439118570993458,-0.0030223478499443917
249.25422719999997,-0.012404137432027056,-0.041650552583662466,0.00726769344855904
249.75422719999997,0.003621943329832035,-0.009606265433428048,-0.08223055112053522
250.25422719999997,0.013590441648642529,0.0017055689749668843,-0.02312264475823254
250.75422719999997,-0.10016050018163124,-0.24572021007890285,0.03188990118101009
251.25422719999997,-0.005400947253644139,0.12707047817670422,-0.002166857648141122
251.75422719999997,0.06277925304727561,0.204091415787773,0.0144818865557223
252.25422719999997,0.13806165554552016,0.022050282331542204,-0.0710866256672801
252.75422719999997,-0.14957593029302615,-0.15652544158153214,-0.024128633807212127
253.25422719999997,0.11721200942833518,0.13305147981465892,-0.026978221793618674
253.75422719999997,-0.10012942904845051,-0.1055369977802372,0.050875399502744195
254.25422719999997,0.0407482825695614,0.04973654163772399,-0.03412648547817086
254.75422719999997,-0.09005430408293126,-0.061569339504482026,0.08826424901722461
255.25422719999997,0.07072951167121254,0.08233175185569844,-0.04745152900764811
255.75422719999997,-0.0310095217181995,-0.07516304732678485,-0.017190571514631665
256.2542272,-0.009382478666392935,-0.009970415273923408,-0.09370043083572586
256.7542272,-0.031039154542560708,-0.09933136677296617,0.08869047144657469
257.2542272,-0.04113321325633635,0.0702010387990772,-0.06099068774920409
257.7542272,0.015964988688405866,-0.024146242086075454,-0.04925529114847756
258.2542272,-0.06869628891356366,-0.055836899810234764,-0.0025822021146220345
258.7542272,-0.03441927242905559,8.748830340603149e-05,-0.03399914326327868
259.2542272,-0.01385656449322623,-0.0031947598629445354,-0.03256774718455678
259.7542272,-0.01269983291673135,-0.02693789895416654,-0.03719885629258915
260.2542272,0.04938894399898988,0.04930109956274302,-0.04205890715982351
260.7542272,0.045386249108789814,-0.00213539444199672,-0.07305087963473396
261.2542272,-0.0111775453877768,-0.006470106577415602,-0.025046731044978586
261.7542272,-0.02117241921527836,-0.022435068015982607,-0.012380497507381835
262.2542272,-0.050249788613738404,-0.04327819730703518,0.014298133592801963
262.7542272,-0.0018598288239246325,0.0007602367892873096,-0.00511069756339362
263.2542272,-0.00036288034908292836,-0.005331907078927821,0.0039608865340430705
263.7542272,-0.005983150661548417,-0.0017795352220965179,-0.0036706283740370427
264.2542272,-0.0036535986332120445,-0.014261765603843561,-0.0031480529296192485
264.7542272,-0.007482607714169171,-0.015441726283014047,-0.0010160276005597227
265.2542272,0.0005421242537368645,0.013208882248632483,0.004536611187201089
265.7542272,-0.0014772067709077296,-0.0028074507217716537,-0.0003887710692510377
266.2542272,0.006699735468494743,0.013854551102412665,0.001464521036394155
266.7542272,-0.006824828047961819,-0.015190275184999658,0.00012030863259362818
267.2542272,0.0065503607690505,0.009211701887699278,-0.002186527049166862
267.7542272,0.00017942643486694763,-0.004266869117975226,-0.0006433422942004945
268.2542272,0.01003781826283899,0.021509600200360496,-0.0027301779006575827
268.7542272,-0.0031907940928156413,0.0067122155713992444,-0.004623439984041102
269.2542272,-0.0013993870602551195,-0.0062971087006035865,-0.0007342034529397208
269.7542272,0.003948258086919561,0.011023757884494133,-0.0022229608910268443
270.2542272,-0.003514914093105962,-0.007462892424285491,0.0009627554413737152
270.7542272,0.00020821420463632654,0.010246099769753027,-0.00413995926673377
271.2542272,-0.002673297202267291,-0.003918106744081553,-0.002392536485298365
271.7542272,0.08622480787310925,0.09327381647271199,0.03180433786212415
272.2542272,-0.07359320962509588,-0.08297834691318984,-0.05105847361772113
272.7542272,-0.08358322604175812,0.05878666821499753,0.043780017020797535
273.2542272,0.04160768548673767,-0.014653660944530866,0.06620406702790864
273.7542272,-0.059966970102403316,-0.0651819427463821,-0.00016153132936770785
274.2542272,-0.0520392214548046,-0.08143287152828303,0.025389772705840977
274.7542272,-0.11693225117432038,-0.1206647157539509,-0.008509091090644362
275.2542272,0.15017444032552218,0.26374448996411565,0.007102976869294619
275.7542272,0.013111735404218389,-0.019668508840998123,0.011650718311273733
276.2542272,-0.018105354673514328,-0.01603111263162604,0.010788126475896833
276.7542272,-0.012865740903418483,-0.006863610438069588,0.002139311503096974
277.2542272,0.011098273767866757,0.003755970796922255,-0.016909068229333177
277.7542272,0.00011779068291956962,-0.0017472637077516448,-0.02156635287108417
278.2542272,-0.000277355416786896,-0.003906353283969356,-0.007580360117573623
278.7542272,-0.015491264019097572,-0.016617878440848378,-0.0061934610252717915
279.2542272,0.003408601445174844,0.019152237740329852,0.007785339922330727
279.7542272,0.005308936636780627,-0.0011943809616919378,0.018431100610936654
280.2542272,-0.035955331025272166,-0.05507311068632806,0.023565744656227596
280.7542272,-0.022408521862134042,-0.0022251840871202046,0.018235674974697396
281.2542272,0.17040387097374382,0.08094261460451949,-0.09869321194951361
281.7542272,0.022317176305872394,0.045986334655455645,-0.015942308415382453
282.2542272,-0.017956611807207708,0.13025225698988485,0.01917668206483278
282.7542272,-0.0430080933659806,-0.13135088755765018,0.011575925009791812
283.2542272,0.03733104036490043,0.08637681092642331,-0.011398225924441946
283.7542272,0.02006337047547962,0.029925408058824196,-0.00961218667331967
284.2542272,-0.035851745249520964,-0.09967519580697853,0.005984558951633427
284.7542272,-0.017471639550194547,-0.006842081534328906,0.00517294386823535
285.2542272,-0.005616997864752946,-0.008936850966000554,-0.010558166415981013
285.7542272,-0.003387356572556927,-0.014468924031060917,0.0006481524873839682
286.2542272,-0.005522789694771892,-0.018843321813606297,0.0026969104445747284
286.7542272,0.024304566622743745,0.04773587218643276,0.0033579471983437802
287.2542272,-0.017970308856554554,-0.03458694458460117,-0.003002887897482152
287.7542272,0.022102801361222158,0.04652508340236025,-0.004220667093266185
288.2542272,0.024201835143269266,0.15666083312785706,-0.0523618834090778
288.7542272,-0.041849287940088936,-0.10741395649700661,-0.037317911442355876
289.2542272,-0.21887306504541992,-0.09982245323543529,0.05346455187911329
289.7542272,0.12028157286279334,-0.2264102350623951,-0.007070305874752227
290.2542272,-0.06025769828991514,0.025493281821969752,0.015663302059323866
290.7542272,-0.016608609511454136,-0.053522607176574824,0.01047556966287956
291.2542272,0.1593887019196413,0.12631887184583665,-0.014865932719822651
291.7542272,-0.04132613315621052,-0.11411723458746317,-0.03139740847906788
292.2542272,0.022800889308812633,0.08296476405055421,-0.0025996685623100434
292.7542272,0.0012603999796757138,0.008394115170578741,0.014668944488170714
293.2542272,0.03745325584148617,0.06254857047817948,0.003376878594755297
293.7542272,0.03393402974508356,0.04639765458092058,0.011612171861467693
294.2542272,0.33588099753260964,0.05611994933621925,0.006376395650032758
294.7542272,-0.13756875624263265,-0.06326065751684501,-0.005053260366943152
295.2542272,-0.06874571890865551,-0.014189514136707064,0.0018807317102400257
295.7542272,0.03301747597836794,0.02882176097110125,-0.002953774800389754
296.2542272,0.41338153920484855,0.008562654369196681,0.0044519935486501995
296.7542272,-0.10943526580211245,-0.057054628657515566,0.01364859123636892
297.2542272,-0.5784452615639283,0.060827720594894226,0.1285291157839691
297.7542272,-0.1719442624312914,-0.5384009403609905,-0.18422415781873877
298.2542272,0.061930231138288494,0.10716042784250429,2.049726971982968e-06
298.7542272,0.00035636834954725776,0.0011538974425024042,-0.006210576069749768
299.2542272,-0.0009138804060639164,0.003989803175737345,-0.0018003552508266533
299.7542272,-0.00020791662209790812,0.0020089868711636273,-0.0005459930290655133
300.2542272,-0.0004242975145495194,0.004181957935639294,-0.00046556263486326665
300.7542272,0.00022387495154287853,0.00020096762516098253,-0.0001574496024527068
301.2542272,0.0003718147131147101,0.004395878357873472,0.00039507943654913593
301.7542272,-0.0006069496099353068,0.0034697620000505467,0.00044054717624233286
302.2542272,-0.00018611243441416512,0.0026396525335779285,-0.0005357297672704296
302.7542272,4.584437890609121e-05,0.0006084770120106501,-0.0012749975893878818
303.2542272,0.0006359278795078124,-0.0001788896720400592,-0.0025569578895420133
303.7542272,-0.0013034354692091881,0.0021944588481013923,-0.0008301496314205887
304.2542272,-0.00020477280556653848,0.001614724152072107,-0.0007899020758665314
304.7542272,0.0016342055328089204,-0.0009403553331674361,-0.0026611300892326922
305.2542272,-0.00013069216897177062,0.0039999157387608595,-0.0008436040615531029
305.7542272,0.0016979679938841261,0.00117066889227416,-0.0015172414494033872
306.2542272,0.00036306638920345776,-0.0022885641312969207,-0.00253596013920553
306.7542272,-0.0015829053317535202,0.0017033738269030601,-0.001001331796060188
307.2542272,-0.0005289202536046644,0.008895464812792643,0.004186455597125727
307.7542272,0.3455207083076661,0.7554738987041136,-0.010600499390728104
308.2542272,0.028593341956012583,-0.17233103582233195,0.12191588777309974
308.7542272,-0.19830001855155058,0.030660797296515517,-0.0922338882282739
309.2542272,-0.12392686207060159,0.06869251653070517,0.046135299766330296
309.7542272,0.003818234987554195,-0.011524858177002082,-0.07670081601451878
310.2542272,0.21911920793194145,0.35601809452285893,0.0743995564504036
310.7542272,-0.09311016444979955,-0.07902423720924397,-0.009766871484912325
311.2542272,-0.0069177806153991475,-0.014620365347664985,0.010234536426186346
311.7542272,0.06826903140363784,-0.1123634297762353,0.017264782931872853
312.2542272,0.19376833983492656,-0.4992159538747715,0.04844563568472655
312.7542272,-0.13653036223838316,-0.11501693735615504,-0.0296353885166906
313.2542272,0.04104740011582236,0.04618814761747131,-0.017492192934724843
313.7542272,-0.023413554597539146,0.273318543234166,-0.003142070396428277
314.2542272,-0.03513251836392351,0.034991992704428286,-0.021101489444490022
314.7542272,-0.1301934629940558,-0.029012347630405902,-0.1994087844518594
315.2542272,-0.019620715728738223,-0.027234329244543762,0.009678812324005514
315.7542272,-0.005154043180505187,0.088748508786432,0.08680480957983087
316.2542272,0.28181600035274373,-0.10473575738207674,-0.1597339563733029
316.7542272,-0.15877265411018907,0.06888880721804791,-0.07748603058040095
317.2542272,-0.0036469341127351824,0.028975184428310104,-0.0012874726663830685
317.7542272,0.0027632362085141292,-0.0070617661841970766,0.002431660612265841
318.2542272,0.0005485041805652377,-0.024267019094853987,-0.003044678144776452
318.7542272,0.0031441454230926747,-0.03619995366990961,0.011557840842756217
319.2542272,-0.002418649369255964,-0.009080157821455756,-0.0017017488814302796
319.7542272,-0.0016544480001960125,-0.01515510391596294,0.0008486022084826583
320.2542272,4.2981455775304996e-05,-0.004002017476580268,0.0022323085814485184
320.7542272,-0.000932373336754989,0.016518436104623623,0.03709726224112811
321.2542272,0.004288901149117393,-0.048425728801192724,0.06897240912560049
321.7542272,-0.23825207891566258,-0.9717296252759219,0.24337416609336052
322.2542272,0.1370532317584477,0.4511691899874471,-0.06366661713076054
322.7542272,0.002761903454042143,-0.013802780120393012,-0.021735207134106177
323.2542272,0.0005689672779847282,0.00013822285918670103,-0.013537416548486152
323.7542272,-3.0700612337014116e-05,-0.003190542006177709,-0.004770729548088809
324.2542272,0.0028253974368985814,0.008479991563216382,0.004909971303071368
324.7542272,0.003080885369950806,0.004739801352895493,0.009873519796674512
325.2542272,-0.0011479355850286294,0.008225947823087464,0.012728330602533264
325.7542272,-0.0017793623070087564,0.00854319247777033,0.0055781000300311225
326.2542272,0.004037691417958659,0.004570201553377939,0.0068651142474846286
326.7542272,-0.001032497197821334,0.0019301178742004222,0.005960316778117927
327.2542272,0.0018349361193376657,-0.0022019366500184933,-0.00975539808466637
327.7542272,0.0027414640206440055,0.0025817520132024496,-0.018302744962692356
328.2542272,-0.0014096567373693665,-0.0013038005965006344,-0.014631362712020424
328.7542272,-0.00022239712525275472,0.014226293346598385,0.004554975453680481
329.2542272,0.008066829615885973,0.007866617805105138,0.007540398942888972
329.7542272,-0.0012053215698482253,0.005573957799961313,-0.0033919817511812913
330.2542272,0.0016180371858326354,-0.0009547015872253367,0.0028142412245283823
330.7542272,0.002073760895396415,0.006006606593672668,0.0041914893600816065
331.2542272,0.0021286254205455752,-0.0006900668685095252,-0.004855230352499128
331.7542272,0.003329942596959157,-0.00937442901617097,-0.0018263841864305025
332.2542272,-4.424767673704393e-05,0.0007593105792664121,-0.004348204418748018
332.7542272,-0.005821075276083444,0.003808509093018261,-0.0010031929288270415
333.2542272,-0.003779697621346489,-0.00723118926265718,-0.0037028403671801567
333.7542272,-0.0010158691911703566,0.0018770907088294941,0.0014772464018012472
334.2542272,-0.003616979767794284,-0.00048577243202004456,-0.001166918616650671
334.7542272,-0.002510528575959487,0.005393829849823787,-0.00348996455752627
335.2542272,-0.0059457315349983365,-0.017944090385845327,0.0006628147266864237
335.7542272,0.15928517754492497,0.43330133311289865,-0.03422629433633251
336.2542272,0.24489555101110483,0.3323068232835666,0.0768659050749536
336.7542272,0.11326725018782949,-0.1988114319964334,0.6622173024072617
337.2542272,0.2945114734538175,0.21686858334135725,-0.3297985472195413
337.7542272,-0.10951016192696118,0.01482683346746879,0.09856319147219557
338.2542272,-0.09247770349796468,-0.06305489460122442,-0.04344843730789634
338.7542272,-0.0557920118553108,-0.011679018246232185,-0.0053671990739956885
339.2542272,-0.030108972943779302,-0.005964783212103186,-0.012130357391432336
339.7542272,-0.18592511165780995,0.013362787498575716,-0.040255497232474215
340.2542272,-0.11137075589634005,-0.14987574898939593,0.0043211735451202625
340.7542272,0.07046859520332237,0.08814812707891248,-0.05152733875888586
341.2542272,0.012016421251434387,0.03356789330353402,-0.010583696452562099
341.7542272,-0.024048012007644736,-0.028498371133283244,0.010132374783191084
342.2542272,-0.007767890834024195,-0.0211342650839773,0.0014804534813561462
342.7542272,0.014461822961687933,-0.014764860153084673,-0.0033795701064988953
343.2542272,-0.009721649328688263,-0.01544007386697762,-0.0007889000238482172
343.7542272,-0.012006615965368459,0.0220208672755031,-0.011693581870761471
344.2542272,0.06577652710860318,0.0029104636807380855,0.0063075924188204305
344.7542272,-0.022324500257992253,-0.0944586107847287,0.03389703083853726
345.2542272,0.052038623909790666,-0.01107702095276655,-0.07319646123273002
345.7542272,0.06402343309785763,0.14839029093641995,0.052857801683185955
346.2542272,0.00473703241287007,0.02653699791446537,0.0383507281868758
346.7542272,0.09404533180698699,0.1277814254552106,-0.012091314825283847
347.2542272,-0.13505665775743886,-0.07706651667797047,0.10425211510445498
347.7542272,-0.055894923464087205,-0.012505027614663827,0.06756769098243204
348.2542272,-0.03305212059882225,0.02096319134586554,0.047274739601849664
348.7542272,0.016331719820198976,0.008610751763193002,0.0595612532114677
349.2542272,0.038857022974836924,0.04674299799378416,0.05753380897710664
349.7542272,0.010217565681580928,0.01964973523744447,0.03202853991102003
350.2542272,-0.006264407776907434,0.03285641306041196,0.06270258303995163
350.7542272,-0.012989952209735698,0.062367261053944134,0.04601958294262504
351.2542272,-0.015686536919240723,0.0349849204861976,0.04697303723811115
351.7542272,-0.6000787429964223,0.43841569879480013,0.19654976007886318
352.2542272,0.16607820596205158,0.09289631203436687,0.167861930164194
352.7542272,-0.041408218006225475,-0.11702530213786476,-0.0031500462357723475
353.2542272,-0.007468322081590806,0.02530366747100362,-0.10949928606774485
353.7542272,-0.01766350582671244,-0.052505343478306495,0.001289576690947443
354.2542272,-0.019862270707200563,-0.040976386766806205,-0.0008621524834172604
354.7542272,0.00665238953773142,0.014135072859667374,-0.00673823400270265
355.2542272,-0.0035830051984633658,0.0023295714503590048,-0.003005677424725218
355.7542272,-0.0007879163626427977,-0.01755739029679103,-0.01389760497341798
356.2542272,0.009092441677450807,0.0019147558562667866,0.00908734605127416
356.7542272,-0.014674260575277091,-0.030374242009937446,0.001730137559214795
357.2542272,-0.0053071875684457285,0.005121014668051833,-0.004396431741396176
357.7542272,0.006700245139703083,0.010582207420397232,-0.009265445217152297
358.2542272,0.056622223717015085,-0.013754632653019065,-0.3108773325215022
358.7542272,0.383740416254027,-0.3052683223734748,0.014036405483267168
359.2542272,0.11034762638978712,-0.026724951157915417,-0.009448412209678982
359.7542272,0.008798257076779406,-0.08338515547754004,-0.009990890229768483
360.2542272,-0.03273113419853975,-0.04107197032320873,-0.08652113267821639
360.7542272,0.023339436448818338,0.2304614907445988,0.07571609408322964
361.2542272,0.009423308984350186,-0.026883849522538802,-0.04673767937016812
361.7542272,-0.03124048448734984,-0.07989747990693678,-0.0011284004068513036
362.2542272,-0.02342063026720756,-0.06054696945643163,0.08834623591922634
362.7542272,0.11446016607223351,-0.046117946638846156,-0.04147389390425002
363.2542272,-0.07668685276996251,0.013341429617925855,0.01245754453677331
363.7542272,0.013302698478900732,0.019507537796793283,-0.009479213641792127
364.2542272,-0.021068494353381186,0.0554912289771422,0.008217286905172143
364.7542272,0.03897615230594265,-0.004113389826484289,-0.0021294491785056467
365.2542272,-0.015649383602281467,-0.020770930163284893,-0.005401128977141267
365.7542272,-0.025674275841618906,0.06390134594194208,0.012924261254861165
366.2542272,-0.010523835579271763,-0.012365399027106068,0.004034650985794964
366.7542272,0.02846560097442044,0.004851675528495245,-0.0015176551422641205
367.2542272,-0.012262811768302741,0.007827387000679592,-0.0065542977415136575
367.7542272,-0.030573389522926733,-0.008474724397128007,-0.0016672533644204463
368.2542272,0.03774360933994735,-0.1230086218566271,-0.01948337798169406
368.7542272,0.007826758047903197,0.1651554430421416,0.008011952190435975
369.2542272,-0.02084202491638952,0.046819573733775786,0.02070788065400722
369.7542272,-0.024533096013648076,-0.03131638656718816,-0.015443497472602413
370.2542272,0.045019791218846084,-0.06738713279971807,-0.01196789531252712
370.7542272,0.0064443858917731045,0.00835339252840425,0.00785786920748611
371.2542272,0.007445341090909992,-0.020273311705980405,-0.002133297564386693
371.7542272,-0.017276352377876825,-0.017371779495403503,0.0025829988339862247
372.2542272,-0.0723577371462571,-0.07571182613167343,0.001930298642072174
372.7542272,0.024991051643034137,0.04765597191922262,-0.014138453252049236
373.2542272,0.046496278767406245,0.04829179885049037,-0.002531614854330773
373.7542272,-0.002750046671365175,-0.027259687864707418,-0.004506612466123837
374.2542272,0.007182681012578408,-0.004499171190994655,-0.008039657809676592
374.7542272,-0.05268258777563641,0.17678698283756775,0.031229084062382576
375.2542272,-0.03400479948177194,-0.0224331343138556,0.002914666782453481
375.7542272,0.014868736382894552,-0.04506513666430952,-0.02300983012957139
376.2542272,0.007798330390805496,-0.06559665835498105,-0.0017658383127241357
376.7542272,0.12896931918873017,0.22087141029112306,0.005218360658712375
377.2542272,-0.10161468319706665,-0.3180796095181957,-0.047644760456904425
377.7542272,-0.06043408001609077,0.14226883597670148,0.006239850602838364
378.2542272,-0.06283969099514679,0.01778651001604489,-0.028260293209441078
378.7542272,0.021835182916887675,-0.03601617911237327,-0.005740613897977227
379.2542272,0.019421230121965526,0.07432347539094532,0.027851752516938295
379.7542272,0.008769617146404472,0.0007089735756971102,0.012835807344641252
380.2542272,-0.0068191351475700435,-0.0898954517547879,0.020088322296162708
380.7542272,-0.024921207155087343,-0.027385640249055977,-0.013727931282031623
381.2542272,0.0019767178858650365,0.05303229463228835,-0.02742829409513419
381.7542272,-0.0072924004760597265,-0.04299504288017572,-0.03339549373572079
382.2542272,0.05589377955762627,-0.046686630958837426,-0.0346524992101278
382.7542272,-0.0022515211807104347,-0.003989561884931029,-0.005530792586212482
383.2542272,0.008161954612648743,0.0861878712445703,0.002200034172153349
383.7542272,-0.03939508296160741,-0.05544343512642966,-0.0069671423061546545
384.2542272,-0.005278886156806312,0.10571654249563667,-0.005804057380409955
384.7542272,0.09721610360791834,-0.09352112898945311,-0.01681728795648532
385.2542272,-0.0598645124053338,0.08658009744444843,0.02925487185909887
385.7542272,-0.0018654678164881117,0.06790068742133366,0.0059030458964173275
386.2542272,0.00795420271082502,0.0696806406369272,0.005634784912001779
386.7542272,-0.01892658116393205,-0.36039507228594225,0.015342791342321875
387.2542272,-0.03480234331430326,0.13699536675738241,-0.014769453057977434
387.7542272,0.05598833576086619,-0.024393115453574206,-0.013488322204029733
388.2542272,-0.009062333558330271,0.039649910694417985,-0.03198236469869004
388.7542272,0.00584903453965423,0.08161038718662693,-0.031323589279037264
389.2542272,-0.00748797016716997,-0.0006179091260366809,0.014681986707758214
389.7542272,-0.07459695193619287,-0.05069288354736435,0.0075710497532075335
390.2542272,0.012732076851480836,0.01513604067205677,0.0003539156755125386
390.7542272,0.06857216039407187,0.15940554708545177,0.05025467782087442
391.2542272,-0.06157428773334237,-0.0508581900998206,-0.003446733238440057
391.7542272,0.03129571307931257,-0.013507584527175534,0.0009465884301455093
392.2542272,0.004063445927613057,-0.038816678385707515,-0.005170766285234346
392.7542272,-0.014073467967735176,0.00317287944705112,-0.004720283758880282
393.2542272,-0.0029905760062170594,-0.025319437980197822,0.0012238119357592448
393.7542272,0.017673469418241595,-7.662813481935066e-05,-0.001389816618538662
394.2542272,0.015847365060717867,0.013377284143890434,-0.011377882417884438
394.7542272,0.03411175607315593,-0.14889063688018533,0.0104217332053479
395.2542272,-0.011013517730771298,0.06581782203206521,-0.008324860915607442
395.7542272,-0.009635162727561512,0.06071413604643982,0.002714668466218391
396.2542272,-0.044678798179865406,0.03838731466844491,0.0035631221696262394
396.7542272,-0.016876829930845782,-0.0038823198836590517,-0.0008938662754237256
397.2542272,-0.01356286025770292,-0.014267230850954653,-0.009548540547332961
397.7542272,-0.011346660588645639,-0.01990254052141826,-0.003273985654898531
398.2542272,0.0029544538287461365,0.009216738393051472,-0.00162035732923843
398.7542272,-0.0015633291131206943,0.01144655216380995,-0.005451268771722194
399.2542272,0.0052544717486834305,-0.003924575900809576,-0.008887330221118208
399.7542272,-0.009346807301467525,0.025373062013460696,-0.008147196657376956
400.2542272,-0.004194515624477692,-0.010247564019423222,-0.021623238946549404
400.7542272,-0.009452319862700214,-0.0015240229970740653,-0.018929119366543675
401.2542272,-0.02455157392577345,-0.029772524853774452,-0.015410730913617499
401.7542272,-0.005588901578191331,0.016186723713965102,-0.006831050422223451
402.2542272,-0.0038599325050593996,0.004070110954595838,0.005434920448076269
402.7542272,0.018504704019185456,-0.02847376601002535,0.02791406805450896
403.2542272,-0.04406108608350225,0.0286603806436746,-0.0018485914834439003
403.7542272,-0.002336288466405493,0.016345808439800696,0.006326251410343882
404.2542272,0.0008095568052751045,-0.025540406715457792,0.011184296409955902
404.7542272,-0.012572953939560021,0.04196037052147368,0.001905564776409429
405.2542272,-0.010960548706260646,0.013708940235729238,0.005888106531119076
405.7542272,-0.0065719491663339125,-0.0029764658138408933,0.004462059351557689
406.2542272,0.019704674603285052,-0.041126113527976925,0.018333112383482345
406.7542272,-0.02770892618185785,0.026369369450189358,-0.011922476226240573
407.2542272,-0.006951918425575677,0.0015546275671881298,-0.0055132795119557125
407.7542272,-0.007696407685215295,0.017699776509682602,-0.00015581490006773066
408.2542272,0.0046074463462353245,-0.02947604349365477,-0.0008813611804903875
408.7542272,-0.02321371255312856,0.029874129923249327,-0.003201005209673885
409.2542272,-0.0038015038994368617,-0.004573097978933458,0.0025237562550700088
409.75342720000003,-0.007143879939385676,0.00765632987762377,-0.004982624715398657
410.2542272,0.00019541992492056622,-0.012231228404680515,-0.003969673190444444
410.7542272,-0.0034340939981025815,0.016957757411735698,-0.0045333888119221625
411.2542272,-0.0033989807485475,-0.006651272941502554,-0.0016244019844025262
411.7542272,-0.001668062642505502,-0.0017480036560432316,-0.007168423771435781
412.2542272,-0.0052592050868348365,-0.009185520874185393,-0.0041155306601019315
412.7542272,-0.01554544163804727,9.711275454041551e-05,0.0008345200618277832
413.2542272,-0.017104081996539643,-0.005407178473988057,-0.0095390837290241
413.7542272,-0.01592530157005825,-0.0016021918395192512,-0.007028231849109901
414.2542272,-0.002596557913292741,0.007813973882935704,-0.00272880764182866
414.7542272,-0.0016766668718707243,-0.01563614592083836,-0.0019005169217079735
415.2542272,0.06822334910187214,0.12366465187921641,0.007378481210125244
415.7542272,0.1403908121022344,-0.049667348208139214,0.020621496036486487
416.2542272,-0.0008640765002090306,-0.11866351229175312,0.01172193765030275
416.7542272,-0.04353677481461876,-0.03112369890155339,0.0034324468010558133
417.2542272,-0.19857262201127926,0.08398482743853997,-0.00477268039963403
417.7542272,0.03504596464595461,-0.007347801054522754,-0.000262548161865848
418.2542272,-0.04623601149430275,-0.1102618852499731,0.017665634690071427
418.7542272,-0.09716133361357034,0.13963968297481405,-0.03110258495102636
419.2542272,0.007365390584155169,0.2204242346546438,0.033484446303001604
419.7542272,0.020332475278005496,-0.11991594788865845,-0.018354903883661292
420.2542272,-0.015438287265459505,-0.10586617242681313,0.10555389173794738
420.7542272,-0.12960377160449166,0.1039877516696626,-0.08019952033449913
421.2542272,0.2795733870572722,-0.560820129643577,-0.018901367625093684
421.7542272,0.04691474814794473,0.09810824327429694,-0.06449139984074216
422.2542272,-0.07320957115734912,0.039309986032378015,0.018905431547248802
422.7542272,-0.049688150730116,-0.014303700816828835,0.00460746748957875
423.2542272,0.02660146518025917,-0.08432934237207429,-0.021536918449533256
423.7542272,0.006144633406945751,0.06979270138800434,0.00708520622731883
424.2542272,-0.015574746486755124,0.026354188692507174,-0.025653366045677643
424.7542272,-0.012338479609927639,-0.016147701274988817,-0.00511342422308849
425.2542272,0.04980490001104418,0.04002149186157069,0.0019940713247712594
425.7542272,-0.029594892067640953,0.06304917047076489,-0.006790145931861765
426.2542272,-0.02150453971896717,0.04219195753309485,0.004555947501759441
426.7542272,-0.01519669433299791,0.015068685912800533,-0.006850746495384483
427.2542272,0.07841108638053865,0.12706601390867775,-0.012739774565100594
427.7542272,0.02945060528008174,0.025839599925298648,-0.012768744506753612
428.2542272,-0.06707157613433541,-0.11489553897427221,0.004403977130450017
428.7542272,0.08333111710605812,0.13379634170305632,-0.005922753701739208
429.2542272,-0.03509313110397823,-0.05788976777833191,0.004452611381978215
429.7542272,-0.007761578940030188,-0.01294767221937684,-0.0009371613109106193
430.2542272,0.0015734771145020912,0.002368955574759978,-0.0005519202418630128
430.7542272,0.0010298189290798279,0.0021954978461633566,-0.000651748038349383
431.2542272,0.002873141481583677,0.005608320984816162,-0.0009483682760400258
431.7542272,0.002177743413356725,0.001978243349139628,-0.0002743651339585857
432.2542272,0.00018138400981193797,-0.00044948600063851504,-0.00036236975170705383
432.7542272,0.0018898432955520425,0.0014561277052584196,-0.0010296909093583154
433.2542272,0.0039650779409580676,0.0031544641309310924,-0.0020747137759611293
433.7542272,0.001819798713309186,0.005612275717482126,-0.00061244754831086
434.2542272,0.003702566876999822,0.004602481745950613,-0.0005810043334553523
434.7542272,0.0042628707270968005,0.012004025644781025,0.0034062343844968096
435.2542272,-0.0019556303810284847,0.00538612440855552,0.002441107840819372
435.7542272,-0.00521017015073675,-0.013927012648246428,-0.0035838823352312083
436.2542272,-0.003989282192047084,-0.00887820433855357,-0.0033714625897339123
436.7542272,0.007902044612544177,-0.020799417385273418,-0.0014343886856827037
437.2542272,1.265249642892985e-05,0.014178590057101955,-0.0004710297712160902
437.7542272,0.0014937900213446492,0.006340208120725356,-0.0006315631842729137
438.2542272,0.007565433089199992,0.004691010163704256,0.0007526495281438976
438.7542272,-0.00431484876801528,0.0010074261366210843,-0.00046971254946304576
439.2542272,0.0019515606603091806,0.003352156228719199,-0.0008850154939821734
439.7542272,0.0009611627197407007,-0.0031348915739047157,-0.0014803727111566342
440.2542272,-0.0028923697346719722,0.00016834531368851435,-0.00204454028351752
440.7542272,-0.0010184874058557544,-0.001162128490412589,-0.00034921870839122924
441.2542272,0.023672757649810076,0.004782838305745205,0.0035700511526922728
441.7542272,-0.005260247497503993,-0.007024256671394856,4.0881856826525695e-05
442.2542272,-0.014580873647995301,-0.016668710964129488,-0.0012945852738411425
442.7542272,-0.016027705049609063,-0.016149605749467996,0.0009008370962591019
443.2542272,-0.0009705350053757655,-0.0012261094984806979,0.0006564732292141569
443.7542272,0.0021694896951888433,0.00398737610210245,-0.00015290092017494316
444.2542272,0.0024055054818017947,0.003228145750941153,-1.3765704551231021e-05
444.7542272,0.0019743837121607363,0.0025158066535540045,2.6470993028032166e-06
445.2542272,0.0030905875967047946,0.0026587876398732717,-0.00043123105107117715
445.7542272,-0.004103972799267331,-0.0028950514377929864,0.00011700285015301612
446.2542272,-0.02634291052799899,-0.03830966479547513,0.0005233674783684221
446.7542272,0.009222600872998562,0.019371529982458415,0.006004532359996467
447.2542272,-0.009085112507345198,-0.007324120673496113,0.0047042814724403345
447.7542272,0.010765562537890709,0.008971650639850825,0.0019218217235849855
448.2542272,-0.006781117023137558,-0.004803900915806578,-0.00106173720985243
448.7542272,0.005565513949150095,0.004083673903285155,0.0015487408522870288
449.2542272,0.010664078737455718,0.015221105323054875,0.0018453959177562298
449.7542272,0.0024145942389680623,0.002656138850348393,-0.002418275769806222
450.2542272,-0.007657671694664315,-0.006557662039044176,-0.00217115254981916
450.7542272,-0.005618516823403436,-0.004473011742058342,0.002170055819480536
451.2542272,-0.026838483270034182,-0.037677131231584934,0.003310278797796161
451.7542272,-0.011084127368178421,-0.01573143788392273,-0.002220453776402038
452.2542272,-0.018447548214385167,-0.03396049026955205,-0.003224138413746266
452.7542272,-0.0060892998552757515,0.0066122068620764005,-0.00010199115735197942
453.2542272,-0.007426066675070571,-0.016411737503704168,-0.0004408387783836294
453.7542272,0.008514169585087123,0.014178367329163073,0.0024552416644404674
454.2542272,7.040439254825517e-05,-0.0022190378674518565,0.0002043560860112022
454.7542272,0.0038371893798874856,0.0036008381197677134,-0.0023028852295392415
455.2542272,0.0005535859522020673,0.002368262625370986,-0.018689754897573723
455.7542272,-0.011161573369441185,0.012802213942367038,-0.009193918426619083
456.2542272,-0.059300215936036425,-0.11698979674883293,-0.040344444965234816
456.7542272,-0.016137282316646354,-0.01630363643178635,-0.032519744328090947
457.2542272,-0.009797992887994773,-0.014008074061438556,-0.039964482346139266
457.7542272,0.03029065060824505,0.0555391053468502,-0.03443264805718917
458.2542272,-0.0032950430369198774,-0.03276705685372328,-0.031594629632304264
458.7542272,-0.0038723677658229045,-0.01188843996987174,-0.0024748120167701767
459.2542272,-0.0026333819317271774,0.004262542060672119,-0.01053264824318316
459.7542272,-0.006072413835065336,-0.013100098606585089,-0.0006159289969840244
460.2542272,-0.0257089753486658,-0.02614310217362268,0.014612931536128495
460.7542272,0.010429414352614783,0.049434314397578075,0.011928509766995075
461.2542272,-0.0032789553054554665,-0.004466996035765503,0.005978236289847184
461.7542272,-0.015479130421285982,-0.0081463969136449,0.0036651609143846338
462.2542272,-0.00145573822109532,0.0192253135297329,0.04609518111765562
462.7542272,-0.006951904826026035,0.024141220189522715,0.03818976549278295
463.2542272,0.017612390770666717,0.04602972596279471,0.03480682501334067
463.7542272,-0.009157927504092616,0.003274042319826193,0.04301695496678848
464.2542272,0.0008685229258224436,0.009966054674065132,0.04981391151447647
464.7542272,-0.0054462700377152125,0.015775938760972507,0.02451874314606418
465.2542272,-0.02284555744970478,-0.03254388308210582,-0.004513952585240015
465.7542272,-0.001551311881520175,0.00020857555245306595,0.002256175450710262
466.2542272,0.005767959492410569,0.004132848100695524,0.010977340785104383
466.7542272,-0.0022749244876495538,-0.009875001652580335,-0.000672779040687188
467.2542272,0.009219298218764662,0.020307490238908096,-0.0028254643831308614
467.7542272,0.0026857584560443797,-0.002274659500096025,-0.007318229787223437
468.2542272,-0.029204273135165465,-0.043847060962242404,0.0009791146102829202
468.7542272,0.3251154281192135,0.15498565311548373,-0.010676143743111577
469.2542272,0.010921478585081901,-0.06265492366775727,0.0459675824452324
469.7542272,0.0025490880308336864,-0.007425097507432572,-0.019758215814669106
470.2542272,-0.031581395976370115,0.008797138666825258,-0.007677975238864429
470.7542272,-0.00017356260898584406,0.007743472011932224,-0.015610367531164394
471.2542272,-0.01300645967445236,-0.01587326448814467,-0.010167775568817004
471.7542272,0.09772385702218638,0.14854664979057236,-0.0018462435529313875
472.2542272,-0.07329516262049537,-0.13680087277723202,-0.0118747442887028
472.7542272,-0.02384152019743621,-0.00724068463441009,-0.012974146163887555
473.2542272,-0.05621098758866008,-0.040180751029171,0.03388885565880866
473.7542272,0.17431478849656007,0.1353599214922772,-0.019002820665663927
474.2542272,0.03154222574161192,-0.07625300552161794,-0.012571757163579111
474.7542272,-0.044313267511662396,-0.05505508578474988,0.0057273434601272785
475.2542272,0.019154817604218378,0.042048843055295305,0.008659009627683878
475.7542272,-0.016546745451600488,-0.005201209484127017,0.027412584117597803
476.2542272,-0.01982846181430015,0.02586225620278582,0.01977772051079799
476.7542272,0.012283519145903532,-0.0070439715584166,0.036563355080266716
477.2542272,-0.032865816868192746,0.060442641312607674,0.02536520346060078
477.7542272,0.013286974641661066,0.022050642794375745,0.024406383412376772
478.2542272,-0.03298688415407828,-0.012509695308313614,-0.007947164494000868
478.7542272,-0.15896881148043737,-0.09244787247015206,-0.0024016230144986105
479.2542272,0.09088726363852816,0.09645011944208212,-0.011500668598119414
479.7542272,0.04586282409826285,0.14763826038154929,0.007207159208753359
480.2542272,0.02864838467123395,-0.1346752283963626,-0.04658343740432411
480.7542272,-0.0011544978828393726,-0.0828576124406071,-0.03943373805021115
481.2542272,-0.004789210130497491,-0.02497433177500226,0.017376272693921124
481.7542272,0.006209033556747892,-0.008059368062861444,0.0015323411949664826
482.2542272,-0.024144754630508802,-0.02870295160659468,0.005414007964310151
482.7542272,0.05131330762345034,0.027115205156766558,-0.012383209939087097
483.2542272,0.01020989471179844,0.01827923902202248,-0.005032749909268297
483.7542272,-0.004099177602928658,0.006245917257492181,-0.0028354019569968012
484.2542272,-0.0010668130039843075,0.05053466505614686,-0.004056858082720697
484.7542272,-0.001602970574152025,-0.07238821727923232,-0.015359467105937517
485.2542272,-0.014963271875967719,0.07280064568969365,0.013659059292454551
485.7542272,0.018448655798019745,-0.004439665164242913,0.010259577170235566
486.2542272,-0.01839022394296953,0.035319104961173374,0.01203946007792956
486.7542272,0.012738323315690801,-0.0277102788529434,-0.0010187128655531057
487.2542272,-0.01891757211548669,-0.0423525906973987,-0.007951219621128247
487.7542272,0.0148854494368108,-0.08133554918088343,-0.013697064513781191
488.2542272,0.04050326021983036,0.24757231002017055,0.05148065277000309
488.7542272,-0.056039379476628653,-0.20831305581793702,-0.037159963233611454
489.2542272,-0.02130255517227262,0.01894219377491966,0.006466435542639812
489.7542272,0.0955665851984198,0.060863166195271684,-0.06021377721941478
490.2542272,0.001432925295447075,-0.048144165426801215,0.025170847413233503
490.7542272,-0.030812305896995594,-0.015258534939036146,-0.009231837811590047
491.2542272,-0.0746393683544352,-0.18725097752383174,0.024160039440431408
491.7542272,-0.036244378570785045,0.18833537929745078,-0.0055689497942223234
492.2542272,0.03888245227326309,0.06949546687804191,0.044415683234525896
492.7542272,-0.04087391585587439,0.0340246121895409,-0.014807042045441967
493.2542272,-0.018315619403946538,-0.0584491862856117,0.005302484875748652
493.7542272,-0.012280937675082966,0.008083472123475773,-0.012944873129363902
494.2542272,0.010845075173922065,-0.031202105710905422,0.006007507717918508
494.7542272,0.004006919029372112,0.08027431219856722,-0.004860153343399293
495.2542272,0.03460993095986109,0.07840296368132543,-0.011679839410976308
495.7542272,0.18020750016036216,0.12807352541071987,-0.16093428492395564
496.2542272,0.09328453165841301,0.1500715889164731,-0.09883458744950163
496.7542272,-0.17575741011550128,-0.3771304881202137,0.0034514699053993987
497.2542272,0.002908140136459787,0.03631342380782437,0.1092258322357439
497.7542272,-0.09872261640675596,-0.0722684291759204,0.14928367283101499
498.2542272,0.005309376570531341,0.016559109845988157,-0.00899699768313739
498.7542272,-0.03636661143474596,4.830387257768493e-05,-0.030985913002957187
499.2542272,0.016349655754000273,0.007450957774852221,-0.006926013438901437
499.7542272,-0.019125849407484553,-0.012271988335667346,-0.015177709460008935
500.2542272,-0.019755974782003707,-0.013446816400108332,0.0017428545314781593
500.7542272,0.1028180980289316,0.09119542342874012,-0.022857644047976775
501.2542272,0.016634561346469484,0.027415879530840948,-0.029970143203124428
501.7542272,-0.04057849614242639,-0.025968774752564986,0.0028332064729205977
502.2542272,-0.032164649736620234,-0.01803892031640294,-0.0006289237795665553
502.7542272,0.0036522057654406453,-0.0183367940691547,0.010635013781199264
503.2542272,-0.00029831955703034266,-0.021847351796730446,0.0005801927177175828
503.7542272,-0.41624386994457013,-0.16904630981902474,0.1794911303277996
504.2542272,0.10152887563956962,-0.0709068723229877,0.08260531791102206
504.7542272,0.44002780572038497,0.208099668375215,-0.08136812624179507
505.2542272,-0.07305737078033364,0.07417999237618608,-0.24302099025675272
505.7542272,-0.011842227815459965,-0.05100518000926353,-0.14896232223268827
506.2542272,0.046115049760267916,-0.0414929064423597,-0.16154428647520805
506.7542272,0.046440913088787894,-0.06277953406268359,-0.1015188712422199
507.2542272,0.0444368983591265,0.25106352672394616,-0.06873380090634033
507.7542272,0.04110218902334749,-0.04892600169464083,0.21512878271135466
508.2542272,0.02862937275382579,-0.27021524635696376,-0.04917988381329749
508.7542272,-0.024836474902085535,-0.060096962507008016,0.13034117144883087
509.2542272,-0.019219386259834027,0.07207305044027243,-0.023373889349039972
509.7542272,0.004177438286660306,-0.020414442938642405,0.023309636558028826
510.2542272,-0.030769972280960872,0.031973441727977774,-0.009965045563180609
510.7542272,0.022096449129932975,-0.02264302973222717,0.02024300967216543
511.2542272,-0.19912481963043593,0.14977438773817636,0.19310479816593587
511.7542272,0.16125022719938506,0.3261098126960586,0.03300290517947369
512.2542272000001,0.13062309249305382,-0.678326876930644,-0.33704939272323
512.7542272000001,-0.11678364765755977,0.1472483027901481,0.1516416560212202
513.2542272000001,0.0038975353378177084,-0.07053336350630074,-0.06954538053627302
513.7542272000001,0.016151024947475147,0.01578850722804312,0.0019324100594506897
514.2542272000001,0.0018851219155615107,0.029386369274318182,0.0510794049926917
514.7542272000001,-0.029092108123693804,0.5464566562651708,0.22189351922909517
515.2542272000001,-0.012379727015902673,-0.07547113766508995,-0.006827696234336643
515.7542272000001,-0.01171160237474925,-0.02921696892915613,-0.05180969675434162
516.2542272000001,-0.007350260044106185,-0.009337077925173125,-0.001626816923442388
516.7542272000001,-0.020076105085573073,-0.01772236991371519,-0.005409388336029656
517.2542272000001,0.009580449436810589,-0.008966343972193532,0.005020988037543316
517.7542272000001,-0.004533102110679289,6.9102858050658354e-06,0.00022252888284952338
518.2542272000001,0.007923023727352745,-0.0021596387555721823,0.005750636130285207
518.7542272000001,-0.0029138802607073626,0.0071001297296419495,-0.010916086219318872
519.2542272000001,-0.011786465274602363,-0.005759856048678705,0.007080019204373054
519.7542272000001,-0.016212257532854008,-0.017415930805734992,0.0043495720250117395
520.2542272000001,-0.0024687765929523515,0.010781585085322782,-0.00490976593675726
520.7542272000001,0.01571546397733072,0.008555400863992096,-0.015856403759672965
521.2542272000001,0.00039016860439889,-0.015155929748742707,0.01083094110037133
521.7542272000001,0.03664053589470708,-0.009209999021563792,0.012516117122416301
522.2542272000001,-0.007753901017904289,0.002906434312118944,0.011815276689171652
522.7542272000001,0.02229599839700433,-0.014503295167253816,0.010386187735770033
523.2542272000001,-0.012879119054704603,0.018060348361592267,-0.007945553578961113
523.7542272000001,0.012442011523661358,-0.057986991756865704,0.020068562040052668
524.2542272000001,0.015500918915648693,-0.04166637033510321,-0.08329250961077628
524.7542272000001,0.04813550625334645,-0.048235428248849015,-0.062411083986855624
525.2542272000001,0.026969589659129344,-0.04338579056058381,-0.09027077086649986
525.7542272000001,0.025657342118721334,-0.09005233775701456,-0.10959734307042991
526.2542272000001,0.01689561267622509,-0.05525841314890008,-0.15530580672404676
526.7542272000001,0.05122353222350297,-0.13899681848550152,-0.18936116787340368
527.2542272000001,0.020114304685408802,0.025378689483372536,-0.2909081100640771
527.7542272000001,0.0676030292676873,-0.14494183312029243,-0.14772258682209446
528.2542272000001,0.05905242128659715,-0.1253701129804513,-0.18711177303566118
528.7542272000001,0.018406979998573735,-0.185199472756834,-0.2095280338888481
529.2542272000001,0.03349060505490101,-0.15136624889084938,-0.2442122492272939
529.7542272000001,0.0509956148191887,-0.1198480500515264,-0.24968818753296115
530.2542272000001,0.018568640662358346,-0.14114822596434762,-0.22649178073398993
530.7542272000001,0.12308594774011622,0.10580566627306977,-0.18999333640066518
531.2542272000001,0.017442348526946178,-0.12997057236801732,-0.06750339799659542
531.7542272000001,0.007341598542449907,0.0036674095955207,-0.10892276210724944
532.2542272000001,0.013743706063799394,0.02110480702082125,-0.05416937104749651
532.7542272000001,0.026420709849880604,0.029267732918101,0.006249397471640299
533.2542272000001,-0.05819101454963941,-0.13174012322925574,-0.03427380645088998
533.7542272000001,-0.02701453944296661,-0.014144082467353021,0.0047188770468591205
534.2542272000001,0.008046193790993387,-0.02051923780245076,0.018623413651158098
534.7542272000001,-0.02018904582969587,-0.01269499574241602,0.03312432783375118
535.2542272000001,0.013237011491185327,-0.011666616750176315,0.008635736741386997
535.7542272000001,0.008379236318144734,-0.002319656056286219,-0.0011161549296907019
536.2542272000001,-0.029743053255452314,0.016513422211144872,-0.02621705778604453
536.7542272000001,0.008393372575610855,0.006111302597550588,-0.01613980720811496
537.2542272000001,0.016978870062505192,-0.003250975344077688,0.005277779355635951
537.7542272000001,0.007184070158280487,0.011679862077660174,-0.005336430547766959
538.2542272000001,-0.04829768551828591,-0.07069240396410223,-0.05488637845865865
538.7542272000001,0.023608297610135488,-0.3967781792583375,-0.16669242956317235
539.2542272000001,0.013894150532776893,0.23741860747614624,0.08665209992744288
539.7542272000001,0.23347289985660397,-0.14063183945957658,0.22281142175108823
540.2542272000001,-0.11816245971499693,0.01784270940891192,0.03309482876382604
540.7542272000001,0.08742438571759242,-0.0011512294625648934,-0.00411257180747148
541.2542272000001,0.04518283356869508,0.012930913074353362,-0.009824785392720938
541.7542272000001,-0.03465626036591291,-0.01939679309702072,-0.00571487921277988
542.2542272000001,0.0005819894020103817,0.017507114837713583,0.008110392265128993
542.7542272000001,0.033022854280173826,-0.0718617625113501,-0.03503338487372921
543.2542272000001,0.04614096428335683,0.1927963555341963,-0.01924444254736955
543.7542272000001,-0.12305254607664082,-0.1145123715713376,0.012570868294812767
544.2542272000001,-0.02742716536665316,0.012261748419097275,0.0031701930642493237
544.7542272000001,0.00204791861061074,-0.005870758906176373,0.008681723314655682
545.2542272000001,0.0013604328681961933,0.009813629434415203,-0.006502368782796113
545.7542272000001,-0.016572795769830666,0.01290871561319171,0.0035249819939945975
546.2542272000001,-0.0001646055164020968,0.005138587644919959,0.005639066108840311
546.7542272000001,0.005426821362325189,-0.08108524899966373,0.004267396307016656
547.2542272000001,-0.0034150522220090505,-0.013303729587159797,0.11853156243252727
547.7542272000001,-0.16770688028639896,-0.03853580299366332,-0.04056217040843132
548.2542272000001,0.13771738442652823,0.03270407416472607,-0.04079743400503291
548.7542272000001,-0.06186058792476125,-0.004648040159749741,-0.004117570967464038
549.2542272000001,-0.009940732686846126,0.010821509974711336,0.007475057892244658
549.7542272000001,-0.011247557418869632,0.004736614024984817,0.002203238184816543
550.2542272000001,-0.003698410082064128,-0.0010389851647758302,-0.0005696932089492258
550.7542272000001,-0.003949938192888617,-0.001490207603055792,-1.3612861056595428e-05
551.2542272000001,-0.004630168711425162,-0.001958028710311068,-0.0011811921456603184
551.7542272000001,-0.0036977417856114744,-0.0029498267571436477,-0.0007374752201104387
552.2542272000001,-0.008785188827202554,0.00017580703440971698,-0.00013437370402408292
552.7542272000001,-0.005785189707355301,-0.005465999278274294,-0.000546380368749243
553.2542272000001,-0.010329164734301392,-0.0070212559106167605,-0.0009468694025344523
553.7542272000001,-0.001727444459486091,-0.002045485372911634,-0.0012478985149750278
554.2542272000001,0.02522431734144342,0.05412159072091385,-0.011377982527055842
554.7542272000001,0.05956031939878228,0.01718141201360802,-0.021015190565863116
555.2542272000001,0.006271513012692496,0.011013805350037155,-0.0221235690337235
555.7542272000001,0.2509741892381791,-0.3693437081780287,-0.2531011701926811
556.2542272000001,-0.22669121355304886,0.006707186832378797,0.021751594902398357
556.7542272000001,-0.02983044957180996,-0.012791627373987775,0.023249165056503807
557.2542272000001,0.34865870081173483,0.4488913554610284,0.0024005757521293448
557.7542272000001,-0.010900854895581484,0.12805415488157304,-0.022078593739895604
558.2542272000001,0.02054363591285908,0.04589131025254093,-0.005536426543125274
558.7542272000001,-0.056473781404158443,-0.03203804648347244,-0.0029269338059352396
559.2542272000001,-0.05555877902461157,-0.056906225655985104,0.005077153925628711
559.7542272000001,-0.053024430390592486,-0.24544576202586474,-0.0191086481066595
560.2542272000001,0.06019426742850244,0.27775245942080656,-0.006658023206831851
560.7542272000001,-0.09353770616581997,-0.08582162009922246,0.002549611090231254
561.2542272000001,-0.11996502276901796,-0.08793185951826953,0.1360314493145469
561.7542272000001,0.05606971247062109,0.0829833193599984,0.011767847028115364
562.2542272000001,0.6402014426621867,0.2400290701255499,-0.1946680807099017
562.7542272000001,-0.2511304710633491,-0.1769971276163272,0.0752886106117474
563.2542272000001,-0.22700624920790866,-0.07049825220679391,0.24830840036852733
563.7542272000001,-0.09487947580555436,-0.08152965615941453,-0.049177697691539866
564.2542272000001,-0.0028467784640389977,0.07395347689264782,-0.030107481000183248
564.7542272000001,-0.0020435253274754313,0.004727764598007947,-0.009662971025947547
565.2542272000001,-0.0945219056981817,-0.029705899082310264,0.08455839047347709
565.7542272000001,0.01762636080456691,-0.005485279262725281,-0.0028945929384148607
566.2542272000001,-0.006836990309426264,0.016880298079303243,0.029738504760470068
566.7542272000001,-0.007647903041045429,0.05781258155593893,0.042410956662245834
567.2542272000001,-0.013916198229326295,0.043139664381190705,0.07605411750739521
567.7542272000001,-0.014395613429782293,0.050816197982691526,0.08117775010438125
568.2542272000001,-0.03668070062714197,-0.010379971565754466,0.07921744396515203
568.7542272000001,0.005379508166771527,0.1406416601659505,0.16809994862090194
569.2542272000001,-0.008213752254069704,-0.16925704238300351,0.11559080774173584
569.7542272000001,-0.1879562351554121,-0.11058265952308281,0.16262417526268463
570.2542272000001,-0.003128014021545054,0.47298790278541036,0.2594981441831636
570.7542272000001,0.0165219493096134,0.04152166628694137,0.1741463013024178
571.2542272000001,0.0038019884700273908,0.08885490137041309,0.11565245081042551
571.7542272000001,-0.015875254925901888,0.08619910900213724,0.15727757534610326
572.2542272000001,0.008367341798463369,0.05546089082191687,0.1547516341884531
572.7542272000001,0.04293053484212872,0.2183548050977335,0.15024923511654006
573.2542272000001,-0.022885984225527376,0.11967313513133425,0.06129618235317663
573.7542272000001,-0.0692223470005708,-0.008836838270476053,0.13855347247459174
574.2542272000001,0.0349393752034319,0.09125832161601392,0.09246328046275709
574.7542272000001,0.004583963981065399,0.08106177578912498,0.0969190927220892
575.2542272000001,-0.20308081097778863,-0.15310457402157604,0.028014243144827703
575.7542272000001,0.6202584745815042,0.4946389367312861,0.08825001447953375
576.2542272000001,-0.1858285085587839,0.01435428101615345,0.05058738933851098
576.7542272000001,-0.37760435824250294,-0.396715984365619,0.05483493815484361
577.2542272000001,0.09501196412885618,-0.06059233121859332,0.07243643953179552
577.7542272000001,-0.032180484583559085,0.11776102142212051,0.07433638470585122
578.2542272000001,-0.03246138796508067,0.03369148545264128,0.08398850438163881
578.7542272000001,-0.04753664511888119,-0.014150963117102358,0.047807146263284285
579.2542272000001,0.03810323933747135,-0.04450987232288299,0.008710301227611019
579.7542272000001,0.07391758843644788,0.1276386001939504,0.0182196788780099
580.2542272000001,-0.005897718131633787,-0.023911447246669968,-0.0023589536789522052
580.7542272000001,0.02616282611505502,-0.014941303807333899,0.0036269656483125167
581.2542272000001,-0.01756434894362517,-0.160467637758153,-0.008061452543119312
581.7542272000001,-0.028991563820664094,0.1375686086495698,0.0023741220263358404
582.2542272000001,-0.014580573452511139,0.04016349846207617,0.004973965964129572
582.7542272000001,0.11215838519877615,0.12719392022271742,-0.0810336396696641
583.2542272000001,-0.015329312354759624,-0.1311905436399196,0.08826455864498912
583.7542272000001,-0.03987645808674317,0.15046831462417548,-0.07137148560289112
584.2542272000001,-0.03230840736587335,-0.050189187224565786,0.01514044899001218
584.7542272000001,0.009957556028835373,0.02216603356271783,0.04611374791063233
585.2542272000001,-0.016017784912487756,0.0387731364455478,0.1003614163603355
585.7542272000001,-0.029543012777093768,0.04354924667828669,0.13646540194226378
586.2542272000001,-0.014041098711659506,0.06556601091857615,0.14420756970017407
586.7542272000001,-0.04508183348737294,0.054554431761092564,0.16584703671710282
587.2542272000001,-0.006427427911815508,0.08318554979155122,0.1417018359274729
587.7542272000001,-0.014861454045131785,0.07671857997495207,0.14542139563168188
588.2542272000001,-0.018062184135277482,0.055027486215120984,0.11783111227393976
588.7542272000001,-0.013305629779188779,0.04215310508169808,0.0743061436348411
589.2542272000001,0.05551812417002974,0.0656565668264267,0.25353209738487636
589.7542272000001,-0.08673350421674707,-0.01710330023998886,-0.11076348611362792
590.2542272000001,0.11889077504241637,-0.047935735975842636,0.035710572851345025
590.7542272000001,-0.017332625047724582,-0.025807356444134323,-0.04455450230024706
591.2542272000001,0.011141920838689146,-0.0118325727654985,0.011208756955610135
591.7542272000001,-0.019776116786872678,0.0132257517205667,-0.007964142879280245
592.2542272000001,0.19897145583599304,0.08318839994481124,-0.02251066534601268
592.7542272000001,-0.06827262607530629,-0.1218714561105882,-0.017311244299470837
593.2542272000001,-0.09543150949432622,-0.05592251277135332,-0.08781764148711695
593.7542272000001,-0.03578230830026799,-0.03455322444975642,-0.09089743778668166
594.2542272000001,-0.0012021214092328204,-0.10181643725705741,-0.17017718450341993
594.7542272000001,-0.02756515590573185,-0.11579685772867614,-0.14443594292191062
595.2542272000001,0.15807168514906134,-0.08591573126291298,-0.2156545334352771
595.7542272000001,0.01880861812874756,-0.1182926915892239,-0.1319874721876886
596.2542272000001,-0.012595695525756375,-0.037473731096161186,-0.1121613738656089
596.7542272000001,-0.009928159435854615,-0.03998841330556554,-0.039110444410897706
597.2542272000001,0.0321746704209433,-0.013341026036875613,-0.030021525010712185
597.7542272000001,0.02254544197808307,-0.13880702817550472,0.004061912178459408
598.2542272000001,0.019310408847117176,0.23034807438413768,0.002845799164141332
598.7542272000001,-0.0058353881398270505,-0.09556663905040874,-0.01224276169917984
599.2542272000001,-0.05880009776639977,-0.05798522810955678,0.020508608244278408
599.7542272000001,0.00984917777642333,-0.0037201617037316797,-0.016126918488083737
600.2542272000001,-0.013974003390576202,-0.005461634397969219,-0.0014455250055244084
600.7542272000001,-0.004404621368288468,-0.020690654536177678,0.003534398450907111
601.2542272000001,-0.0034228317261833607,0.023498778314047626,-0.004379024869130838
601.7542272000001,0.07585315542139749,0.10577455580875156,0.005068414340307921
602.2542272000001,-0.020356664404045488,-0.06617124689159846,-0.011367790403505112
602.7542272000001,0.052757171883436337,-0.01883363008287759,0.012018373322286105
603.2542272000001,-0.04493766310591446,0.05543499561810168,-0.019605767544639777
603.7542272000001,-0.004723180025039915,-0.06103411042515455,0.008045085241550967
604.2542272000001,-0.024116725196973922,-0.04151858405867029,-0.0008705528087493385
604.7542272000001,-0.02402164716518621,-0.013584865531874957,0.0013649123295352947
605.2542272000001,0.08629579032887326,0.017248598832227065,0.007710312849186344
605.7542272000001,0.013780987123775852,-0.0012146639069676674,-0.005682490167592227
606.2542272000001,-0.04742905323693496,-0.04147551927358973,-0.0033946374693603143
606.7542272000001,0.023217808309550753,-0.02534140569232879,0.0043007195330756745
607.2542272000001,-0.01516915872711854,0.004974877238360456,-0.011174664825282872
607.7542272000001,-0.00898301983399061,0.0939014870322878,-0.0009712760713481512
608.2542272000001,-0.0008191770352844699,-0.01469913186179421,-0.0011614881952925731
608.7542272000001,0.004700610130132909,0.028840108301560762,0.011702406448882598
609.2542272000001,0.017378707038982345,0.18980528310101974,0.007322979679319377
609.7542272000001,0.08244650707635005,0.04284212007264197,-0.033574509762787266
610.2542272000001,-0.16843194878288856,-0.19854356946027252,0.0926061256491444
610.7542272000001,0.015896342591896876,-0.082733067943866,-0.01329087425426442
611.2542272000001,0.13647194081457756,0.2530541097591761,-0.05229560717261718
611.7542272000001,-0.12507552261918728,-0.09641511100802641,0.022211796069776274
612.2542272000001,0.032767632902466336,-0.014814912743019753,-0.001136475133423673
612.7542272000001,0.012813603949548467,-0.0189553102115305,0.003360414347557384
613.2542272000001,-0.017192019328561084,-0.00944184135167017,0.006028479819178957
613.7542272000001,0.026604098846272305,0.05217989843106034,-0.007831456170836028
614.2542272000001,-0.032214516186895956,-0.009374193096505203,-0.006495288646088595
614.7542272000001,0.25599183038352213,0.312775787654601,-0.07485473851772792
615.2542272000001,-0.1041163092765204,-0.12166788850490456,0.016335676797049715
615.7542272000001,-0.10928998341194003,-0.0920830219412022,0.02935970576050327
616.2542272000001,0.034125613031070805,0.047444082682980504,-0.0075301130889053195
616.7542272000001,-0.014015588669255534,0.0002761330637445264,-0.0017821332984863725
617.2542272000001,-0.0857077886817354,-0.10401845064161433,0.053554748479581187
617.7542272000001,0.01965757786540343,-0.0040159058536603145,0.004009911350021133
618.2542272000001,0.027952918694842923,0.012382955424242418,-0.02519670940023901
618.7542272000001,-0.038432839898706044,-0.043075442994364076,0.06010493040763848
619.2542272000001,-0.004416969009513696,-0.15944714501947194,-0.11304454496700529
619.7542272000001,0.1028093866183434,-0.17244125711383432,0.006016368170897891
620.2542272000001,-0.029318434081480094,0.053289937069428285,0.013791196419270091
620.7542272000001,-0.004418518006928936,0.048680635885131246,-0.006540143992105962
621.2542272000001,0.04669387112929502,0.09034492970927528,-0.027895852474073696
621.7542272000001,-0.016791460346511015,0.01847135663973803,-0.014789634926555755
622.2542272000001,-0.025606530418771672,0.0033553943165670623,0.004277048923018515
622.7542272000001,0.11100837925688646,-0.05816924594591646,0.037474364042405256
623.2542272000001,-0.09352663442969197,-0.0026494775271878363,0.005274052640322078
623.7542272000001,0.08897659833536026,0.05636137612669558,-0.0321849525269952
624.2542272000001,0.02431779287422731,0.00752145509547921,0.0013325624856211765
624.7542272000001,0.11267286949893085,-0.2734475298840851,0.05440011376246378
625.2542272000001,-0.16894258451879504,0.19713973433541213,-0.00785412837033863
625.7542272000001,0.0004939778348420648,0.00657037083813598,0.0007259288819802587
626.2542272000001,-0.07293162327097426,-0.11527948500551119,0.0008234661481089481
626.7542272000001,-0.019725886027535614,0.13143692427941545,-0.011097975565790105
627.2542272000001,0.001766656367906566,0.03964162306774701,-0.01607568829197629
627.7542272000001,-0.03342897587553876,-0.019997734240779323,-0.0074387546198579875
628.2542272000001,0.0026086913911116533,-0.0008169174764847734,-0.029635448039173555
628.7542272000001,-0.009165959695662028,-0.002095018053712439,-0.01666153318979231
629.2542272000001,0.02481186425422371,0.00643226657321631,-0.0007570964671388741
629.7542272000001,-0.028239388971285178,-0.0005468226134490911,-0.015667821470716835
630.2542272000001,-0.010093322887622996,-0.003424373993154607,-0.003285050243774131
630.7542272000001,-0.0017379426611695609,0.001337716684007645,0.0036531792587427953
631.2542272000001,-0.02529501291172076,-0.015499059941655432,-0.0045905227318900794
631.7542272000001,0.038578895768225874,0.02757892528124354,0.004333564048808311
632.2542272000001,-0.019063119683657592,0.00021330643299995872,-0.014091443589384267
632.7542272000001,0.10749405677241777,0.05664118050975134,-0.030494391560947135
633.2542272000001,0.13968709198542734,0.1332639960776784,-0.09095665417707086
633.7542272000001,-0.0806834381830909,-0.11092083265805544,-0.0030710855228811983
634.2542272000001,-0.07517225443313155,-0.025821050230051847,0.013146651283854094
634.7542272000001,-0.014895170759064885,-0.028319243506314432,-0.0012952573686900242
635.2542272000001,-0.008938302943377718,-0.00440790854134791,-0.0052892894907544605
635.7542272000001,-0.0076475952216813825,-0.0007140753553670432,-0.009516738359562292
636.2542272000001,-0.010477920105578974,-0.004510548425848453,-0.0021199633246446873
636.7542272000001,-0.02305266349734019,-0.07464106020952042,-0.045719992937713935
637.2542272000001,0.27967339347047326,-0.40027753715313663,-0.06429712408378117
637.7542272000001,-0.33412967990551956,0.21053302976351984,0.15375418745188452
638.2542272000001,-0.08077819052803853,0.3351919093737025,-0.054160683314655636
638.7542272000001,0.032403864759789375,-0.05677074728528839,0.006523683836381426
639.2542272000001,-0.12686354744990322,-0.09196525078467353,0.08620836019392286
639.7542272000001,0.23818331813272597,0.13450780660473943,-0.05866685986161448
640.2542272000001,0.03505662937471617,0.07463421313854723,-0.004683836236903247
640.7542272000001,-0.2568379162589432,-0.19899554593811988,-0.018530421385993204
641.2542272000001,-0.0788217157567351,-0.09829820659333448,-0.016359213381097467
641.7542272000001,0.053630438559924866,0.10035235071242753,-0.003091565927188998
642.2542272000001,0.1142470820397033,0.11267717013431611,0.016762532521462193
642.7542272000001,0.3923384928625137,0.21481284355751584,0.0590188767804161
643.2542272000001,-0.3658165375822552,-0.3323320843089922,-0.02341404465561623
643.7542272000001,0.24682119076328685,0.29199592978455985,-0.06550134213787297
644.2542272000001,-0.13623552121643992,-0.19795922399676213,0.030167260470531487
644.7542272000001,-0.11265247175710465,-0.07831761559361161,0.047293978892374404
645.2542272000001,0.008967672244255452,0.013075363137086776,0.007005441700036787
645.7542272000001,0.06468446171391845,0.07002750291124454,0.009450140165964526
646.2542272000001,-0.09633440670273831,-0.07624853965375175,0.0001543358290255705
646.7542272000001,-0.018348597052916325,-0.030331780491841088,0.006866949948666078
647.2542272000001,0.1842217935458998,0.17144799213301565,0.005577792978793223
647.7542272000001,-0.0424937174546512,-0.0481068299508009,-0.0005627346344803008
648.2542272000001,0.0030456255671545067,-0.028228424792832094,0.013634103317562258
648.7542272000001,-0.027073360660596485,0.005102695678435227,-0.007110884010266954
649.2542272000001,-0.0034016889277409534,-0.026821742211232076,-0.009564893438302892
649.7542272000001,0.005497099828151667,0.026885786579670085,0.0013713019133325135
650.2542272000001,-0.03839486101760181,0.0007619411958144609,0.006671468367145645
650.7542272000001,0.004949955326086943,0.003436215145552229,-0.015332804616172544
651.2542272000001,0.03868592843197598,-0.05931633342703759,-0.005456847693028213
651.7542272000001,-0.03436035440369237,0.07005245382028749,0.03258913079904073
652.2542272000001,0.03649585928981712,-0.06099361958025628,-0.00833245827855775
652.7542272000001,0.012112796290243111,0.03069873853020223,-0.009556370384630449
653.2542272000001,-0.04794427178019034,-0.09568039167461667,-0.008703217334796936
653.7542272000001,-0.06664473915231532,0.06419432447927328,0.00650784616736999
654.2542272000001,0.006245292187538781,-0.0011043320451571746,0.010697054696082633
654.7542272000001,0.015069959435805438,0.009259806206084641,-0.003833226664292951
655.2542272000001,0.029460679904351247,0.035645978261790924,0.010814757277532899
655.7542272000001,0.011920355734538207,-0.03214688570670155,0.007784063077624434
656.2542272000001,0.00933217086678464,0.12036932759270319,0.023037678164566908
656.7542272000001,-0.029526348783115264,-0.03617620114297207,0.001121838887252354
657.2542272000001,0.052592631797586276,-0.01648343183938117,0.00711630785554278
657.7542272000001,-0.021350729670774317,0.053404395453153765,-0.0069010015446042995
658.2542272000001,0.02265687418347781,-0.07103910450020182,0.04756215269939212
658.7542272000001,0.008391961969490068,0.03870556309657006,-0.028893602062682877
659.2542272000001,-0.07060786236093695,-0.07109168080318731,-0.02760753623683561
659.7542272000001,-0.0032445489326224375,-0.09059685586403483,-0.0007289655819355723
660.2542272000001,0.005057074859112273,0.014237701483559614,0.0033911260664311253
660.7542272000001,-7.376843098453323e-06,0.045159649674416234,-0.0022820632251620994
661.2542272000001,-0.054380796898680334,-0.05989145171809091,-0.01853997714263716
661.7542272000001,0.04150840746855172,0.10720875715126618,0.006897601387833468
662.2542272000001,-0.00461109128156234,-0.02927803167575333,-0.0028970747072554082
662.7542272000001,-0.021621961707825182,-0.04903519651419607,0.0011992393100557198
663.2542272000001,0.01760554915134804,-0.057828590174969524,0.001495771896919143
663.7542272000001,0.013042262204034616,0.16095517641156454,0.012073098899932633
664.2542272000001,0.003963808722990382,-0.0072715811052468035,-0.008771775927490639
664.7542272000001,-0.06481171031754547,-0.007255883158853302,-0.011536567134373357
665.2542272000001,-0.03735952817153107,-0.015481296720170824,-0.003213768594936859
665.7542272000001,0.056222688359282215,0.09362575594290902,-0.0034798831040517204
666.2542272000001,0.08077871536652231,0.15095435702767498,-0.04540225057929091
666.7542272000001,-0.14628143780242606,-0.18189088867486805,-0.009714655674144734
667.2542272000001,-0.01357795697564631,-0.03863308733236034,-0.0012697462812335306
667.7542272000001,-0.033402169972480425,-0.18421062433186042,0.01740364050859512
668.2542272000001,-0.02064583467167413,0.029732709410657896,0.0025444627329824455
668.7542272000001,-0.03714026362566745,-0.03962260922739709,0.01377136820848599
669.2542272000001,0.029250901432430174,0.04274116906486748,-0.00613360454896123
669.7542272000001,0.054038449621932313,-0.11339364903993181,-0.0025604861786922084
670.2542272000001,0.4948612518674808,0.6019779546586532,0.01187431994676939
670.7542272000001,-0.2868110156384323,-0.3284295430535169,-0.006381434186484332
671.2542272000001,-0.07663480611139313,-0.03229923390108255,0.0276707957483866
671.7542272000001,-0.0036302902175499624,0.021440566339850857,0.003815616148579508
672.2542272000001,0.10996182088315795,0.11875400515514244,-0.057867059295041406
672.7542272000001,0.10671103553582341,0.10649130189186622,-0.000210382247675172
673.2542272000001,-0.1110118852621656,-0.12157202362602997,-0.0009096830683101293
673.7542272000001,0.03126770010479105,-0.15266805888983145,0.03886709273761543
674.2542272000001,-0.11882484475225814,0.015190308429606194,0.030822476093287393
674.7542272000001,0.004830425007521109,-0.016189661072998407,-0.005111719340307389
675.2542272000001,-0.009234167720673824,-0.04134144298594231,0.010746379523227371
675.7542272000001,-0.187957339126437,0.03620631793143103,0.006578059020157625
676.2542272000001,0.059708884577244985,0.09029383113074743,0.12467547462927402
676.7542272000001,0.002257857974350356,0.04250518159055791,-0.017170774612744754
677.2542272000001,0.007951022069382148,-0.023635940323282312,-0.010918933232059003
677.7542272000001,-0.006683146962569304,-0.006887116121368235,-0.004833135907052325
678.2542272000001,-3.116523818969097e-05,-0.021306569629166213,-0.0028470255984639993
678.7542272000001,-0.016036360629432752,0.0009074401948102824,-0.012570436775388487
679.2542272000001,-0.005912392843344562,0.020979134073255582,-0.004089248277584765
679.7542272000001,0.19109940715890258,0.2209367476585619,-0.07851663822597234
680.2542272000001,0.025705640601110212,-0.014397064828223956,-0.052486768463686516
680.7542272000001,-0.04099123738288377,-0.03795245189391755,-0.007870471304451992
681.2542272000001,0.022737464082425475,0.052617581031104754,-0.017285150227514215
681.7542272000001,-0.04508150018360255,-0.05503477859031952,0.024308131653193968
682.2542272000001,0.05415275487860968,0.05618907600947749,-0.03711827342225358
682.7542272000001,0.06066333346074192,0.05131771356897219,-0.011155032729260345
683.2542272000001,-0.19915473128421216,-0.18577050144856713,0.07303466652249246
683.7542272000001,0.016925980790652016,0.002544219152829984,-0.016573666510493832
684.2542272000001,-0.027276605505541323,-0.05032493594136281,-0.007850267219010639
684.7542272000001,-0.008720526444590739,-0.02640043494008474,-0.010899043045622038
685.2542272000001,0.030496176622204066,0.04398620636684712,-6.270391832206054e-05
685.7542272000001,-0.006664693090370013,-0.005915730608248813,-0.017837573423189187
686.2542272000001,-0.010642192289844556,-0.010626570591884639,0.0006427727367304021
686.7542272000001,0.005095742957487228,0.01967806451699703,0.0023100226765531036
687.2542272000001,-0.000834928561683138,0.014479162921581003,0.0014815416467060059
687.7542272000001,-0.014960750855151582,-0.01667280838992247,-0.003495725235523429
688.2542272000001,0.01138283692644679,0.004896958036480894,-0.003044600936385085
688.7542272000001,0.011391144718516615,0.0020317261941420464,-0.006759369177556742
689.2542272000001,-0.005929501197703784,-0.0046463808788312615,-0.0023340635879915087
689.7542272000001,0.00107549815958978,-0.0037848936885990082,-0.006510693537394466
690.2542272000001,0.0024472394482676317,-0.0052061572842768125,-0.0021202348450222036
690.7542272000001,-0.007505239972239192,-0.002178200645689933,-0.0019955886262090963
691.2542272000001,0.013897010144064808,-0.00949944885124261,0.0026613975910865684
691.7542272000001,0.002568128382170348,0.016577562516255268,0.003049432164770755
692.2542272000001,-0.011900452017828718,-0.00786759041917211,-0.0005580849646696469
692.7542272000001,-0.01397372106126778,-0.014582910429417364,0.021762360547582325
693.2542272000001,-0.0362713865161993,0.002101215493849983,0.17731267306560788
693.7542272000001,-0.0811281426210301,-0.007105577622517193,0.0341925868490999
694.2542272000001,-0.04579364437545525,0.10791707312697495,0.07171199348356748
694.7542272000001,-0.21101296015923424,0.09462349590197157,0.11108938894826555
695.2542272000001,0.2682081951448261,-0.08601900515997653,-0.06178220772077353
695.7542272000001,0.1215200975064844,-0.04973120590086962,-0.0077061529831989875
696.2542272000001,-0.14863212901988307,0.025359379740497078,-0.010476248408969727
696.7542272000001,0.009497676365185625,0.0028747348211256283,0.003718958571908854
697.2542272000001,-0.08229928564284755,0.0075827951344215275,0.011151451349652605
697.7542272000001,0.016779360275882397,-0.022822624881823135,0.03707579213042171
698.2542272000001,-0.026997489705002434,0.01614986940549157,-0.011744954195191202
698.7542272000001,0.0005572480573882032,-0.0332622533332719,-0.003250578390646601
699.2542272000001,0.04291630188823246,0.046500220194223056,-0.001241975242100552
699.7542272000001,-0.08224206740279842,-0.027157030745724217,0.016198093272891224
700.2542272000001,-0.036392656563817925,0.01676770328317753,-0.006263704695147888
700.7542272000001,-5.5809094337651854e-05,-0.07020047450141112,-0.010322829086703655
701.2542272000001,0.021223253258722655,0.130782204919932,-0.021319606872241062
701.7542272000001,-0.037907381184988,0.2337742626407712,0.07574419537970654
702.2542272000001,0.03988418551896131,0.059293362583094276,0.18258649482480316
702.7542272000001,-0.025851129142708172,-0.032626883680021534,0.016844367254128342
703.2542272000001,0.3602615388632514,-0.07037906014160566,-0.1449192559478863
703.7542272000001,-0.38928918080686337,-0.19975236064722451,0.04567914792456605
704.2542272000001,-0.0498499403558875,0.07293601118255397,-0.06025623544516898
704.7542272000001,0.43075554446664405,-0.3974152101676554,-0.2057644072540719
705.2542272000001,-0.12437808150107052,0.10566910743201627,0.06854065060859932
705.7542272000001,-0.0003756532885209951,0.057653779335311024,-0.012600758128106624
706.2542272000001,-0.011122876455268138,-0.014588826816014174,-0.004298593330542873
706.7542272000001,-0.003798291684784714,-0.025502239132275024,-0.015011909148085532
707.2542272000001,-0.013644331087040393,-0.010576341428306723,0.00339510858751801
707.7542272000001,0.011704457262410513,0.014517021065541652,0.00549979067484011
708.2542272000001,-0.011576991363185263,-0.012311595981374436,-0.0019189840606236269
708.7542272000001,-0.004519819673903427,-0.005752503725169519,-0.002072707978119931
709.2542272000001,0.02349973788048033,0.0228601603485971,0.0002787819627524457
709.7542272000001,-0.014133329570714932,-0.010488501909053382,-0.0006413906233083449
710.2542272000001,-0.00709817828750394,-0.0017085172063048073,-0.0020204186521999377
710.7542272000001,-0.002410879891815687,-0.0014969353725468146,-0.0008810057706729647
711.2542272000001,-0.0012020938262305375,0.0005828186998614416,-0.00048057903707553494
711.7542272000001,-0.0024919585756668717,0.008339101909685495,-0.0023935977654204795
712.2542272000001,-0.00357906307693266,-0.0026327674866197825,0.0013084206234212103
712.7542272000001,-0.0012511453066518508,0.00027347235618905056,-9.486852616734331e-05
713.2542272000001,-0.0010001467730562888,-0.0004915939547645297,-0.0003130461896767242
713.7542272000001,-0.0005694779486563161,-0.0010454459509580002,0.0003562442389983912
714.2542272000001,-0.0016635358965250702,-0.0006526784111477412,-0.0006465896565363964
714.7542272000001,0.0010238255425809026,-0.0017818242250806713,8.097560764897571e-05
715.2542272000001,-0.01633898867427061,-0.03380922273864193,0.0013144506422834079
715.7542272000001,0.1290342397200426,-0.14293891951002574,-0.05446166286125889
716.2542272000001,0.10835338686177147,0.3059635767846381,-0.04958548270312096
716.7542272000001,-0.06962778368255959,-0.19658852017228554,0.0021266288422574966
717.2542272000001,-0.04090572527740353,-0.02772316741755578,0.02210638307724351
717.7542272000001,0.09271452853068665,0.06817038652107976,-0.04052620708838799
718.2542272000001,-0.004162992957981535,-0.09605001753579546,0.0026928961893677526
718.7542272000001,0.05201512964944117,-0.019168651272036995,-0.023053965878574365
719.2542272000001,0.04770462113484674,0.08635573768972762,3.342096413015527e-05
719.7542272000001,-0.0729683404339554,-0.01123129485562018,0.009570500025700469
720.2542272000001,-0.029506254135284626,0.026204414312786927,0.0046838885830636605
720.7542272000001,-0.035773584092097105,-0.02807434565062568,-0.02228946699864888
721.2542272000001,0.04177655292457119,0.07148464116657197,-0.06005941985871281
721.7542272000001,0.025660029852135235,0.015575087422073076,-0.01707005329747713
722.2542272000001,0.012356548240034399,-0.02890490638691108,-0.0003616550066198935
722.7542272000001,-0.0002818750020138229,0.025655637928041757,0.0035539533775200438
723.2542272000001,-0.04895943988146659,-0.003246374720334675,0.01913585083243418
723.7542272000001,-0.03701340121855294,-0.009599681140259742,0.01576043375130715
724.2542272000001,0.01002947008425091,0.02931036949370912,-0.004717409328835324
724.7542272000001,-0.059135640090942576,-0.03534064131982495,0.0018651766005387635
725.2542272000001,-0.01266873723975179,-0.022905314749305124,0.002828414971454124
725.7542272000001,0.030725442777331552,0.04567855635529444,-0.0005076956289473894
726.2542272000001,-0.057754739843834876,-0.10958518504826405,0.01752278178591697
726.7542272000001,0.014188478956019617,0.01577760155724108,0.0032105416242626966
727.2542272000001,0.0036735171403943145,0.01852394729061161,-0.010352763470071118
727.7542272000001,0.015632013386077327,0.07868122821552136,0.027974312051748846
728.2542272000001,0.0004271619148037431,-0.018003755932265893,-0.008554150718532013
728.7542272000001,-0.025951633996806302,-0.07399842869235845,-0.009089554620960266
729.2542272000001,0.0015805474682306492,-0.006787876623826403,-0.010141404233461526
729.7542272000001,3.8723799900307905e-05,0.009411203968386586,-0.0003086682863820978
730.2542272000001,-0.002483378130248301,-0.003461294859217935,-0.0002788006455689711
730.7542272000001,0.0053310280451225635,0.01050816942681974,0.002827873529133148
731.2542272000001,-0.003193406666771243,0.0011656817552895974,0.001244277649569279
731.7542272000001,0.002020316458868111,0.006437460455860442,-0.0005211764816046662
732.2542272000001,-0.0023958013982918803,-0.007842344373763719,0.006579886645320269
732.7542272000001,0.0019317648262617655,0.00827453931731001,-0.0011923962183430785
733.2542272000001,0.010635684478530007,0.015875158610889263,-0.004146692584657406
733.7542272000001,0.022076524425347733,0.005839564049019178,-0.0031508061195953175
734.2542272000001,-0.004885046860003402,0.0064942569011489214,-0.009314904377905634
734.7542272000001,0.01067849071491346,-0.0015652675648514028,-0.007786492951286429
735.2542272000001,-0.006997678309901992,2.9157995951523962e-05,-3.4978683641921627e-05
735.7542272000001,-0.008299798193213576,-0.01338293572194859,-0.0012056807677581869
736.2542272000001,-0.0005849165301947548,-0.022525506073534936,-0.0021939066470512652
736.7542272000001,-0.0006640902840592762,0.004006341929259424,1.007097572483278e-05
737.2542272000001,0.007064227030238444,0.006501076116882024,-0.0026319141323131274
737.7542272000001,0.0010419403017067636,0.007366937947561321,-0.0011441628257358354
738.2542272000001,0.010489138323987408,0.0023887886769720424,0.0032422645260488285
738.7542272000001,-0.003357907074786588,0.0022186121645795063,-0.0032766632230498967
739.2542272000001,9.424153128034938e-05,0.00296190366491112,-0.0005408830645963893
739.7542272000001,-0.0014786723657069345,-0.0051078619172598904,-0.0009852671210550908
740.2542272000001,-0.004504734290509902,-0.007553569741863284,-0.000506418380684379
740.7542272000001,-0.00048350539864391715,-0.00862034140076342,-0.0015314088736577305
741.2542272000001,0.004634178927465307,-0.004747544953028117,0.0009650488007062557
741.7542272000001,-0.001028875428115939,-0.010886271811020287,8.987900240241994e-05
742.2542272000001,0.001059524510459514,0.0022876243256105934,0.00041284896473793575
742.7542272000001,0.0009032998525758316,0.0004055652253043941,-0.0009924768289618052
743.2542272000001,0.0004695941330399203,0.002916074035500363,-1.1225562045290797e-05
743.7542272000001,0.00024656243875038707,0.002896266475081211,-0.0004109314429051861
744.2542272000001,-0.0004739127288878042,0.007247960939010107,0.0015004402038998133
744.7542272000001,-0.011919669369592014,-0.02932879296331945,-0.001291739157170003
745.2542272000001,0.002640058001546986,0.005436134881666708,0.0008452292610166457
745.7542272000001,-0.003537053295571875,-0.008841298376665436,-0.0007621753266912855
746.2542272000001,-0.0013024788675480836,-0.006100159448894586,0.0017977924955369245
746.7542272000001,-0.0017201379925712074,0.008896713244214528,0.0019047609144858615
747.2542272000001,-0.003611992697498746,0.006321334055867288,-0.001822905479956138
747.7542272000001,0.0025750302062041495,0.01204995972754366,-0.001751155395092904
748.2542272000001,-0.0029025251585796607,0.007877926860731278,0.0013995505790537323
748.7542272000001,0.0028072362166288245,0.013166744694453853,-0.0010351793513796912
749.2542272000001,0.002082092373317854,7.011326817357968e-05,-0.002240807924099103
749.7542272000001,0.0031010238254390067,-0.0022561748468796555,-6.007757606033769e-05
750.2542272000001,0.00393712702354197,-0.0021114009574686402,-0.0016166822763279518
750.7542272000001,0.0010240176202244258,-0.014840077163293507,-0.0017747792764056555
751.2542272000001,0.005402383785799677,0.002255352508347563,-0.0011820285060344618
751.7542272000001,0.009193258547383499,0.009165684712217737,0.0032202221591401993
752.2542272000001,-0.006377121005886403,-0.013772717792662831,-0.004903304400050027
752.7542272000001,-0.001321644926193333,-0.0020514199301970583,0.0016835564915183563
753.2542272000001,0.0028371768135370162,0.015937132965904335,0.0049224329761434005
753.7542272000001,-0.003737218925911903,0.0020975039364616284,0.0023039702308042097
754.2542272000001,-0.010887694083382849,-0.007551727854505105,0.006171649567613628
754.7542272000001,-0.0018973389053914486,0.005804129275338764,0.010454338039926942
755.2542272000001,0.00015506016934921761,0.02043803789478885,0.04092451717466606
755.7542272000001,-0.07789568744450087,0.1625178577116413,0.25798880485438236
756.2542272000001,-0.05921271299538071,0.0029466138881820863,0.1613288050533276
756.7542272000001,0.006588543825052715,0.07575769318873882,0.1827557057360616
757.2542272000001,0.011970542281265475,0.11119798327229714,0.18117212974078817
757.7542272000001,-0.021831082238705238,0.059155762630867484,0.1818007104459693
758.2542272000001,-0.008578126621330999,0.0927689669526724,0.18010165596168357
758.7542272000001,0.04765006596066792,0.08543616326293944,0.14024040043087466
759.2542272000001,-0.03939402012741065,0.0370554653911601,0.1264037052279322
759.7542272000001,-0.00864949245910969,0.0719891569227495,0.13475201388504354
760.2542272000001,-0.007048532080045422,0.051058348270738046,0.11003083313044319
760.7542272000001,-0.012661014299653862,0.0388581971161664,0.08778104841780295
761.2542272000001,-0.009394323278554327,0.01580659634722958,0.0538731833416014
761.7542272000001,-0.010300345911456734,0.007728619813883212,0.03297403499024564
762.2542272000001,-0.0086290495431609,-0.002076206993399959,0.022384558791834527
762.7542272000001,-0.10061474126062127,0.01687787538003248,0.08301624917491597
763.2542272000001,-0.1696326261762984,0.04634149277993426,0.053879078487754806
763.7542272000001,0.003930907954583528,-0.015335504419495717,-0.014934528233920597
764.2542272000001,0.004014683422559656,0.0027944344116756278,-0.0006122012123932457
764.7542272000001,-0.0743691592245654,-0.008204256442956054,-0.034604226814277446
765.2542272000001,0.023275155757411358,0.009085863602694456,0.003274806198656943
765.7542272000001,0.003826275018186816,-0.018827435551856148,-0.004042447105888082
766.2542272000001,-0.0010971312629730425,-0.011819099871506129,0.0014112441394231131
766.7542272000001,0.0009743618789612474,-0.003795120118146313,0.0017782193566436059
767.2542272000001,-0.0002865444361932989,-0.001075634256136452,-0.0007472241241320802
767.7542272000001,-0.0011848048302831862,-0.003956306275972944,-0.0009632471371007381
768.2542272000001,-6.369796408040345e-05,0.0005828928436998597,-0.0004106926973389704
768.7542272000001,0.0010374511523106042,-0.024049203566750908,-0.010532005763495986
769.2542272000001,0.06962099499862973,-0.05995930475585385,0.013027489624070883
