Time_interval,Time,Acceleration_x,Acceleration_y,Acceleration_z
0,0.25820500140816327,-0.8070302877908163,-1.0185515602836734,0.5777565339551021
1,0.752979437,0.24981314803218002,0.49878942259265996,0.10081101439848
2,1.253179437,0.0412883524008,-0.18358319269635998,-0.18544022026141999
3,1.753179437,-0.006945532860960003,-0.05350564718036,0.1221546298224
4,2.253179437,0.13139090520314,0.087457510989,-0.21896448012726
5,2.753179437,-0.011539233859799998,-0.3039479895776,-0.147969778220842
6,3.253179437,0.08961997157792,-0.11630254422768001,0.2704848146964
7,3.753179437,-0.1496801962762,0.190571484475922,-0.0203479054566
8,4.253179437,-0.10206939427604,-0.041056219963279995,-0.03098916796676
9,4.753179437,0.067702143674,0.16198301375354,-0.0413983051637
10,5.253179437,0.0866633873406,-0.08866702272641999,0.16027259319478
11,5.753179437,-0.013090833625679997,0.02390313780676,0.210449026456
12,6.253179437,-0.021765113909,0.1290085348411,0.0468227847306
13,6.753179437,-0.09130595795002,-0.18930088642874002,-0.03852724215552
14,7.253179437,-0.021239767427977996,0.18796920262316402,0.08993762164264
15,7.753179437,0.07900314253042,-0.01009759416644,-0.1528933471544
16,8.253179437,-0.13406649049,-0.11508081460094,0.08689551504456
17,8.753179437,-0.030097307632240004,0.20133492184096,-0.2714499811846
18,9.253179437,0.2498986724444,-0.2437533766816,0.18341214898357802
19,9.753179437,0.1204686398354,0.19517740666919997,-0.016132939978259996
20,10.253179439999998,-0.05566810768879999,-0.0367801693836,-0.01840535480882
21,10.753179439999998,-0.143058421677,-0.20248334668040002,0.026920810733600004
22,11.253179439999998,-0.1080192178836,0.142374255494404,-0.140272879416982
23,11.753179439999998,0.0721858919784,-0.102900174992,0.19283168519048
24,12.253179439999998,-0.018466443415300002,0.16402330289036002,-0.15653410015384
25,12.753179439999998,0.147847597819382,-0.13406649220262,0.17055955288684
26,13.253179439999998,-0.0248072182378,0.10519702274725999,-0.11360252349
27,13.753179439999998,-0.034300058955198005,-0.0284357583514,0.02219271809576
28,14.252979439999999,0.06933925986954,-0.1583544766094,0.15218474224568002
29,14.753179439999998,-0.07049990514125999,-0.117475405053,-0.0365724735302
30,15.253179439999998,-0.12789676376026,0.0257845996,0.50741482242522
31,15.753179439999998,0.10315673877904001,0.19799960069880002,0.008826993884800006
32,16.25317944,0.03667021406115999,-0.08711542509199999,-0.0454666656254
33,16.75317944,0.037085601313980004,0.323911046117,-0.1126251381604
34,17.25317944,-0.0113926271552,-0.180614388048796,0.03823402624408
35,17.75317944,0.150877491791,0.006493492524619999,-0.0490952026294
36,18.25317944,0.016352849799840002,-0.08376788691546,0.003940078318934
37,18.75317944,0.013872738225865999,0.18679634117671998,-0.2325256794502
38,19.25317944,-0.080591390334216,-0.28815102135896004,0.16756631743528
39,19.75317944,-0.020518949300719992,0.09409761182599999,0.046373800787800006
40,20.25297944,0.0386707938462,-0.03373500880060001,0.060802425066600004
41,20.75317944,-0.0038667735921799973,0.13329680137656,-0.26082093440000004
42,21.25317944,0.07710946080284,-0.23630082109834,0.02425744005016
43,21.75317944,-0.042558949453436,0.11853830991779998,-0.06078715381726
44,22.25317944,0.015131119871103995,-0.0310380398109,0.11494642573411999
45,22.75317944,-0.08165429678920001,0.16183640628180002,-0.09421367423426
46,23.25317944,-0.060652766092300005,-0.16716314804159998,0.131574164262596
47,23.75317944,-0.0126876619515,0.13031578310832,-0.16307035401857997
48,24.25317944,-0.056486663046,-0.1294850061126,0.02662759491208
49,24.75317944,0.029852961664180003,0.12002882058785999,-0.10682192371577999
50,25.25317944,-0.0472870448952,-0.17220888893026,0.0007269283805999992
51,25.75317944,0.0583803443162,0.071782720424,0.03445888403074
52,26.25317944,0.0067989245276819975,-0.032614068367798,0.08869145803786
53,26.75317944,0.004294379083260001,0.075802210752522,-0.00740978961474
54,27.25317944,0.000604755543779999,-0.055350457129999996,-0.00677449012846
55,27.75317944,-0.035350746015578,-0.015314379232399998,0.035472919440839995
56,28.25317944,0.03269959386354,0.06473334030746,-0.029107706088180002
57,28.75317944,-0.025931209567878,-0.07482482552029801,0.16860478920872002
58,29.25297944,0.018099922389779997,0.18751715751494,-0.07027999421066
59,29.75317944,-0.09263764395547999,-0.030109523974400004,-0.013946043843679996
60,30.25317944,0.10254587000752,0.036022696807379996,-0.0319054675324
61,30.75317944,0.008643737158759997,-0.19708330395902,0.114946424592
62,31.25317944,0.00014049939968199864,0.12873975217053998,-0.08127555874276
63,31.75317944,0.031624469583800004,-0.088581502433236,-0.057647310107420004
64,32.25297944,-0.0409218314676,0.03227198675032,-0.053249084548008
65,32.75317944,0.047494736834599996,-0.025735731226120002,0.24857920568539998
66,33.25317944,0.010769546143879998,0.06214327449498,-0.05129431480960799
67,33.75317944,-0.0487775514064,0.005051855867399992,-0.15382185905768
68,34.25317944,-0.012113449297799998,-0.12602751176778,0.013921607601940002
69,34.75317944,0.010561852679400003,0.12944835391534,-0.02260810618156
70,35.25297944,-0.0573907462758,-0.15380964291992,0.00904690719098
71,35.75317944,0.1191003082172,0.17022968718782,-0.09012088306395999
72,36.25317944,-0.06125141182584,-0.2438266792872,0.0594921204478
73,36.75317944,0.08031039325560001,0.15481146009402,-0.1208107258558
74,37.25317944,0.02875340506148,-0.14704126163481798,0.07499586902876
75,37.75317944,0.038405068869200004,0.119393522520162,0.1246713929563
76,38.25317944,-0.04973050187405201,-0.07823345319216,0.1084223886394
77,38.75297944,-0.059736467198400006,0.18690629551962,-0.039162540473422
78,39.25317944,-0.003634645116399997,-0.1472611742978,-0.084036669109
79,39.75317944,-0.025393648087968,0.1354592657166,-0.08382897403684
80,40.25317944,0.018161009070719998,-0.020812164288379998,-0.033395977680522
81,40.75317944,-0.064818860807,-0.104854941040238,0.08511178852463801
82,41.253179440000004,-0.025552474928460002,0.1521847415682,-0.11432334233401999
83,41.753179440000004,-0.015082253379940003,-0.17338174907606,0.12434152536306
84,42.253179440000004,0.016145156099979997,0.1534064729454,-0.0438539814586
85,42.753179440000004,-0.018649701039400002,-0.18618547689342002,0.007079922912279997
86,43.253179440000004,0.1408226564248,0.185403568116122,-0.12222793117362
87,43.753179440000004,-0.12395057033651799,-0.30457107084519597,0.0031703888201379997
88,44.253179440000004,-0.09458019471308,0.2154459014582,0.03316384926748
89,44.753179440000004,0.042448993473,-0.17664376648467603,0.05608349494194
90,45.253179440000004,0.019895865171,0.20242226087117998,-0.045662142214620005
91,45.753179440000004,0.031160213280600004,-0.1598572039976,0.06765327437236
92,46.253179440000004,-0.06540529131061999,0.10825134778878001,-0.10459837668067999
93,46.753179440000004,0.04553997193386,-0.08892358810300001,0.051966267418536
94,47.253179440000004,-0.013359611404799996,0.13900228132238002,0.04682278573392
95,47.753179440000004,0.0448313659736,-0.09317520433769999,0.009059125019098
96,48.25297944,-0.026199992301059995,-0.013860522646840002,-0.08432988103378801
97,48.753179440000004,0.0696324756084,0.026688683700200003,0.045894270679259996
98,49.25297944,-0.031086907908999997,-0.08717651152122001,0.0633527877182
99,49.753179440000004,0.061178106569199996,0.031172428947799993,0.06354826320534
100,50.253179440000004,-0.0508056242048,-0.17259984311674,0.11124458321898001
101,50.753179440000004,0.014495820586600004,0.070915292644,-0.064159127900562
102,51.253179440000004,0.07152615729428,-0.03425118845738,0.35681222637224
103,51.753179440000004,-0.0766574204532,0.1601137678304,0.23437048789778
104,52.253179440000004,-0.005723804144000001,-0.018637484456800003,-0.10390199097878
105,52.753179440000004,-0.03168555444452,0.10206939544999999,-0.17514103982732
106,53.253179440000004,0.03339597590184,-0.140773788474178,0.10298569491072
107,53.753179440000004,0.02706741774808,0.18958188382662,-0.020799946286003998
108,54.253179440000004,-0.011441496171100003,-0.165037338970396,0.13366332289646
109,54.75297944,-0.007153225783580002,0.120615249467,-0.21828031364217998
110,55.253179440000004,0.012528836133219999,-0.17079168305796,0.08213076890219799
111,55.753179440000004,0.11933243388340001,0.240613526879362,0.24466967111488
112,56.25297944,0.13907558783920002,0.1434371555884,0.4876350241788
113,56.753179440000004,-0.4055103647678,-0.2979737287034,-0.6686831306250199
114,57.253179440000004,0.09084170401884001,0.007812963044000006,0.05632784357505999
115,57.753179440000004,0.20358290681420002,-0.0771338955732,0.1691545664814
116,58.253179440000004,-0.19120678237282,0.10578345456160002,-0.20624627365622
117,58.753179440000004,0.011258236536,-0.21391873898398,0.544640929108
118,59.253179440000004,0.050512407610599996,0.24043027165772,0.108568997888558
119,59.753179440000004,-0.1277379335464,-0.2343338386796,0.176387204630192
120,60.253179440000004,0.040029971059000004,0.32029473087980004,0.133504496628
121,60.753179440000004,0.0630137558382,-0.08739947870652,0.1242010268392
122,61.253179440000004,0.01718668045394,0.10376454446740001,-0.20467635262936
123,61.752779440000005,-0.005137373091559998,-0.18270354681,0.10159291881719999
124,62.253179440000004,-0.06298626797081801,0.06778766714094,0.1973398672774
125,62.753179440000004,-0.03862497947,0.09091500621431998,0.001166753135800001
126,63.253179440000004,0.0801026985858,-0.004893024605099999,-0.12969270155536
127,63.753179440000004,-0.11936908576472,0.06784875280714,-0.0037690346279599996
128,64.25317944,0.06870395934156,-0.0726990158196,0.12667502997648
129,64.75297944,0.004367682031399998,0.20652727478719998,-0.26921421521856
130,65.25317944,-0.059076735319980006,-0.2755183435604,0.09930828655493601
131,65.75317944,0.08387784234713999,0.2682734852698,-0.154273900334804
132,66.25317944,-0.001521052049199998,-0.19317376907420003,-0.066101677887128
133,66.75317944,0.08018821900746,0.1427163393024,-0.24804164574818
134,67.25317944,0.016597194497362,-0.1771568928594,0.0021441342372
135,67.75317944,0.022901321688519997,0.0460897477584,-0.02585790653328
136,68.25317944,-0.010403027611399997,-0.060579459338600004,0.12776237116056
137,68.75317944,-0.0354729181426,-0.050622364143000004,-0.03048826150174
138,69.25317944,0.005748236812440001,0.2089951682166,-0.017146973956081998
139,69.75297944,-0.03146564478306,0.023084579928600003,-0.2129169206666
140,70.25297944,0.0405675292016,-0.1772301954872,-0.2088241252093
141,70.75317944,0.09808655789266,-0.1715308296304,0.128568710060218
142,71.25317944,0.07245772361002001,0.1975994833502,0.32489454238424004
143,71.75317944,0.05232056924372,0.18265467409674,-0.2321958122008
144,72.25317944,-0.09076839751021999,0.12150711246936,-0.276630116549
145,72.75297944,0.009633337469180003,-0.15250239197774001,-0.057549570338539996
146,73.25317944,0.1043418122878,0.099723672908,-0.1505842766918
147,73.75317944,-0.009046907405080002,-0.17225775987612,-0.02274249484916
148,74.25297944,0.06751888379224001,-0.0430720760608,0.10280243586403999
149,74.75317944,-0.09070731006563999,-0.02502712959174,-0.0070432708079200025
150,75.25317944,-0.223717006146,0.0879095509449,-0.057439616697
151,75.75297944,0.232696719923,0.016536111542560003,-0.08288824257571999
152,76.25317944,0.16487851215517998,0.0014721842939999985,-0.10662644790791999
153,76.75317944,0.15664405605224402,-0.08194751114040001,-0.035961607545799995
154,77.25317944,0.05715861862102,-0.12437817837880001,-0.0662849379177
155,77.75317944,-0.23124286000680003,0.15985720368732,0.026334379371399996
156,78.25317944,0.0402254439898,-0.27446765262818,-0.030830346227600006
157,78.75317944,0.24914119997672,0.021374159869800003,0.009217951566900001
158,79.25317944,-0.23386957820582002,0.13125651691478,0.08590591375024
159,79.75317944,0.14299733487986,-0.02103207432,-0.02213163224
160,80.25317944,0.03531409155092,-0.07433613564840001,0.0917579967942
161,80.75317944,-0.0580382611986,0.054397510510424,-0.1188926120117
162,81.25317944,-0.06578402763522,-0.04282773168988,0.09721912976692
163,81.75317944,-0.09458019387768,0.000555887622800002,-0.0390403676422
164,82.25317944,0.02346331542472,-0.061141456483600004,0.0525771313142
165,82.75317944,0.033933539879902,0.0987462915938,0.028557927095008005
166,83.25297944,-0.12651620407946,0.004440986931940003,0.1112201510742
167,83.75317944,0.058282609940499996,0.018942914684,-0.08192307443102001
168,84.25317944,-0.007238747730519999,-0.0448435829032,0.36481455901300003
169,84.75297944,-0.016756019881760002,0.19140226147579997,0.17991800542456002
170,85.25317944,-0.00569936723738,-0.08980323184559999,-0.2079566963724
171,85.75317944,-0.05643779699642,0.014923428147199998,-0.1234252275668
172,86.25317944,0.019785909619780002,-0.15424946648572,0.27593373160879997
173,86.75317944,-0.0027549994699800017,0.13807376531656002,-0.055631454645259995
174,87.25317944,-0.075276867657216,-0.15946625029724001,0.1518304405332
175,87.75317944,0.078477797052162,0.15898977569279998,0.0006902768846000001
176,88.25277944,-0.04029875009974,-0.11412786710379999,0.07330988233536
177,88.75317944,0.0188818311436,0.1710115959086,-0.10647983971302001
178,89.25317944,-0.0261755546882,-0.12150711355424,0.14172673863956
179,89.75317944,0.09306524893562002,0.13278367657072,0.042009169460180004
180,90.25317944,-0.05846586855968,-0.175250996208,0.14087152779674
181,90.75317944,0.03233307215664,0.17571525323554,0.036034914401098
182,91.25317944,-0.0039156436558200015,-0.10132414188080001,0.0530902573158
183,91.75317944,-0.03544848201778,0.07894205605676,-0.039797839901619995
184,92.25297944,-0.06397586840362,-0.0022540918319999964,0.04037205359366
185,92.75317944,0.037989678718702,0.011294890233800002,-0.027873760666119997
186,93.25317944,-0.054275336331678,-0.014886773918019998,0.02483165319816
187,93.75317944,-0.0004947998298000011,-0.07998052455946,0.08180090323038
188,94.25317944,0.01526551084424,0.09572861917038,0.0751669115312
189,94.75317944,-0.04621497564299999,-0.10855067165361999,-0.08360906363159999
190,95.25297944,0.0156075962236,0.13063343478122,-0.07357866336066
191,95.75317944,0.009865465453159998,-0.066211632677,0.11522742344754
192,96.25317944,-0.0125044019317,0.3010647043988,-0.36267652274
193,96.75317944,0.049131853921061994,-0.3073688335286,-0.33082603694
194,97.25317944,0.0301461762288,0.16486629589644,-0.057207486238599996
195,97.75317944,-0.01915061128186,-0.2603933284992,0.211719622014
196,98.25317944,-0.025014913232000006,0.1409692651002,-0.203118649908
197,98.75317944,-0.07910088263040001,-0.056388927393298004,-0.11567945736459999
198,99.25297944,0.070585425564842,0.126760550666,-0.058856820453204
199,99.75317944,0.0884318413626,-0.1813474278318,0.16167452947000002
200,100.25317940000001,-0.14090818012282,0.0770269942414,-0.19627390763840002
201,100.75317940000001,-0.04490466900506,-0.07471487142345999,0.13862354650918
202,101.25317940000001,0.09293085819828001,-0.008607086806200002,-0.052357221989799994
203,101.75317940000001,-0.040591964971859996,-0.06845961611116,0.036108217576599995
204,102.25317940000001,0.019324706428341994,0.09521243892879999,-0.030555453905399998
205,102.75317940000001,0.0073975734426,-0.04466337783858,0.10184643074812
206,103.25317940000001,0.0776958918234,0.13608234791902,-0.012907571991539999
207,103.75317940000001,-0.03158781678138,-0.08236289769999999,-0.0935050708336
208,104.25317940000001,0.0013011414652659998,-0.010134245700939997,-0.01579085395346
209,104.75317940000001,-0.01921169738962,-0.1086056506226,0.08413440569834
210,105.25317940000001,0.18845789350574002,0.1537485568566,-0.03274846158602
211,105.75317940000001,-0.19542175075008,-0.03764759748156,-0.032821766378100005
212,106.25317940000001,0.2646082986819,-0.05630340477943999,0.011282673592800004
213,106.75317940000001,0.07637948017072,-0.035714211159799995,0.1723616047912
214,107.25317940000001,-0.06328864494786,0.05228086131832,-0.0436615607304
215,107.75317940000001,-0.13804933137460002,-0.03743990306566,0.1579024382236
216,108.25317940000001,-0.0339579740334,0.084806359924,-0.1295949626514
217,108.75317940000001,-0.0586613449953,-0.021936154338860002,0.14045614004004
218,109.25317940000001,0.06309622108560001,0.09563087899179999,-0.08062804360412
219,109.75317940000001,-0.014520256965000007,-0.06064054633122,0.01069624201008
220,110.25317940000001,0.055142762591,0.012553270682400005,0.020372341400476005
221,110.75317940000001,0.04017657581182,-0.20453585213786,0.01100167442694
222,111.25317940000001,-0.063988084967,0.083804540713222,0.16210518639143998
223,111.75317940000001,-0.036877906353992,0.07880766200756,0.05731744385866001
224,112.2529794,0.034581055348380005,-0.0087659093694,-0.043719591234579996
225,112.7529794,-0.04829802448414,0.009902119629879993,0.04404335375560001
226,113.2529794,0.025720461230399998,0.015094468812280003,0.1221179775438
227,113.75317940000001,-0.04875312025484001,0.1633146989014,0.003133737241639999
228,114.25317940000001,-0.05663327389788,-0.10210604796076,0.01996916944276
229,114.75317940000001,-0.053493429333479996,0.03532630949754,-0.03596160903442
230,115.25317940000001,0.0645134292789,-0.16018707203694,0.1255266037152
231,115.7529794,0.06280300709304,0.134408578107042,0.056511101723815994
232,116.25317940000001,-0.08921680122996001,-0.13437192573138,0.03240637823102
233,116.75317940000001,0.0914036979588,0.019529347068800006,0.0870421231672
234,117.25317940000001,-0.042241300096579996,-0.15227026439914002,0.554805724612
235,117.75317940000001,-0.07087864190636001,0.31943952032134,-0.0369145568452
236,118.25317940000001,0.038710503166722,-0.08616247660960001,-0.1401873590364
237,118.75317940000001,0.09258877368636,0.21340561278279999,-0.12695602662279998
238,119.25317940000001,0.030378306041702,-0.39783790102018,0.350679145902
239,119.75317940000001,-0.10232595886285999,0.2817735991534,0.048398816880395996
240,120.25317940000001,-0.004147769992780003,-0.2058431043802,0.22601385827200002
241,120.7529794,-0.157853570392766,0.2615234348238,-0.012171477825800001
242,121.25317940000001,-0.012186753162999999,-0.157780260733,-0.08974214477704001
243,121.75317940000001,0.047494735470540006,0.15290556312557999,-0.091147133033364
244,122.25317940000001,-0.0359493919644,-0.18757824751304,0.04456258576144
245,122.75317940000001,0.06307178816636,0.16914234798176,-0.07980948353962
246,123.25317940000001,0.002596174866419998,-0.10082323145812,0.05398212078266
247,123.75317940000001,0.028069234967379997,0.06371930611676,-0.11393238805657999
248,124.25317940000001,-0.03017977442538,-0.24319443231127397,0.14094788635642
249,124.7529794,0.0739696169338,0.26510614979376,0.004315760345078001
250,125.25317940000001,-0.05175857329096,-0.19142669376806,0.1129427887937
251,125.75317940000001,-0.0007269289408980006,0.1958737913162,-0.12437817730856
252,126.25317940000001,0.0090224733952,-0.27052146799714,0.1190758715758
253,126.75317940000001,0.11724327618581999,0.305047545026,-0.02981630850154
254,127.25317940000001,-0.012296709287640005,-0.25760778823264,-0.011514801570600001
255,127.75317940000001,-0.1265039877504,0.27386900583334,-0.15047431805886
256,128.25317940000002,0.1555322805904,0.021423028376800005,0.21521377113315998
257,128.75317940000002,-0.013041961962495997,0.1042807247896,-0.36609736949320004
258,129.25317940000002,0.15588658069994,-0.15135396648332,-0.26934860595214
259,129.75317940000002,0.032210901803600006,0.05658440548922,0.29111982653836
260,130.25317940000002,0.018759657731459996,0.1492525916522,-0.1129427897612
261,130.75317940000002,0.0672256690222,-0.004135553999860004,-0.801265223326
262,131.25317940000002,0.046737263337000005,-0.18679634128418002,-0.2965931755174
263,131.75317940000002,0.3848875682984,-0.63028416910276,-0.009254602520599998
264,132.25317940000002,-0.066627022326,0.18809137548532,-0.047433649668079995
265,132.75317940000002,-0.19495749608000001,-0.2482982067753,0.051086624376
266,133.25297940000002,-0.03449553490592,0.122056891681004,0.140004099879
267,133.75317940000002,-0.099207495292,-0.2130879610872,0.278294719
268,134.25317940000002,0.05701811796964,0.3659385427486,0.11763728454919999
269,134.75317940000002,-0.033102764408599994,-0.0678243162452,0.10423185914659999
270,135.25317940000002,-0.01869857087896,0.09506888400357999,-0.17795101903820001
271,135.75317940000002,0.0697302126974,-0.2459036170678,0.49911928594599997
272,136.25317940000002,0.0008613195903799986,0.317387018435,0.06217992715296
273,136.75297940000002,0.03546070081534,-0.050182541077818,0.13213615908748
274,137.25317940000002,-0.022608106738198002,0.2730260140374,-0.18360762838104003
275,137.75317940000002,0.004355465745439999,-0.0661627673676,0.2621404042778
276,138.25317940000002,-0.00048258280319999903,0.1928439026714,-0.3126589207406
277,138.75317940000002,0.060542809962799995,-0.006811142722218,-0.12976600512421999
278,139.25317940000002,0.013213006287182001,0.0347520972468,-0.605825147026
279,139.75317940000002,0.01663384679066,-0.19141447648180002,-0.030524914781099997
280,140.25297940000002,0.0374154674562,0.26800470285514,-0.06309622208856
281,140.75317940000002,0.089400061859582,-0.12043198905225999,-0.346952871609
282,141.25317940000002,0.10335221089054,0.18225150543506,-0.23551891625816002
283,141.75317940000002,0.010170896756799996,0.16915456303592,-0.2224830617712
284,142.25317940000002,0.140260663309804,-0.32430200187479996,-0.623772349956
285,142.75297940000002,0.052033462560804,-0.2286894459828,-0.096825123804
286,143.25317940000002,-0.004764745350199998,0.11868491518539999,0.4915995494942
287,143.75297940000002,-0.026517640676956004,0.196118136492,-0.49167895124140004
288,144.25317940000002,0.0836212838436,-0.22286179556459998,-0.11840392034740001
289,144.75317940000002,-0.01054963388166,0.0761809481696,-0.1052336739024
290,145.25317940000002,-0.05706087930104,-0.3793409209316,0.08749416164642
291,145.75317940000002,0.06292517857312001,0.13665655979648,-0.051123272669000006
292,146.25317940000002,-0.0376842485296,-0.10134857549282,0.0654419436018
293,146.75317940000002,0.06485551503550199,0.1728808420872,-0.1362289538048
294,147.25297940000002,-0.03907702041488,-0.21636219825282002,0.18013791504219998
295,147.75317940000002,0.11802823699030199,0.2696509856442,-0.070090622272004
296,148.25317940000002,-0.011175772249040001,-0.17544952852722,0.1013333039828
297,148.75317940000002,0.081556556359,0.2760925547844,0.08236289866788
298,149.25317940000002,-0.06243648804892,-0.1512195764068,-0.0636704364882
299,149.75317940000002,0.12586563391316,0.1621143502686,-0.09088446171659999
300,150.25317940000002,-0.056709631299680006,-0.3346928130524,0.13683676496094
301,150.75317940000002,-0.022840231361800002,0.2122205310292,0.13378549496595998
302,151.25317940000002,-0.059944159544760005,-0.23638634450680002,0.1868329919972
303,151.75317940000002,-0.01949269518118,0.2797455244388,0.052149527236559995
304,152.25317940000002,0.10340108200617999,-0.0098410313012,0.03875937021376
305,152.75317940000002,-0.0339701921822,0.0553138062824,-0.256459361464
306,153.25317940000002,-0.11095137045596001,-0.050280280303424,0.01419038818672
307,153.75297940000002,0.028130323238582004,0.17345505388479998,-0.2714622025928
308,154.25317940000002,0.03637699711756,-0.1418977791142,0.1379393743676
309,154.75317940000002,0.0597242489852,0.08948558150948,-0.27730207029776
310,155.25317940000002,0.0576839601766,-0.33113147310560004,-0.0445137167326
311,155.75317940000002,-0.09901506895314,0.018222095895200005,-0.0940304171742
312,156.25317940000002,0.2109407708862,-0.1728258600482,0.24286761660776002
313,156.75317940000002,0.018649701574839996,0.21197618723560002,-0.05383551251698
314,157.25297940000002,-0.07677959230866,-0.003842338481040003,0.02225380440284
315,157.75317940000002,-0.10737170026580001,-0.10296125711951999,-0.15252682696720002
316,158.25317940000002,-0.0155953768958,0.029193228262502008,0.0243918306088
317,158.75317940000002,-0.12866339446312,0.05461742105792,-0.14214212749493998
318,159.25317940000002,-0.06064359826696,-0.049996227991360005,0.07453466344896
319,159.75317940000002,-0.012064580411799999,-0.0589667770136,0.08188642360119999
320,160.25297940000002,-0.0533346044289,0.039810058175199996,0.0615690625324
321,160.75297940000002,-0.0021685703087999998,-0.053945469064519996,0.10010241202598
322,161.25317940000002,0.0170981050865,0.07907644663088,0.07597325382640001
323,161.75317940000002,0.04211912759044,-0.0267375505014,0.2280908018676
324,162.25317940000002,0.04969384948188,0.1165102398904,-0.025760167539799997
325,162.75317940000002,-0.020115777870380002,-0.16504955464338,-0.111354540021962
326,163.25317940000002,-0.03713446962940001,0.25219552720848,-0.18468274820480002
327,163.75317940000002,0.127957847765,-0.06163014783957999,-0.014141521517120002
328,164.25297940000002,-0.024281878946000007,0.0385883278788,0.0350575290734
329,164.75317940000002,0.023377794848200004,-0.1897284875648,0.1432294655486
330,165.25317940000002,-0.010305289511000001,0.383116061313,-0.0769017673388
331,165.75317940000002,0.0531879925498,0.14702904584782,-0.4482831139892
332,166.25317940000002,-0.040029968229679996,-0.07464156649718,-0.37084989772312
333,166.75317940000002,0.0013622270901999956,-0.01219897074438,-0.45222930485943996
334,167.25297940000002,0.078294539259,-0.29629995951564,0.0551671969597
335,167.75317940000002,0.045772098750799996,0.342432464356,-0.27272058339184
336,168.25317940000002,0.03047604120856,-0.2432891175124,0.0022418758896600014
337,168.75317940000002,0.14672361170952,0.049608326442,-0.3342346631768
338,169.25317940000002,0.10580788608462001,-0.2676381859132,-0.11313826415222
339,169.75798332156862,-0.018718214031333332,-0.025222126357764708,0.3163291395573137
340,170.25817940000002,-0.11116804104959184,0.02223734754065306,0.2381406486079592
341,170.75317940000002,0.2086775175438,0.24322802494360002,0.1046838986854
342,171.25317940000002,-0.11990664705880003,-0.0490218989652,-0.11923469696198001
343,171.75317940000002,-0.050414672611199994,-0.189887318425,-0.33778989372921997
344,172.25317940000002,-0.0334326291448,0.08129999057814001,0.15997937687382
345,172.75317940000002,-0.002388479711200001,0.05952877435059999,0.01285870099292
346,173.25317940000002,0.039724534946740005,0.0626808347938,0.0555948035619
347,173.75317940000002,-0.011942406371599998,-0.04993819650280001,-0.19861046421302
348,174.25317940000002,0.011673625781180001,-0.0508544930578,-0.1383181132424
349,174.75317940000002,0.08528283129872,0.011270454826399998,0.07856331942078
350,175.25317940000002,-0.017867793666599997,-0.0436218551508,-0.038001897637960004
351,175.75317940000002,0.08384119098008201,-0.06213105874,0.027531676248580005
352,176.25317940000002,-0.161408800307,-0.1320872925647,0.14010183867988
353,176.75317940000002,0.08197194422839998,0.0639025642022,-0.03309054424704
354,177.25317940000002,-0.04363407235196,0.029950701022404,0.041080656700417995
355,177.75297940000002,-0.0677021436484,0.20222678309142,0.012198969127160002
356,178.25317940000002,-0.007104356869680003,-0.0703532958908,0.049461721473680005
357,178.75317940000002,-0.06777544769631999,-0.021655156121519997,0.0705487743834
358,179.25317940000002,-0.0038789925295600013,0.02089768308522,0.031184646517658
359,179.75317940000002,0.1223623218398,-0.0350819653706,-0.1943466285298
360,180.25317940000002,0.034141229543242,0.003817904466603994,0.009792166907600005
361,180.75317940000002,0.28888406093094,-0.24729639082846,-0.06446455864152
362,181.25317940000002,-0.021569636793880007,0.06513651203330001,0.11401790804382
363,181.75317940000002,-0.164731907478,0.055509282240400006,0.077671456106
364,182.25317940000002,-0.06192336248256,-0.07758593662124,-0.026151121483702
365,182.75317940000002,0.05781834968522,0.0341045810994,-0.12870310042038
366,183.25317940000002,-0.011502586116600004,0.0464684849482,0.32695315406939995
367,183.75317940000002,-0.03867384732,-0.0017653991006180009,-0.1955683603704
368,184.25297940000002,-0.029510878066380003,-0.016731586638400003,-0.0748126093256
369,184.75317940000002,-9.162899859999741e-05,-0.010403026491159997,0.089326756297
370,185.25317940000002,-0.018002185348618,-0.07177050310942,-0.114421081842
371,185.75317940000002,0.06869174465286,0.026627596440179997,-0.028863361313559998
372,186.25317940000002,-0.079174183622,0.1843162321836,-0.03067151858374
373,186.75317940000002,-0.007299835728999996,-0.060713851372819996,-0.0258701230626
374,187.25317940000002,-0.022253804262619997,-0.0672867529156,0.04604087935276
375,187.75317940000002,0.07947961645308001,0.1087033875576,0.00485637404456
376,188.25317940000002,-0.009169079588859999,-0.07751263130175999,0.12993704825392
377,188.75297940000002,-0.08187420768442,0.1031445165154,-0.030476047418999997
378,189.25317940000002,-0.005455024361500007,-0.13046239114688,-0.2021412651212
379,189.75317940000002,0.14470775862860003,-0.16832379026626001,0.20192135326900001
380,190.25317940000002,-0.27504186693559995,0.03329824030459999,-0.24783394536122
381,190.75317940000002,0.10571014968679998,-0.033188283583199994,0.04241234278382001
382,191.25317940000002,-0.134310840637,-0.034202317743200004,0.35932899043
383,191.75317940000002,0.15404176899799998,0.025027133106,-0.4485518984502
384,192.25317940000002,-0.04354855041262,-0.2042792928964,0.08792176611988
385,192.75317940000002,-0.0741773124528,0.1656604194728,-0.03255298383712
386,193.25317940000002,0.07987057033270001,-0.18015013371678001,0.120309817808
387,193.75317940000002,-0.0034758191553999973,0.0984164251358,0.0021930047248380014
388,194.25317940000002,0.0021563542265999945,0.06285187702692001,0.27845049221
389,194.75317940000002,-0.033676974862359994,-0.0594432510152,-0.26569563543496
390,195.25317940000002,0.15312547634902,0.11506859972022002,0.174957782179
391,195.75317940000002,-0.0718804627228,-0.055680322020800005,0.12076185913608001
392,196.25317940000002,0.020347908129600002,0.13334567298592,-0.031746641322100005
393,196.75317940000002,-0.015253291288419998,-0.134689573942,-0.17396818084153998
394,197.25317940000002,-0.054311988650799996,0.057073096357799995,0.0570853147624
395,197.75317940000002,0.080725779938,-0.055716976691040004,-0.086492344774544
396,198.25317940000002,-0.006603448618939998,0.10679748834982,-0.09274759900044
397,198.75317940000002,0.07004786410182,-0.13236828926376,0.11973560579152
398,199.25317940000002,-0.046260788998697996,0.11198984237412,-0.1628260086452
399,199.75317940000002,0.06106815236004,-0.15730378927896,0.1865275608448
400,200.25317940000002,0.0179166643617,0.18069990968422,-0.03243081147852
401,200.75317940000002,-0.044367108179340004,-0.11702336512204001,0.2048901559388
402,201.25317940000002,-0.0353751791602,0.07773254297894,-0.3822608531262
403,201.75317940000002,0.10579567058350399,-0.03537517925052,0.359500032089
404,202.25317940000002,-0.08584482644242,0.0517952241412,-0.351131184698
405,202.75317940000002,0.02335335892826,0.100236801514028,0.021129811304280002
406,203.25317940000002,0.07531351875228,-0.16948443197918,-0.08386562636362
407,203.75317940000002,0.04656622383282,-0.1872606012996,-0.030060656443799995
408,204.25317940000002,-0.014251475156479999,-0.4646787261678,0.8486561107520001
409,204.75317940000002,0.04220464674278,0.22600164149059998,0.868558086174
410,205.25317940000002,0.146088311811,-0.2606498942544,0.618384528156
411,205.75317940000002,0.462088660895204,0.5395707569238,1.025196034302
412,206.25317940000002,0.30135792330198,-0.047885688594457985,0.37139967370014
413,206.75317940000002,-0.29006913715140004,-0.0813122150132,-0.12574651220976
414,207.25297940000002,-0.16425543559053998,-0.13451853201164002,0.126968244830116
415,207.75317940000002,0.05587580102474,0.026505422664925997,-0.055448195337539995
416,208.25297940000002,-0.30130905077694,0.011136064613800003,0.15705944276562
417,208.75317940000002,0.3231780137178,0.026261076693219997,-0.38018391312783995
418,209.25317940000002,-0.24758960366938,-0.05703644458836,-0.0308669966092
419,209.75297940000002,0.27294049353014,-0.061263628347298,0.0015943571238000009
420,210.25297940000002,-0.11980890877651999,-0.11146449501121801,0.24403436966019998
421,210.75317940000002,0.04720152263872,0.1589653433836,0.13669321277246
422,211.25317940000002,-0.036364779264538,-0.01788001223568,-0.3379487246206
423,211.75317940000002,-0.06378039186251999,-0.03973675405166,-0.027482806235
424,212.25317940000002,-0.0130175291648,0.08753081329170201,0.1072250933854
425,212.75317940000002,0.013616175829979999,-0.004013381253538003,-0.1544938118456
426,213.25317940000002,-0.124781348577,0.06166679888042,-0.277668584584
427,213.75317940000002,-0.09687704775058,0.09798882020060001,-0.031966555837200004
428,214.25317940000002,0.18275241363778,0.1042807260953,-0.032113165216119996
429,214.75317940000002,-0.0005681055944799968,0.07653524925383999,-0.7171857863564
430,215.25317940000002,0.17456683347316002,0.1621418387392,-0.26133405749714
431,215.75317940000002,0.23889088491418,0.20729696174796,-0.45535693163235996
432,216.25317940000002,0.389017012545,-0.4034089955906,-0.4405984411176
433,216.75317940000002,-0.09862411551382,-0.14667474380374,-0.52472673796482
434,217.25317940000002,0.27080246441162,-0.33032513032193994,-0.04226573465588
435,217.75317940000002,0.008484911318580002,0.0743605690428,-0.1756786021534
436,218.25317940000002,-0.02784932605292,-0.2227029739264,0.09757343176241999
437,218.75317940000002,-0.029315401579859998,0.05607127698852,-0.024440699895002
438,219.25317940000002,-0.166662237894358,-0.07850223150804,0.1324904622144
439,219.75317940000002,0.10422574944434,0.15267343556208002,-0.112307488817384
440,220.25317940000002,0.059345513961580006,-0.07505695531334,0.16098119546398
441,220.75317940000002,-0.00027488928648200127,0.09343176749333999,-0.11228305574360001
442,221.25317940000002,-0.0888258472076,-0.2444497604592,0.012968659325396002
443,221.75317940000002,-0.026358815909380003,0.16128662666514,0.005149590127216
444,222.25317940000002,-0.067189019452382,-0.014007130584840004,0.16462195090574
445,222.75317940000002,-0.0835479771714,0.138318113414582,-0.13707194785458
446,223.25317940000002,-0.03685347356898,0.02709185395584,0.016255112961199997
447,223.75317940000002,0.050830059197999995,-0.0808357371448,-0.054568545212864
448,224.25317940000002,-0.047616907798600006,-0.0625953128226,-0.058600258913819994
449,224.75317940000002,0.0587590858292,-0.0821307673874,0.30188326873006
450,225.25317940000002,0.0038789905193999993,0.12380396494861999,-0.16847039836699998
451,225.75317940000002,-0.058624694532400004,-0.11133010328476001,-0.02528369340028
452,226.25317940000002,0.0109283719628,0.152966646963,-0.19206199631899998
453,226.75317940000002,-0.014789035914800002,-0.03506974537314,0.05252826165478
454,227.25317940000002,0.2497031962222,0.02115424674374,0.042473427815400006
455,227.75317940000002,0.0251737359496,-0.15213587393674,0.1311099081902
456,228.25317940000002,-0.142337603121702,0.23786463432102,-0.11567946423584001
457,228.75317940000002,-0.11344369868556,-0.20138379155142,0.192086430704
458,229.25317940000002,-0.05847808499248,0.16757853625580002,-0.215054945678
459,229.75317940000002,0.003280342669800004,-0.1548236781052,0.24154204371766
460,230.25317940000002,0.006041453443220004,0.3115715784176,-0.2986456810382
461,230.75317940000002,-0.072430236639,-0.2463312247824,0.17461569755148
462,231.25317940000002,0.05276038815948,0.154273900946,-0.18515922211696
463,231.75317940000002,0.045649923987600004,-0.25094935928803996,0.32022142478200005
464,232.25317940000002,-0.1164980230452,0.196594613965,-0.1953606638728
465,232.75317940000002,0.18982623083418002,-0.01888183150754,0.183717582338694
466,233.25317940000002,-0.010341939776300001,0.053322387746700006,-0.2765445937387
467,233.75317940000002,-0.01232114247198,-0.0717949373924,0.2123182724814
468,234.25317940000002,-0.143913630766,0.10624771112756001,-0.27240293021398
469,234.75317940000002,0.053762209372629995,-0.1184283553096,0.2113897578442
470,235.25317940000002,0.0025839580053199983,0.13203842227654,-0.11670571539268
471,235.75317940000002,0.03473987935074,-0.14189778017333998,0.08079908421280001
472,236.25317940000002,0.042045821572788,0.08847154639464,-0.07583886179919999
473,236.75317940000002,-0.0547395915516,-0.1231931009124,0.127542455454698
474,237.25317940000002,0.013933826207560002,0.11349256732200001,0.12110394216138
475,237.75297940000002,-0.0210809432324,-0.07703615676946,-0.029449791045040002
476,238.25317940000002,0.047433650381,0.1245858735204,-0.2033752090314
477,238.75317940000002,-0.120664118226,-0.1302302629504,0.10429294207814
478,239.25317940000002,0.017550146215740005,0.121250547772,-0.001435532922163999
479,239.75317940000002,0.013506221221780001,-0.050194760262599995,-0.019981385480144002
480,240.25317940000002,0.04103178731162,0.031551163963119994,-0.13222168289816
481,240.75297940000002,-0.02595564413552,-0.045772098085200004,0.0030359974269199997
482,241.25317940000002,0.02909548772546,0.01588859226476,-0.0849163139684
483,241.75317940000002,-0.051929615910619994,-0.023145667052579998,0.18963075338904
484,242.25317940000002,-0.02402531258482,0.03598604370356,-0.045979790183539995
485,242.75317940000002,-0.040530878708279997,-0.01582750676094,0.1071762271052
486,243.25297940000002,0.0434996811202,0.01371391454002,-0.0461386162086
487,243.75297940000002,-0.025833471380040007,0.028374670014979998,0.030072870398799995
488,244.25317940000002,0.022876884605800004,-0.023915356983400003,-0.07611986133698
489,244.75317940000002,-0.07960178944344,0.01698814796506,0.05213730931720001
490,245.25317940000002,0.04941285558164,-0.070035644326,0.01017089996518
491,245.75317940000002,-0.088349372484782,0.08489187810294001,-0.043634072746420005
492,246.25317940000002,0.063450525009,-0.09955263225562,-0.03338375895096
493,246.75317940000002,0.0008002357111000041,0.13341897789964,0.08203303054620001
494,247.25297940000002,0.123877269552,-0.08501405127478,0.152282480542
495,247.75317940000002,-0.06356048045254,0.17896505418382203,-0.2008217948698
496,248.25317940000002,-0.014691297293330002,-0.2138820850826,-0.1208229441226
497,248.75317940000002,0.002266310227320001,0.10381646931180001,0.020384557715459998
498,249.25317940000002,0.0605550244036,-0.150755317329574,0.09743904252476
499,249.75317940000002,0.0289977513946,0.12822662556992,-0.058111567087264
500,250.25317940000002,-0.07934522658460001,-0.1574381790282,0.04986489207584
501,250.75317940000002,0.040982917891520004,0.13109768973508001,-0.08064025965584
502,251.25317940000002,0.0103541586876,-0.11024276685378,0.018637483840579998
503,251.75317940000002,0.01921169808254,0.137010861066662,-0.073114405234842
504,252.25297940000002,-0.01960265125182,-0.2005652332838,0.20280099904672
505,252.75317940000002,0.049803805002640006,0.2401981394704,-0.03310276418216
506,253.25317940000002,-0.03798968189108,-0.1571938326514,0.01888182975264
507,253.75317940000002,0.019016220732596,0.08643125654771999,-0.0965105269878
508,254.25317940000002,-0.011808015520799998,-0.027604979949959998,0.18833572079180003
509,254.75317940000002,0.051196578473559996,0.04031096684906,-0.17560529634759997
510,255.25317940000002,-0.08564934973836,-0.0224370633262,0.13296693777842
511,255.75317940000002,0.0023029582748199983,-0.033224935647,-0.11517855450860001
512,256.2531794,-0.051966266539702,0.056144580821799996,-0.10696853029344
513,256.7531794,0.043976156270019995,-0.1341031460058,0.0858570461899
514,257.2531794,-0.0249782600374,0.07659633349472,-0.0640736067418
515,257.7529794,0.013481785485780003,-0.12567321142801802,-0.012822053096124005
516,258.2531794,0.0135306545741,0.10478163492051999,0.09389602595398001
517,258.7531794,0.00048258270998000036,-0.1553734562566,0.17481117475452
518,259.2531794,-0.0520029172246,0.1277623692532,-0.015045599376939998
519,259.7531794,0.0286190150889,-0.07113520357548,0.10683414197648
520,260.2531794,-0.005723803694179999,0.05671879450386,-0.043597419286442
521,260.7531794,-0.034324492436784,-0.008118392331740002,0.1919642556112
522,261.2531794,0.023683228853400004,-0.0004703673055000013,0.1002001497474
523,261.7531794,0.06988903783606,0.1795759212454,-0.2314749890646
524,262.2531794,0.069681345187,-0.2619571436564,-0.27889031527836
525,262.7529794,0.12138493790968001,0.036059348034199995,0.36141814480219997
526,263.2531794,-0.09717026163171999,-0.057806133779020004,-0.04637074493348
527,263.7531794,-0.03269959109558,0.12344966204640001,0.050072585061080005
528,264.2531794,-0.023084578287080004,-0.004893026568319997,0.2904967452514
529,264.7531794,0.025039347238520002,-0.08200859714448,-0.1941755863838
530,265.2531794,0.03065930314166,0.047995645574539995,0.10710292197139999
531,265.7531794,0.01599854810084,-0.0011056653472400015,0.07780584700728001
532,266.2531794,-0.141457957215706,-0.12071298883416,-0.057158617607102
533,266.7531794,0.02379318369432,0.19328372396500001,-0.07362753158496599
534,267.2531794,0.036315910832640005,0.06497768721246,-0.2951515351322
535,267.7531794,-0.1546770719508,-0.31010550468799997,0.162972615136178
536,268.2529794,0.14870281316226,0.305707279147,-0.086932168152
537,268.7531794,-0.026309947829400004,-0.04822777338098,0.048618728843919996
538,269.2531794,-0.18393749373440002,-0.2908754804008,0.0033414274777999976
539,269.7531794,0.10893551304199998,0.2597213779968,-0.10447620399606
540,270.2531794,0.14705347653312,-0.0718926743034,0.081287775976
541,270.7531794,-0.29504158397270003,-0.1201876476078,0.0078007446190000015
542,271.2531794,-0.012724312545399996,0.2451339251496,0.0010323615416000043
543,271.7531794,0.148275209006238,-0.1586354738206,0.2526719983744
544,272.2531794,-0.015790855026800003,-0.09097609220380001,-0.423616397428
545,272.7531794,-0.2261604687528,0.16017485240862,0.0261999903218
546,273.2531794,0.15757256775859999,-0.2965198738082,0.1303402193092
547,273.7531794,0.1596739440402,0.149289241710444,0.17085276945401598
548,274.2531794,-0.2110843269618,-0.022180500768,0.3310703829346
549,274.7531794,-0.0009957048313999994,-0.0979888192504,0.10082322976858
550,275.2531794,-0.0596142941952,0.3161775007748,-0.217877137883
551,275.7531794,0.13379771377902,-0.1300958727532,0.061312497724800005
552,276.2529794,-0.010635156890799998,-0.143229467905598,-0.210888847844
553,276.7531794,0.08909462847248,-0.09503223484734001,-0.17234327836604
554,277.2531794,0.10271691189360001,-0.2563127507302,0.937720183138
555,277.7531794,0.0158763752724,0.2416397803264,0.547670821552
556,278.2531794,0.2714255471476,-0.14618605259452,0.705640453404
557,278.7531794,0.047458080548600005,0.07420174371320001,0.575367426903618
558,279.2531794,-0.18752938189338,0.08254616070864,0.15884316932816
559,279.7529794,-0.023897028793199993,0.11274120446397999,0.29343500666600003
560,280.2531794,-0.0383500910003,0.14045002843818,-0.0070249451236999985
561,280.7531794,0.06996845170879999,-0.00755029029778,-0.19292331257282
562,281.2531794,-0.06477609947982,0.006939422746999999,0.17606344901100002
563,281.7531794,0.04406778518104,0.0455827319624,-0.16716925356084
564,282.2531794,0.048123927783519996,0.09619898581828,0.14288127223178
565,282.7531794,-0.07518523905671999,-0.05362170852428001,-0.15436553047867999
566,283.2531794,0.16906293895992,0.098043797373532,0.1189353732432
567,283.7531794,-0.311406649527,0.0017348569234000059,-0.31382567113406
568,284.2531794,0.150675908598932,-0.29102819746482,0.40576082556259996
569,284.7531794,-0.11633309022065999,0.02338390391264,-0.35084407616759994
570,285.2531794,0.17366885853212,0.08726814208442,0.1853852439308
571,285.7531794,0.030457717749739998,0.0952216013754,0.066107786859364
572,286.2531794,0.004288270659700003,0.05153255235774,0.03556454758634
573,286.7531794,-0.0990089640754,0.0430781857646,-0.10790315566794
574,287.2529794,0.0588629302014,0.018032727862619998,-0.11349867461698
575,287.7531794,0.027232353674660002,0.04359131015402,-0.06449510378168
576,288.2531794,-0.0242146812486,-0.0749531080776,-0.0593394065064
577,288.7531794,0.08092431269280001,-0.0067256211805199985,-0.076135129714824
578,289.2531794,-0.1124846402006,0.005387826773519999,0.05812989248798
579,289.7531794,0.0731938169956,0.009040797948640003,-0.0722286512892
580,290.2531794,0.1317635315868,0.009932661684839996,-0.08019433096593201
581,290.7531794,0.012498291733200002,-0.08731701245137201,-0.09684650204144
582,291.2531794,-0.03352425840678,-0.0016249004454599986,-0.08575319709028
583,291.7529794,0.029101598577,0.0916663693272,-0.1881341339382
584,292.2531794,-0.0232617360288,-0.09602794559834,-0.0751608015524
585,292.7531794,-0.004324922364679997,-0.03127627796222,0.12241730133338001
586,293.2531794,0.16483575258936,-0.1427713167811,-0.054330313213860004
587,293.7531794,-0.21821311361999998,0.13187348981792002,-0.18035171958916
588,294.2531794,-0.140584418980914,-0.1319223553038,0.219776931832
589,294.7531794,0.026132796805100004,0.14374870070584,-0.14599668275464
590,295.2529794,0.052485501689779994,-0.2402042479838,0.006511816354019998
591,295.7531794,0.2333014793374,0.1416106734472,-0.06851459382403999
592,296.2531794,0.12196526137439999,0.0332676962778,-0.006511816676859999
593,296.7529794,-0.35548665031924004,-0.2163438724374,-0.051214904789
594,297.2531794,0.2543396602638,0.06784264376903999,0.00392175126722
595,297.7531794,0.161439343204,0.08725592526013999,-0.065130400939408
596,298.2531794,-0.4342393416936,-0.18528750605557998,-0.06035343893016
597,298.7531794,0.01642004465718,0.042589496913,0.039107561914160004
598,299.2531794,0.0008918631347660014,0.15629586164048,-0.12682774322068
599,299.7531794,0.09972977828246,-0.016334525086599997,0.04289492399401999
600,300.2531794,-0.08791565820040001,-0.0631267687692,-0.0777997341942
601,300.7531794,0.0550633515994,0.013341286454239997,-0.049504478388200004
602,301.2531794,-0.0970419782356,-0.008332195838792,0.028564037140700004
603,301.7531794,0.504268863923,-0.07905811815199999,-0.03651749527134
604,302.2531794,-0.221047529129,0.007990109766000002,0.0254608453112
605,302.7531794,-0.1353798535374,0.0477207565688,0.07916807182760001
606,303.2531794,0.06519149005916,0.044666430628951995,-0.03963290655651999
607,303.7531794,-0.056211779748099995,-0.056407253185200006,0.0801088064136
608,304.2531794,-0.16081320465899998,-0.06418356370582,0.027397286626800008
609,304.7531794,0.0751913469445,0.09610735602244,0.027348416211679997
610,305.2531794,-0.076248141753,-0.028490734861200004,-0.016823215975600003
611,305.7531794,-0.08367625566584001,-0.016102396454160003,0.057421289278000005
612,306.2531794,0.0812083640502,0.09748180085958,-0.20296593312300001
613,306.7531794,-0.10998009806966001,-0.07699339796367599,-0.05346288404296
614,307.2531794,0.1080253265018,0.2142669263294,0.13817761318262
615,307.7531794,0.22234255852020002,0.010824521832200005,-0.16936836656638
616,308.2531794,-0.16902628344701998,-0.12914903304522,0.059681486543600004
617,308.7531794,-0.0559399395263,0.08607390217000001,0.013747512916119996
618,309.2531794,0.15353475100900002,0.08664505932620001,-0.0005009107111800037
619,309.7531794,-0.036932884832606004,-0.06783042271246,0.039058692006000005
620,310.2531794,-0.023066252020200004,0.1391672144824,0.05682264004798
621,310.7529794,0.03849670089312,-0.023652684117588,-0.124457592157
622,311.2531794,-0.0789115091424,-0.12156209114741999,0.0772621761046
623,311.7531794,0.014672973848633997,0.16551992030778798,-0.04831940351312
624,312.2531794,0.032363615772356004,-0.04309040216320001,0.00010995721182000096
625,312.7531794,0.010396920587000005,-0.09915557111479999,0.04388452465478
626,313.2531794,0.004288269674799998,0.11933854267214,-0.09337679214404
627,313.7531794,-0.015393795005605998,-0.0802065447004,0.10487326721254
628,314.2531794,-0.057531243993194,0.0234083380912,-0.15104242586505998
629,314.7529794,-0.06725621111624,-0.144188525111,0.034306165819564
630,315.2531794,0.03736049213079999,-0.022284349834999998,0.21427914544659998
631,315.7531794,0.07562506036706,0.21679591100182002,-0.1193141090844
632,316.2531794,-0.08587537191879999,-0.15619812358100002,0.036407539263800005
633,316.7531794,0.047158764489899994,0.20419987882483998,-0.010775653303200003
634,317.2531794,0.01502727223516,-0.03703062475132,-0.0803653730848
635,317.7531794,0.028979423708999995,-0.0492112691538,0.004276052750580001
636,318.2531794,0.08945503961625999,0.13484229216136,-0.21220220674284002
637,318.7531794,-0.00259006437508,-0.18603275906539998,0.04152658708616
638,319.2531794,0.452931797376,-0.019865323276528,-0.15347366621232
639,319.7531794,0.015674792076000005,-0.02609614351612,0.05571086705512
640,320.2531794,-0.5774749051852001,0.034281732133248005,0.13100605772492
641,320.7531794,0.009492841264965999,0.098373663326,-0.11129956677326
642,321.2531794,-0.23193314164242002,0.0739024217058,0.042296275457399994
643,321.7531794,0.15249628313878,0.01091004426042,0.041318892917999984
644,322.2531794,-0.12426211093457999,-0.21997240741313998,0.0551244384096
645,322.7531794,0.03839895964508,0.07171552559450001,-0.3031111029958
646,323.2531794,-0.06580234966180001,-0.21905610928442,0.292323232819
647,323.7531794,0.05324297320775401,0.18548298341892,0.0366152330866
648,324.2531794,0.019584325134766,-0.23904360410332,0.168513157615
649,324.7531794,-0.039877252694800004,0.10455561413973999,0.39790510379739996
650,325.2531794,0.0714467430838,-0.28129101272696,0.991225847546
651,325.7531794,0.06480053010914,0.07650470569706,0.027061312223940003
652,326.2529794,0.0338663421636,-0.1309571935658,0.2993359604362
653,326.7531794,0.04010938097124,-0.0799133318718,0.284504168289
654,327.2531794,0.37984793409824,0.199215226462012,0.65437056534116
655,327.7531794,-0.1149403165292,0.0406958110918,-0.144664997764
656,328.2531794,-0.245286649087,-0.043212576598200006,0.0508972523348
657,328.75297939999996,0.004434880340205996,0.1896124270516,0.1080986300094
658,329.2531794,-0.051117165352600004,-0.18672914666301998,0.09773836523382
659,329.7531794,0.053792752026600006,0.19006446450085998,-0.3126039411328
660,330.2531794,-0.12159874566640001,-0.213375066535212,0.16103616910094
661,330.7531794,0.053914926325940006,0.18972238469528002,0.024935500178380005
662,331.2531794,-0.04163654477576,-0.12459197738442,-0.03022558705602
663,331.7531794,-0.0018081594098999965,0.2210597456362,-0.06852681225374
664,332.2531794,-0.013341287971399997,-0.06677973652762,0.1791055510516
665,332.7531794,0.006536253983200002,0.157847460565,-0.1766498765732
666,333.2531794,0.0019914189127999936,-0.2288910365018,-0.0778363897976
667,333.7531794,-0.0360776747376,0.0711046617872,0.004850262699000001
668,334.2531794,-0.020219622961793995,-0.02574184038136,0.1043967914942
669,334.7531794,0.050469652037000004,0.1323133102778,0.035491247181199996
670,335.2531794,0.07161778912242,0.012681550368860001,0.033915214140260004
671,335.7531794,0.053414015486599985,0.008136718236120008,0.03444055920668
672,336.2531794,-0.0705793121538,-0.03481929112594,-0.07028610248299999
673,336.7531794,-0.09568586173302,-0.12642457645338,0.084128302096048
674,337.25297939999996,0.03753153285292,0.07814182218134,-0.08743918546896
675,337.7531794,-0.046816677827939995,-0.09948544504502001,0.177822737848
676,338.2531794,0.0705426674648,0.13457351197534,-0.15771306729016
677,338.7531794,-0.011557555388799995,-0.1675113405226,0.10214880844514002
678,339.2531794,0.00912632402562,0.232910520885,0.03128849457076
679,339.7531794,-0.017116434242574002,-0.12621687960648,0.20808497715322002
680,340.2531794,0.16247781240518003,0.1315680606706,0.053817186356
681,340.7531794,-0.1230281658082,-0.19530568992763603,-0.14190388822042
682,341.2531794,-0.12488519591154,0.08971160214627201,-0.31827276571519997
683,341.7531794,0.15895923250820002,-0.0480628376472,0.0990700465528
684,342.2531794,-0.37566962582999996,0.20537273980839998,-0.1623189863606
685,342.7531794,0.050872820619599995,-0.017629558181060004,0.16979596816259998
686,343.25297939999996,0.03500254712959999,0.12031592881559999,0.058349803362060006
687,343.7531794,0.016456696443399997,-0.07233860763756,0.011911864974800004
688,344.2531794,-0.1412197196618,-0.16167147755279998,-0.07332820959888
689,344.7531794,0.1681344186218,-0.3019993278814,0.30483374114031997
690,345.2531794,-0.1753914967034,0.21446241127574,-0.10411579362264
691,345.7531794,0.1263634861548,0.02757443534992,-0.1659963943774
692,346.2527794,-0.11441497334600001,-0.0784106018424,-0.022736389796199998
693,346.7531794,0.08117170864203402,0.1287702956798,0.0808784985504
694,347.2531794,-0.0996320448766,-0.001734855506640003,0.027989824783000005
695,347.7531794,0.0014782908809,-0.049993173350599995,0.039950558373780004
696,348.2531794,0.05126376690940001,-0.19956952400380001,-0.20622794664539998
697,348.7531794,0.027244569073439993,0.0896016426048,-0.057604550964580004
698,349.2531794,0.006401862937399995,0.0669263436574,0.1461432895114
699,349.7531794,0.010348049399594,0.051679161897,-0.061880601522740004
700,350.2531794,-0.045228429971599995,-0.12090235989227999,-0.048307187611859995
701,350.7531794,-0.10363931812619999,0.05793441674018,-0.16537331259198
702,351.2531794,0.025143194092799998,0.14693741242594,0.2651275305504
703,351.7531794,0.07572279739698001,0.0634199813136,-0.0683191149234
704,352.2531794,0.009077451095200003,-0.055283259296768,-0.17539149350106
705,352.7531794,0.2880471771598,-0.008515456288,0.20264828075024
706,353.2531794,-0.13161692332040598,-0.11072535538439998,0.21959366879996
707,353.7531794,-0.0339396552882,0.044397652399800015,-0.1553917833196
708,354.2531794,0.011594214551519998,-0.1104443510886,0.03673741035220001
709,354.7531794,-0.0994243517478,0.1310671451408,-0.06407971449264
710,355.2531794,-0.07734769743764,-0.17551367022679998,0.10023069238465199
711,355.7531794,-0.034843729163680004,0.17027244859079999,-0.11819011809732
712,356.25297939999996,-0.2336069114007,-0.012058468445219999,0.1046533547712
713,356.7531794,0.2533989264306,0.031215191438659997,-0.252836934026
714,357.2531794,-0.0706037481741,0.0010873377618800006,0.3128238536466
715,357.7531794,-0.021160351867199997,-0.058557497505820004,-0.0833952599516
716,358.2531794,0.16622852265520002,-0.03964512259220001,-0.07962011619288
717,358.7531794,-0.018961243718200002,-0.03857000234758,-0.000989600382
718,359.2531794,0.0404392458534,0.12968659361936,0.10946697045059998
719,359.7531794,-0.057714502627399994,-0.08728035949700001,0.008038981994880002
720,360.2531794,-0.05281536698524,0.19211697121734,-0.07506306433602
721,360.7531794,-0.005974256842799999,-0.20209850543321198,-0.05291310568348
722,361.2531794,-0.0629435062166,0.13222778986,0.0271834836944
723,361.7531794,0.05909505778526,-0.107719895429,0.16650951832288002
724,362.2531794,0.011655299100999996,0.2006935135314,-0.20378449246362
725,362.7531794,-0.019315542554,-0.19392513473952,0.0032742355183799986
726,363.2531794,-0.015919136922120002,0.13848304405034,0.03341430452666
727,363.7531794,-0.029846852419379993,-0.18920925483392,0.0539515771534
728,364.2531794,0.03584554549112,0.17467067673353998,-0.16796337855126
729,364.7531794,-0.009407316590000001,-0.166790518903592,0.08019432729626001
730,365.2531794,-0.0028588479844000015,0.19047985466499998,-0.10126916408966799
731,365.7531794,0.11790911974360001,-0.07175217747916,0.11870324452026
732,366.2531794,-0.038179042556600006,0.22725390404020002,-0.23018606549419998
733,366.7531794,-0.20239171872109998,-0.1775295242624,-0.1040913587783
734,367.25297939999996,-0.01481957911968,0.34986669545399995,-0.1628932028326
735,367.7531794,0.056211777695993996,-0.0537072307934,-0.342988357319
736,368.2531794,0.096064594369154,0.2486097506496,-0.31450984380179997
737,368.7527794,-0.004813615733579999,-0.08462920747087999,-0.3155238737078
738,369.2531794,0.15415783720600001,0.22046109824527998,-0.29521872945079997
739,369.7531794,0.08691384106638,-0.05867967069572,-0.36932884699916
740,370.2531794,0.0868771902514,0.11277785673334,-0.3243936342676
741,370.7531794,-0.060390092204,-0.3388955630388,-0.14351657365184
742,371.2531794,0.05723802749000001,0.14129302175122,-0.28135210026876
743,371.7531794,0.050225302611104,0.07789747581372,0.12100009540721199
744,372.2531794,0.017177517733199997,-0.06693856240564801,-0.2275715662106
745,372.7531794,0.07387799022654,-0.2550238287366,-0.26737551165901996
746,373.2531794,-0.035650068942194,-0.2048229639236,0.3674962511596
747,373.7531794,-0.060084659942,-0.015784745736607996,0.07656579180964
748,374.2531794,0.041832019384079995,0.11957067189095999,-0.19176267241929998
749,374.75297939999996,0.02050062224892,-0.010482438847759996,0.09911892028460001
750,375.2531794,0.014159845510580001,0.10112255572960001,-0.054305878760688
751,375.7531794,0.022901321159600002,0.07037773040006,-0.19505523265000002
752,376.2531794,-0.1553276420924,-0.431737845838,0.1804464027422
753,376.7531794,0.018325943841434,0.24603189708702,-0.4055164758118
754,377.2531794,0.027818782234800003,-0.02530202011216,0.375449714654
755,377.75297939999996,-0.0566882519467,0.15690672492176,-0.09384104591866001
756,378.2531794,-0.18581284999939998,-0.355059042874,0.6908758485219999
757,378.7531794,0.06442180040376601,-0.10332166655488001,0.467592557074
758,379.2531794,0.10951583793834001,0.2374767384282,-0.35010798283699995
759,379.7531794,0.10515426377292,-0.028787003757199992,-0.25991075308399997
760,380.2531794,0.03436725188894,-0.277552521229,0.8156999588280001
761,380.7531794,0.0746110243691,0.0328278732668,0.23375351508255998
762,381.2531794,0.06385980220834,0.09865466254442,0.2768561331954
763,381.7531794,-0.50654129297,0.1383608726624,0.21447462314306
764,382.2531794,0.025216499748320007,-0.30744824377748,0.16313754724763999
765,382.7531794,-0.0656068802523,-0.1777249980676,0.26325828322318
766,383.25297939999996,0.48112931744320003,0.14591116074660002,-0.0656435303742
767,383.7531794,-0.524244158931,-0.02229656964259999,0.2230267281136
768,384.2531794,0.3220601290724,0.01070234918442,-0.2098564864496
769,384.7531794,0.22353986141112,-0.015344932861200004,-0.04544833711088
770,385.2531794,-0.036871793415860006,0.293606050761,0.11486701270118
771,385.7531794,0.13893508378204,0.007037160317460005,-0.46056760853207995
772,386.2531794,0.065264792960274,-0.015772528293400003,-0.50754311506308
773,386.7531794,0.153950143331424,0.307106160962,-0.5675788985178
774,387.2531794,0.060084665148000004,-0.393164788356,-0.839804680358
775,387.7531794,0.18439564390600002,0.09341344213078001,-0.12526393138558
776,388.2531794,-0.1716163494814,-0.21392484780940002,0.33178509876580004
777,388.7531794,0.002247982028000004,-0.06450731949579999,-0.12346798719482
778,389.2531794,0.2238697195198,0.25680755431207997,-0.0667064351249
779,389.7531794,0.17151861703496,-0.27686835724040004,-0.027659956545960002
780,390.2531794,-0.25984660403458,0.09790635029143999,-0.2340803292768
781,390.75297939999996,-0.1963075065774,-0.08538667941288,0.09039577015240001
782,391.2531794,0.10993122678319998,-0.06262585987396001,-0.1640904947503
783,391.7531794,-0.2059225149236,0.006181951095399999,0.021673483848
784,392.2531794,0.04368904981688001,-0.17390098558641998,0.042943792631599996
785,392.7531794,-0.15541621979948,0.0371039268028,-0.08363960400786001
786,393.2531794,-0.12761269179659998,-0.4332497326876,0.07627867854013999
787,393.7531794,-0.0002809967370000166,0.1266200510202,-0.12174534571654
788,394.2531794,-0.0551488696074,-0.10974796672924,0.13649162542479998
789,394.7531794,0.0797422852294,0.2808878441098,-0.26933028048019997
790,395.2531794,-0.17050457667292002,-0.29618389589808003,0.251053206216
791,395.75297939999996,0.09089667987609999,0.2778457384352,-0.1707977935668
792,396.2531794,-0.0946718240554,-0.14201384279940002,0.15266732437331998
793,396.7531794,0.21021078617,0.016982040961239994,-0.26452888385
794,397.2531794,-0.2159284811486,-0.1765277010868,0.1077443294223
795,397.7531794,0.13360833845779999,0.0650204481954,-0.23491415832895998
796,398.2531794,-0.2676076444602,0.03571115296599999,0.2978454484242
797,398.7531794,0.26597052375758,0.0141842810822,-0.15392570555159998
798,399.2531794,-0.12743860920893998,0.1145860087238,0.1043234858294
799,399.7531794,0.049687741081379994,-0.13748122714842,-0.07296168880402
800,400.2531794,-0.0552221764816,0.07480650111399999,-0.01466075383598
801,400.7531794,0.025680759238199995,-0.10847736673362,0.034819294144
802,401.25297939999996,-0.128965772832,0.21870180907138,-0.23415668768
803,401.7531794,0.09308357454688,-0.2820362705008,-0.20974653058662
804,402.2531794,-0.0278309976326,0.045008516240400004,0.4410688096274
805,402.7531794,0.026963572516366004,-0.10646151336986,-0.18263635278618
806,403.2531794,-0.11908197913064,0.1162720025672,0.008087849845999999
807,403.7531794,0.1964663289588,-0.097396282044188,0.044067784342780005
808,404.25297939999996,-0.1497718280538,0.057641200079980005,-0.10134246740058
809,404.75297939999996,0.09591798531290001,-0.1061194291616,-0.008649844249608003
810,405.2531794,-0.0580565870722,0.11525796640359999,0.0661322211718
811,405.7531794,0.06790372702812,-0.101440204747,-0.017812816403379998
812,406.2531794,-0.05088503886040001,0.159105840170772,-0.034636033104119994
813,406.75297939999996,-0.01496618688632,-0.16512896651463202,0.04834383916226
814,407.2531794,0.07166665537983401,0.23498746434202,-0.0316061441478
815,407.7531794,0.012021815410000003,-0.09861800959224,0.08939394906
816,408.2531794,-0.024642283253105995,0.19974056601200002,-0.18619158496813998
817,408.7531794,0.0963578106758,-0.12410328748084,-0.10698685512619999
818,409.2531794,-0.19170158661132,0.13021193992374,-0.7857309393472001
819,409.7531794,0.21399814796379998,-0.12424989697352,0.91640712591
820,410.2531794,-0.2766117866362,0.13728575481560001,0.1551107827182
821,410.7531794,0.009162972731999994,-0.25975192129938,-0.1428812730464
822,411.2531794,0.05819097852360001,0.11359641349198,-0.083737344015
823,411.7531794,0.005400043059999999,0.13990025113806,-0.451172512259
824,412.2531794,0.021697918285199992,-0.0541837064978,0.57037666811766
825,412.7531794,-0.0597303563584,0.027611085023840003,0.04166097675119999
826,413.2531794,0.06542362025852,0.03236361640088,-0.10189224247340001
827,413.7531794,-0.05477013746472,-0.27493801967888,-0.06743947152
828,414.2531794,-0.01623678621976,0.22881772706661999,-0.03870439217822
829,414.7531794,0.014660751842794003,-0.11891093690313999,0.39929787454598
830,415.2531794,0.08164818616064,0.21738233923439998,-0.1137430221614
831,415.7531794,-0.058508627861200015,-0.12484854197528,-0.02456898295906
832,416.2531794,0.1200471503506,-0.05549095624906,-0.10759772467520001
833,416.7531794,-0.0916663694192,0.05459909191856,0.13515994148286
834,417.2531794,-0.0598280941658,-0.19039433498218,-0.26050939411996
835,417.75297939999996,-0.01613904752512,0.1541456178922,-0.058911800263116
836,418.2531794,0.073377076544706,-0.057164725233068,0.55117107500838
837,418.75297939999996,0.051544768695820004,0.08328530443502,-0.21559861744974002
838,419.2531794,-0.03316995842680001,-0.06527700886238001,-0.1551963035346
839,419.7531794,-0.06513040384780601,0.13385269013876,-0.4537747924018
840,420.2531794,-0.0045204018435399985,0.006939423262600001,0.3780031310018
841,420.7531794,-0.0040072713757999985,-0.0045937031045999955,0.057457940967688
842,421.2531794,0.15862936554014,0.15232524168226,-0.11797020523466001
843,421.7531794,0.126620050778,0.0448863432648,-0.30484596119
844,422.2531794,0.3982838367,-0.06817250780094,-0.9180931061100001
845,422.7531794,0.022052215035999998,-0.1783114297964,-0.8291023242660001
846,423.2531794,-0.04877144364816,0.03900982871,-0.501923152804
847,423.7531794,0.014856232685800004,-0.3179551151048,-0.03094640898791999
848,424.2531794,0.11467153626798,-0.13523324423076,0.26378363135346
849,424.7531794,-0.2895743381978,0.09448856298276001,0.38804574191
850,425.2531794,0.0934745285308,0.08349299633615999,0.56515988201
851,425.7531794,-0.154499918915434,-0.20112112125082,0.13564863362180002
852,426.25297939999996,-0.1701869288886,0.297393407818,0.23096797584644002
853,426.7527794,0.35139386068379996,0.15693116420982,-0.036346452884439995
854,427.2531794,0.0956247710066,-0.2732886857962,-0.43062301589279994
855,427.7531794,0.0195598886902,-0.25055229608468,0.4168541246268
856,428.2531794,-0.09969313189658,-0.23839608687756,0.862382243854
857,428.7531794,0.016811000003754004,0.325065584328,0.30621429741379996
858,429.2531794,0.012266165465999998,-0.04674337210164001,0.42016500862674
859,429.75297939999996,0.09187406569371999,0.23606258840914002,-0.244138216007
860,430.2531794,-0.0623082096106,-0.0495167015914,0.2899530802168
861,430.75297939999996,-0.0944641308868,-0.03176496757578,-0.0495289167758
862,431.2531794,-0.19668624412208,0.11094526609428,0.19634415628265997
863,431.7531794,0.1215865237594,-0.24292870603859998,-0.133962646365
864,432.2531794,-0.03494146532518,0.12732865495514,-0.341119109148612
865,432.7531794,0.004019490241400001,-0.26528635964540004,0.263551497283
866,433.2531794,0.046499028483759995,0.16894076471512,-0.034709335431
867,433.7531794,0.13632058626398,-0.07211869649228,0.1358685441712
868,434.2531794,-0.003136791130680011,0.08425352459360001,-0.0773141015728
869,434.7531794,-0.0575678966176,-0.060206832170139994,0.21879954636895999
870,435.2531794,0.19381517702112,0.031410666794691997,-0.30677629385646
871,435.7531794,0.11105521738527999,-0.054452485587600005,0.031911575946400005
872,436.2531794,0.061611822711320006,-0.1027108019286,-0.02046396948574
873,436.7531794,-0.46970614190939997,0.11789690025060001,-0.016224570082
874,437.2531794,0.12412772202599999,0.11209368664819999,0.20026590986715997
875,437.7531794,-0.09732297883140001,0.05440361686692,-0.2296973750518
876,438.2531794,0.175183799534,-0.132484353786,0.06449510317309999
877,438.7531794,-0.08438486252760001,-0.07618705769859999,-0.12179422109262
878,439.2531794,0.16765794665720002,0.031520622656,-0.022039998492599997
879,439.7531794,-0.136393887617426,0.0703227553674,-0.3385046114026
880,440.25297939999996,0.1583483673234,-0.149881782138548,0.264699922655792
881,440.7531794,-0.1644936661456,0.0944396956254,-0.1259236653888
882,441.2531794,0.07351146873448,-0.2169791705102,0.11531905165157999
883,441.7531794,-0.05016421609874001,0.16393167297459998,0.060903218447379996
884,442.2531794,0.0054611300038,-0.0819536175016,0.056040734187800006
885,442.7531794,-0.006988291817399996,0.20301479941040002,0.09147089235919999
886,443.2531794,0.0628213328072,-0.0206105767936,-0.12037701266508
887,443.7531794,-0.09193514975639999,0.014049886915599998,-0.010641262577599998
888,444.2531794,0.088954129177,-0.16894076275378,-0.012021817255779998
889,444.7531794,-0.10337053738708,-0.0699806699635,-0.059889183737480006
890,445.2531794,0.2201312300588,-0.040634726550420004,0.0942686523546
891,445.7531794,0.114317236093586,-0.057445725843260007,-0.035014768113239995
892,446.2531794,0.1341336886922,-0.020073015857400005,0.010067051862608
893,446.7531794,-0.3219868289062,0.11691951652046001,0.1314703149726
894,447.2531794,0.047268717023800005,0.10973575104969999,-0.042357366395780006
895,447.75297939999996,-0.21835971840659998,0.14247810136419997,0.1694905408558
896,448.2531794,0.36176634200359997,-0.09815375195829999,-0.184530031832
897,448.7531794,-0.04186867437359999,-0.071422309944,-0.07226530358326
898,449.2531794,-0.21379045663543997,0.013561202581400004,-0.0638842443008
899,449.7531794,-0.07663909636626,0.10950362031372,-0.09327905302588001
900,450.2531794,0.05828261131640001,-0.1832594335724,-0.06002357328032
901,450.75297939999996,-0.1674655231808,-0.11370026410042,0.1700922418052
902,451.2531794,0.1874866184406,0.0646417101862,-0.06949197552078
903,451.7531794,-0.25358218562400003,-0.02820973610668,0.06925984792499999
904,452.2531794,0.1404866804872,0.0760282308302,0.14398083311614002
905,452.7531794,-0.0005986468874000006,-0.15030938755338,0.035833327553000005
906,453.2531794,0.020354014614800003,0.08288213320182,-0.1612438671644
907,453.7531794,-0.04208858090406,-0.21446240450772,0.13897173676813998
908,454.2531794,-0.010726785299939996,0.19430386964052002,-0.052424415741052
909,454.7531794,-0.02459341616084,-0.0984714043174,0.28604354468296
910,455.2531794,0.008698716341999998,0.1187765477216,-0.09540485981034
911,455.7531794,-0.010494656980732002,-0.19838444462498,-0.06919876279807999
912,456.25297939999996,0.00786793868896,0.1107375683684,0.012241733738800003
913,456.7531794,0.1416595440374,0.1066203387142,0.0603656594854
914,457.2531794,-0.15167772590428,0.0947451253256,-0.16583756906368002
915,457.7531794,0.14242312255564,-0.06931788124720001,0.0708114448368
916,458.2531794,-0.19547978366574,-0.07599157758278001,-0.123354979198
917,458.75297939999996,0.211249254993766,0.027940954085759993,0.07484315151462
918,459.2531794,0.0847513794892,-0.0283685586676,0.1967717685098
919,459.7531794,0.01127656806929998,-0.030567660474440005,-0.22233035125403997
920,460.2531794,-0.0359310643888,-0.29433908400446,0.233130432659
921,460.7531794,0.0022968512029999987,0.1895024710838,-0.2195936725628
922,461.2531794,-0.028588471540339996,-0.20035142987706,0.0326934829356
923,461.7531794,-0.092680404123594,0.160816262833788,-0.07903368422642
924,462.2531794,0.1296621568122,-0.10436013318760001,0.24424817179466
925,462.7531794,-0.09632115647239999,0.03226587675854,-0.24198797323819998
926,463.2531794,-0.11952180243568,-0.1037126196056,-0.1014402045798
927,463.7531794,-0.0472687174333,0.019144501468559998,0.2246027633226
928,464.2531794,0.0732182541868,0.0578733302022,-0.12913681423398
929,464.7531794,-0.022247695747860004,-0.1141706275618,0.041660980112388
930,465.2531794,0.06309011564428,0.07153226339895999,-0.17858021112242
931,465.7531794,-0.22666748616356,-0.22147513428496002,0.26904928861242
932,466.2531794,0.05501448194838,0.2517618108944,-0.094952820685
933,466.7531794,-0.054354749006140006,-0.16434706013820002,0.03619984637898
934,467.2531794,0.0402926414742,0.169795972626,-0.16066965446200002
935,467.7531794,-0.20459083273531997,-0.16556879014,0.036187627647599994
936,468.2531794,0.288670260073,0.11558783455604,0.2706619702456
937,468.7531794,-0.1468885453816,0.03918086910508,-0.13906947665900002
938,469.2531794,0.023652682756939995,-0.037042842465399996,-0.012840377279800001
939,469.7531794,0.13987581790884002,0.1218186548408,-0.048869184263600006
940,470.2531794,-0.062405947676199995,-0.1236023801449,0.060426745511588005
941,470.7531794,0.0650204466652,0.09259488244366,-0.1579818502778
942,471.2531794,-0.0496144376506,-0.11698060333539999,0.0716300046376
943,471.7531794,-0.113645285599594,0.07126348844314,0.065374744498
944,472.2531794,0.1844445109487,0.0784594714138,0.022162175329
945,472.7531794,0.043933394915800006,0.0019058977090000045,0.18765766007461998
946,473.25297939999996,0.0629923766678,0.149600784862,-0.29110149582504
947,473.7531794,-0.192972182740494,-0.28702092774018,0.11181269033079999
948,474.2531794,0.06866120156694,0.2409006372184,0.125007369037192
949,474.7531794,-0.034367252548,-0.11721273316798002,-0.03981616743592
950,475.2531794,-0.04417774008936,0.0814160574196,-0.08056084795685999
951,475.7531794,0.0725218662642,-0.010494657289400001,-0.005827649682799999
952,476.25297939999996,-0.06373763030594,-0.07173996041955999,0.038728827211180004
953,476.7531794,0.0946718201692,0.11766477168179999,-0.0825767016824
954,477.2531794,-0.028405212893100003,-0.10294293190762,0.025204283953920003
955,477.75297939999996,0.005461130016033997,0.1400590751734,-0.1743408077956
956,478.2531794,-0.088465437967,-0.152288589448832,0.16437149441664
957,478.7531794,0.016578869045199996,0.10857510414760001,-0.0511415975146
958,479.2531794,0.0476841053384,-0.059119494131139996,0.058325369441120004
959,479.7531794,-0.0878790083676,-0.000134388582999998,-0.07864273249238
960,480.2531794,0.08363960576467999,-0.0018081602002599994,0.046816677072508
961,480.7531794,-0.08862426283279999,-0.0158213965562,0.135037767103
962,481.2531794,0.037360488281594,0.0016493339410200026,-0.0564439051609
963,481.75297939999996,-0.086657278622314,-0.0585452814396,0.023115125001000002
964,482.2531794,0.004386009791060002,0.12665670329124,-0.07644361809736
965,482.7531794,0.060035795941834,0.04803841046000001,0.0533773621152
966,483.2531794,-0.0016126840592000002,0.02472780466066,-0.042907141693
967,483.7531794,-0.036273145979766004,-0.11331541755944001,0.1222951305952
968,484.2531794,-0.0755761916395,0.09706641285576,-0.14527586201728
969,484.7531794,0.043591307925,-0.1420504975778,-0.011972948318200003
970,485.2531794,-0.04058585425534,0.020170754080939997,-0.208256019136
971,485.7531794,0.002015852486199998,-0.05970592491590001,0.16080404494
972,486.2531794,0.02544862476939999,0.099302182814,-0.03186271038512
973,486.7531794,0.06152629688059999,-0.01662773708004,0.0580932438458
974,487.2531794,-0.0013927705677999993,0.0793635487222,0.13526989622586
975,487.7531794,-0.016249004227462,-0.043041531165,-0.016810997988952
976,488.2531794,0.012608246580000003,0.024507895072919998,0.09269262125779999
977,488.7531794,0.062418162517279996,0.028881686742259997,-0.052326675481792
978,489.2531794,0.0429193605444,-0.00128281612396,0.06302902744056
979,489.7531794,0.026914702524766004,0.049284571023780005,0.043322530829600005
980,490.25297939999996,0.00386066440272,-0.006560688897200002,0.0330477840124
981,490.7531794,-0.1148914455182,-0.16383393598754,0.19204366923886
982,491.2531794,-0.0087109318394,0.40927940186580003,0.090188076732392
983,491.7531794,0.021734568895766,0.03088532273284,-0.42325599104
984,492.2531794,0.0896749510153,-0.043701265115800005,-0.1072556377928
985,492.7531794,0.0416121108838,-0.0976406266946,0.08384729776227999
986,493.25297939999996,-0.0815382314052,-0.056798206122799996,-0.23821282915414
987,493.7531794,0.04054920368000001,-0.10433570488784,0.16002213944182
988,494.2531794,-0.037885833238893996,0.02217439223316,-0.0980926654324
989,494.7531794,0.0762847932062,0.04218632173804,0.40767893731800003
990,495.2531794,0.0427116652735,0.05108051363379999,-0.10644929772039999
991,495.7531794,0.0318504876792,0.0258395793592,0.008588756174919993
992,496.25297939999996,0.054208139435199997,-0.0516547277218,-0.12792730365045998
993,496.7531794,-0.024434591252956,-0.09056681157888001,0.19161606388312
994,497.2531794,0.040732462589239994,-0.00652403606104,-0.21919050113497998
995,497.7531794,-0.10329723383579999,0.04376235385352,0.09293696687099999
996,498.2531794,-0.007318160097699998,0.09579581471180401,-0.048820312397400006
997,498.7531794,0.0632000701876,-0.0143919736116,-0.19716271703578803
998,499.2531794,-0.007269289994340003,-0.1231381226724,-0.1026619348432
999,499.7531794,-0.0056688253583400015,0.01904676335678,0.17770056488554
1000,500.2531794,0.09062789888852,0.06813585665716,0.036431976631220005
1001,500.7531794,-0.013658937543000002,0.05727468197516,-0.11065204583686
1002,501.2531794,0.0637376305858,-0.06783042570140001,0.0025289797091079995
1003,501.7531794,0.05202124592560001,0.03171610044254,0.0010995568049400007
1004,502.2531794,0.023652684571246002,-0.04059807374214,-0.1129977634755
1005,502.7531794,0.022113304730399998,0.01799607653678,-0.28512724326579997
1006,503.2531794,0.22909873142399997,-0.021074836448800004,0.0732549054133
1007,503.7531794,-0.09874018162800001,-0.0538782746764,-0.061819514660800004
1008,504.2531794,-0.1920681056402,-0.02063501324462,0.4190410181904
1009,504.7531794,0.059376060889800006,0.10666920813240001,0.18332052201592003
1010,505.2531794,-0.122075218130034,0.0742567234444,0.04878366047517999
1011,505.7531794,-0.0096638824609,0.0266337035588,-0.1915549759616
1012,506.2531794,-0.1020999378558,-0.0433836170634,-0.04312705417264
1013,506.7531794,0.0018936815960999998,0.032302529536340004,-0.016688825631739998
1014,507.2531794,-0.072155348085248,-0.018301508773668,0.0306776291592
1015,507.7531794,0.0005375598017339945,0.0265603987044,-0.15740764061856
1016,508.2531794,-0.0701761457127,-0.011276563630059999,-0.005461131079099999
1017,508.7531794,0.036712973782059996,-0.0501764335534,-0.051471465441259995
1018,509.2531794,0.10894162399228,0.108966059095328,0.05199681036438
1019,509.7531794,1.292186710228,-0.7302033244138001,-0.20523834509758
1020,510.2531794,-0.6789395394732,-0.02714684072399999,0.6339188109898
1021,510.7531794,-0.08432377539480002,0.22427289776839998,-0.39911460773312
1022,511.2531794,0.807893102442,-0.909113394629,0.9200234374580001
1023,511.75297939999996,-0.3933724877272,0.2983219219912,-0.37487549334599995
1024,512.2531794,-0.1215376535072,0.11877654809119999,-0.2756344062826
1025,512.7531794,0.258249196147068,-0.12147657024200001,0.201060031435
1026,513.2531794,-0.02116035629452,-0.04951670003602002,-0.3013151617364
1027,513.7531794,0.31029487040299203,-0.44368330369372005,-0.51150151342
1028,514.2531794,-0.717680606423,0.37415467604600006,1.012349548408
1029,514.7531794,0.20096229760994,0.60810366424398,0.037397143096540006
1030,515.2529794,-0.20675329298040002,0.1381776143812,-0.22647200704140003
1031,515.7531794,0.17178739455071998,-0.28748518009714,-0.11357197779694
1032,516.2531794,0.016041309613200005,0.046828891335999996,0.09953430769725999
1033,516.7531794,-0.21982579845976002,0.10356601552880002,0.24853644293056798
1034,517.2531794,0.14881887791440002,-0.1085140174226,-0.19153054304127998
1035,517.7531794,0.005119047723800004,-0.0596692705224,0.022919646696760006
1036,518.2531794,-0.1508469488112,0.06345663485778,0.10318727870344001
1037,518.7531794,0.031309871821600006,-0.34891069098919997,0.416936591268
1038,519.2531794,0.07181937218462,0.3223105808014,0.23004251412403998
1039,519.7531794,0.1493381125496,0.1060766685474,-0.08880751976460001
1040,520.2531794,-0.18767598513644,-0.01288313880884,-0.39092902675060004
1041,520.7531794,0.039956667521,0.00649349333686,0.06794954369594
1042,521.2531794,-0.0530413896262,-0.1611522366103,-0.14701071845786
1043,521.7531794,-0.022986843286199994,0.1883845905392,0.08127250544879999
1044,522.2531794,0.058710215427298,-0.19593487645238197,-0.17270063576668002
1045,522.7531794,-0.06049393794616,0.14022401038736,0.0318168937254
1046,523.2531794,0.32242054148936,-0.19615478780168,-0.7038628378652
1047,523.7531794,-0.141848910460842,0.15966172770866,0.021099268817279998
1048,524.2529794,-0.0577694825478,-0.003439169174840002,0.6091696289218
1049,524.7531794,-0.11833061460434,-0.057390749021860005,-0.088694510811412
1050,525.2531794,0.19391902200560002,-0.18281350781356,0.048252208492439996
1051,525.7531794,0.0359005254682,0.1011042277746,-0.067127930332
1052,526.2531794,0.012089014635359996,-0.14326611622892,0.21138059491
1053,526.7531794,-0.0758632971748,0.14303398789714,-0.07457132083182
1054,527.2531794,0.022925755847000004,0.005296198099219998,0.023057091595200002
1055,527.7531794,0.003109301351199998,-0.048520990260899996,-0.0412883495894
1056,528.2531794,0.0110138929372,0.0522594818566,0.11578636419445999
1057,528.7531794,0.04850877205064,0.048459903112000005,-0.03389994008858
1058,529.2531794,-0.0537255576231,0.010769548380000002,-0.013927717689540002
1059,529.7531794,-0.21627667607151999,0.1511218390622,-0.04338361479200001
1060,530.2531794,-0.014556910421200006,0.009584469238200001,0.024816378612400002
1061,530.7531794,0.133663321317076,-0.060933762785600004,0.11898424213134
1062,531.2529794,-0.093016380653604,-0.027201808600999997,-0.0239642267534
1063,531.7531794,0.155654452299,0.11389573710214,0.10433264632878
1064,532.2529794,-0.03190546949726,-0.02000582088198,-0.11360863275659999
1065,532.7531794,0.07921083609716,0.06503877441316,-0.13331513048086
1066,533.2531794,-0.10854456276136,-0.13666877599824,0.06437292820944
1067,533.7531794,-0.050365802381,0.0467861336895,-0.09943046073058
1068,534.2531794,0.0550572440056,-0.03153894966048,0.1088866468568
1069,534.7531794,0.008374956209658,0.13534931039434,-0.07275094101983999
1070,535.2531794,0.015326598434399999,-0.14501318923344,0.019923354591600006
1071,535.7531794,0.031538947523,0.26741827677238,-0.057454886685320006
1072,536.2531794,0.061165890983599994,-0.14277742564760001,0.06900328597398
1073,536.7531794,0.12525782250374,0.2836428427038,0.004474584491431999
1074,537.2529794,-0.09677930851917999,-0.25433355215153997,-0.12537083413612002
1075,537.7531794,-0.021325288204799998,0.18063882121754002,-0.259214358481
1076,538.2531794,-0.06998677730240001,-0.3230314037184,0.028738136075000004
1077,538.7531794,0.030842564140697998,0.14689465344206,-0.12888941460311998
1078,539.2529794,0.080847955201658,-0.28893293191362,0.18481408438184002
1079,539.7531794,0.07352979393436,0.0410684380804,-0.02168264617392
1080,540.2531794,-0.13600904332660002,0.0022540910513599998,0.40513162553599996
1081,540.7529794,-0.021264201325879997,0.34942076399980004,0.20983815948578
1082,541.2531794,0.10063997746218,-0.0697668601118,-0.10739613474000001
1083,541.7531794,0.06064054567162,0.09053626909740001,-0.27614447735639996
1084,542.2531794,0.0739696167299,-0.17084055351326,0.1687300141084
1085,542.7531794,-0.12459808850462001,0.041422741805097994,-0.0565263729148
1086,543.2531794,0.12076185771680001,0.03377470935675999,0.33147050156318003
1087,543.7531794,0.039956666347,0.0313801161372,-0.21513130024397997
1088,544.2529794,-0.06790983865546,-0.2484448146014,-0.01568395327988
1089,544.7531794,0.09561866314180001,-0.10024901722799999,-0.0473420203252
1090,545.2531794,-0.0421924319232,0.0324430335858,0.173485597524
1091,545.7531794,-0.084604772888,0.21113013970010003,-0.0929278050424
1092,546.2531794,-0.0322047937814,-0.018719955427999986,0.10546885793119999
1093,546.7529794,0.0037201649333999964,0.10728618269184001,0.002406803834459992
1094,547.2531794,0.04310872989740001,-0.0267986394272,0.14118917066242
1095,547.7529794,0.015876377355996004,0.015717549567000003,-0.17733099356436
1096,548.2531794,0.0871276432626,-0.09332181329441999,0.058933179470800005
1097,548.7531794,-0.0017531817543999927,0.1648662883812,0.03507891244837599
1098,549.2529794,0.0193583070568,-0.1252456071788,0.09352339782302
1099,549.7531794,0.006249143054799991,0.07471486639257599,-0.22649644005142
1100,550.2531794,-0.006713398992960002,-0.1299126140154,0.1491640181452
1101,550.7531794,0.04367072065699999,0.08293711141620001,-0.0471037816946
1102,551.2531794,0.042778858376400004,-0.3250716935476,-0.2531790176084
1103,551.7529794,-0.024966043293639998,0.21733958127320002,0.181738379447
1104,552.2531794,0.2274554993164,0.0867122540981,0.16940502057914
1105,552.7531794,-0.05089114349440001,-0.0461630516366,-0.1129397374194
1106,553.2531794,0.41418464926548,0.5184470453102,-0.74347436745414
1107,553.7531794,-0.35011714998640003,-0.24052799883000003,-0.20911734116765998
1108,554.2531794,-0.144096893043404,-0.37038564365607995,0.5225154087654
1109,554.7531794,0.3020909579572,0.117841924266,0.11204787199572
1110,555.2531794,-0.047177086860240004,-0.06325504949593999,0.0439792085835
1111,555.7531794,0.17538538615446,-0.05502059012879999,-0.0156228687694
1112,556.2531794,0.061092589865600004,0.0718804583566,0.019391901869799996
1113,556.7531794,0.14095704830400002,-0.0998580697594,0.08478192206579999
1114,557.2529794,-0.17323514053746,0.2304731731496,0.15822008723418
1115,557.7531794,-0.288835193016,0.125685428884,-0.15884316892308
1116,558.2531794,0.17719354830334003,-0.17500665541494,0.0638445328046
1117,558.7531794,-0.0944946726006,0.23285554809842002,0.072164513253
1118,559.2531794,-0.04782460257980001,-0.08486744403564,-0.16694017985
1119,559.7529794,-0.037354379614180006,-0.10739613308840001,0.18633513810651997
1120,560.2531794,-0.037317725705400005,0.0858448264394,0.0220247262
1121,560.7483754784314,0.07201916355552941,-0.27452083484660783,-0.04235928048445098
1122,561.2529794,0.3129521335716,0.08926566958080001,-0.09456492279709199
1123,561.7531794,0.13410314333582002,-0.0123822295348,0.177611989414
1124,562.2529794,-0.17603290356603998,0.09847751151608,-0.14710845349186
1125,562.7531794,-0.282909803115442,-0.039785623992599994,0.085206472689
1126,563.2529794,-0.2903623549536,-0.055741413601799995,-0.17711413419340002
1127,563.7531794,0.6753415538937201,0.13161081793414,0.1487058667126
1128,564.2531794,-0.06352382982518,-0.23650851998740002,-0.17931935629112
1129,564.7531794,-0.1043051585686,0.05095223359559999,0.1820407580122
1130,565.2531794,0.14316837791326,0.10206939548220001,-0.06774796055400001
1131,565.7531794,-0.047189305423799996,-0.10713957320335998,0.04185950891186001
1132,566.2531794,-0.1077748738464,0.09828203304040001,-0.06445234029108
1133,566.7531794,0.018820745260236,-0.043805111248180005,0.11085363004950001
1134,567.2531794,-0.018881830325442,-0.003964510491800009,-0.09741460833342
1135,567.7531794,-0.10595449539160001,-0.0823384639154,0.16505566268502
1136,568.2531794,-0.0806280350516,0.04738477992264,-0.06452870071478001
1137,568.7531794,0.2913733387764,-0.07779973980971999,-0.0360226950126
1138,569.2527794,-0.049571675451720004,0.04775130076019999,0.058056588656659996
1139,569.7531794,0.0310991260824,-0.054898419044703994,0.0804936538718
1140,570.2531794,-0.184902659403,0.09225890814600002,-0.148110272663
1141,570.7531794,0.25176792485676,0.029413138335,0.09735046543037999
1142,571.2531794,0.015094469509600006,0.0751913473488,-0.030198099203988003
1143,571.7529794,-0.0009834936377600024,-0.12210576456272001,0.013154971086800001
1144,572.2531794,-0.1323438534784,-0.04060418332250201,-0.0683435513462
1145,572.7531794,-0.030512698122599997,0.11368804611526001,0.0451948326836
1146,573.2531794,0.056682141547759995,-0.129240660492,0.056819584368800004
1147,573.7531794,-0.056755444863160004,-0.019113960567320003,-0.04631882230212
1148,574.2531794,-0.15833004449758,-0.082179637606,-0.0387502087702
1149,574.7531794,0.1051970236138,0.06795870818906,0.07938798716538001
1150,575.2531794,-0.14646704600490001,0.005296192772400006,0.0018814651324000008
1151,575.7531794,-0.08863037222919999,0.0621066183678,-0.01267238858636
1152,576.2531794,-0.060994847319800004,-0.10729839478370201,-0.19786826037862
1153,576.7531794,-0.1189048304364,0.129362832165,-0.12109172706659999
1154,577.2531794,0.15018110459682,-0.0836823658764,0.18354043001371997
1155,577.7531794,-0.1332479348684,0.07437584017744,-0.22145986103961998
1156,578.2531794,0.09147700172119999,-0.06349939319275999,0.15077058949626
1157,578.7531794,-0.13622895525026,0.030610433610839996,-0.12836712549718002
1158,579.2531794,0.1597350300818,-0.15316212672238,0.1447230278966
1159,579.7531794,-0.00802065575768,0.17137811271564002,-0.06198750471225999
1160,580.2531794,0.041911430963860005,-0.1577313941388,0.03331656343419999
1161,580.7529794,0.008045089815097998,0.17836640513378,0.07190795084280001
1162,581.2531794,-0.03059821690018,-0.039467973190140004,0.0907286897643
1163,581.7531794,-0.07838005880554,-0.014666859960902001,0.0326690491432
1164,582.2531794,0.08853263652088,0.022058321038240004,-0.069620263856
1165,582.7531794,5.4974256180002625e-05,0.0049174603376,-0.007977896700999994
1166,583.2531794,0.023903138527200003,-0.024868307161599993,-0.11504416073308
1167,583.7531794,-0.066272719595596,0.0423756880322,0.33467143151038004
1168,584.2531794,0.12777458456048,0.047665777107478,-0.26300477630519997
1169,584.7531794,-0.057720610811180004,-0.01415373617374,0.10154405097824
1170,585.2531794,0.1489593764224,0.21984412508683998,-0.0409187752418
1171,585.7531794,-0.10550245389360001,-0.30002623200684003,0.049800750426799996
1172,586.2531794,-0.02670089955078,0.11170884316948002,-0.135257679878512
1173,586.7531794,0.08186198832176,-0.024184136377760002,0.151815171049
1174,587.2531794,-0.0677021443806,0.0007513647695999964,-0.1020877235954
1175,587.7531794,-0.05184408857732001,-0.10628436329079999,0.025937313059599988
1176,588.2531794,-0.2038883380838,-0.012394443413780003,-0.13519353850534
1177,588.7529794,0.2511326176848,-0.0164139350084,0.09469015003426
1178,589.2529794,-0.14123804213342,0.039113674841099996,-0.1417328462074
1179,589.7531794,0.0342389708458,-0.14333941897114,0.06021294069138
1180,590.2531794,-0.06666367459660001,0.0749958634474,-0.03235750735296
1181,590.7531794,0.08613804282354,0.0063102338639999984,0.1001635003512
1182,591.2531794,-0.07940631534216,0.145685143941698,0.013060286189799996
1183,591.7529794,0.04286438174188,-0.10354768883360001,-0.07273872633386
1184,592.2531794,0.023292269836879997,0.014153732653999994,-0.03775143922606
1185,592.7531794,0.14325390157022,0.03691455904988,0.06874061325308001
1186,593.2531794,-0.1610300643784,-0.06557633621896,-0.12422546028780002
1187,593.7531794,0.09489784121420002,0.020176865096399998,0.14282323928974
1188,594.2531794,-0.13467735643099998,-0.05400655471543999,-0.08168789507428001
1189,594.7531794,0.1362900464616,0.0866511718498,-0.12041672127200002
1190,595.2531794,-0.121702588026,0.027067417218800002,0.13878847760894
1191,595.7531794,-0.053701121353779996,-0.08128777593700001,-0.12695602482794002
1192,596.2531794,0.036364782103100006,0.07769588934776,0.28966902510304
1193,596.7531794,0.037012295912999996,0.0313923414438,-0.08706350250542
1194,597.2531794,0.046749485055800004,-0.0710008136208,0.1156489202344
1195,597.7531794,-0.12651620357782,0.1289352267668,-0.18153679312922003
1196,598.2531794,0.0479345582248,-0.17676594010500002,0.19642967963493999
1197,598.7531794,-0.036205952913199994,0.06733562553546,-0.14152209848813999
1198,599.2531794,0.04553996797359999,-0.20866530075578202,-0.24197269988622
1199,599.7531794,0.061715668811000005,0.22223871534579998,0.13726132058282
1200,600.2531794,0.02979187547902,-0.1123930127812,0.045353655054260006
1201,600.7531794,-0.11702336236058,0.15476259148402,-0.05864912700905999
1202,601.2531794,0.13940545085166,-0.07750041386760399,0.08836159352459999
1203,601.7531794,-0.0991861132698,0.011673623096799996,0.03830427507319999
1204,602.2531794,0.1028635215024,0.011759147026,0.13576164673462
1205,602.7531794,-0.13675429821857998,-0.08293710943111998,-0.14909071005520003
1206,603.2531794,0.23066865101200001,0.13092664186617997,0.2660926976752
1207,603.7531794,-0.140126270709422,-0.18167729744167999,-0.38308857180960004
1208,604.2531794,0.10965633750460001,0.004208860460499997,0.0964769308606
1209,604.7531794,-0.07040216719858,0.04602866082405999,0.045466664664600004
1210,605.2531794,-0.037268860541640005,-0.040579748716,-0.05752818819080001
1211,605.7531794,0.016609414589819998,-0.093676112341082,0.1394115602149
1212,606.2531794,0.0614102370264,0.13406649288984002,-0.15026968583119998
1213,606.7529794,-0.060274028493799994,-0.1516838256338,0.0726287682384
1214,607.2531794,-0.00988990126298,0.13510496679779999,-0.027855434030719998
1215,607.7531794,-0.019492695630999996,-0.042216869462400004,0.11974171356260001
1216,608.2531794,-0.021447461918000003,0.011074978072098006,-0.36015365608319994
1217,608.7531794,0.07351757366646,-0.04500240941324,0.1820774140009
1218,609.2531794,-0.078538884676,0.13181851477731998,-0.031823002531019995
1219,609.7531794,-0.028191408628,-0.154176165087,0.03285536255024799
1220,610.2531794,-0.04475806154461999,0.18267911089324,-0.06951946633112
1221,610.7531794,0.13174520587534,-0.09547205632172,0.029031348074200002
1222,611.2529794,-0.048362167734999996,0.08001717694426,-0.046050042645588
1223,611.7531794,-0.020384554340000003,-0.15512911192179998,0.212635924969
1224,612.2531794,0.0025473044419800045,0.22035724941352,-0.17206533749919997
1225,612.7531794,0.1227532729516,-0.13228276521602,0.06404000856120001
1226,613.2531794,-0.12575873276682,-0.010097596287599996,-0.061550734257639995
1227,613.7531794,0.09646165615664,-0.10852012668368,0.0450940408293
1228,614.2531794,0.014275910931399993,0.1073594853682,0.08931453922666
1229,614.7531794,0.0250760011116,-0.14092039851781998,-0.14264303469046
1230,615.2531794,-0.0127976184639,0.056877618953260003,0.2577788242628
1231,615.7531794,0.034666576554,0.007287618222000003,0.0945038359708
1232,616.2531794,-0.0170125868854,0.0640247391872,-0.10621411490996
1233,616.7531794,0.002034179427700001,0.038747154693,0.0346543602542
1234,617.2527794,-0.017403537717999996,-0.037769770361640004,0.11584439672998
1235,617.7531794,-0.021142031434780006,-0.09945489256512,-0.22501509576208
1236,618.2531794,-0.0013011437233199908,0.11125680125799599,0.13687646935558
1237,618.7531794,-0.10888664852673599,-0.06628493367958,-0.010638208475
1238,619.2531794,-0.0677265765354,0.004550941293659998,-0.108697278943
1239,619.7531794,0.034776528625,-0.0768162451612,-0.004618136059999999
1240,620.2531794,-0.07298001714079999,0.10037119500599999,-0.12403914748096
1241,620.7531794,0.061532404861,-0.21083998218320002,0.058560552392599996
1242,621.2531794,0.07675516100928,0.1273469803054,0.1030070729596
1243,621.7531794,0.04117839357882,-0.057329660325000004,0.026957461937399993
1244,622.2531794,-0.0657229388666,0.16988760067977998,-0.08005688492419999
1245,622.7531794,0.08908240925303999,-0.047384781040000004,-0.025653263777199994
1246,623.2531794,-0.06844739816555999,-0.10553910776438,-0.16340632887999998
1247,623.7531794,0.07818458316236,-0.08312037023260001,0.19323485434914
1248,624.2531794,0.025723516907358003,0.2109132818682,0.24243695981526803
1249,624.7531794,-0.05858804091514,-0.13340676106176,-0.2311115260092
1250,625.2531794,-0.023145665820159998,-0.006591231209139998,0.2405371690606
1251,625.7531794,0.0543364230158,0.1803700425848,0.0049296864823999975
1252,626.2531794,0.1987326426832,0.09253990543202001,-0.3177138217844
1253,626.7529794,0.12187363529326,-0.1292650956854,-0.2826379672074
1254,627.2531794,-0.1868940798618,-0.17953926820698002,0.31653790959842
1255,627.7531794,-0.05983420456182,0.011649191443239998,0.21281307262426
1256,628.2531794,0.5394852237432,0.23328315224338003,-0.4280482238086
1257,628.7531794,-0.046957175225300005,-0.32000151441374003,-0.230415139646
1258,629.2531794,-0.20738248594164202,0.1083979539454,0.062189086726719994
1259,629.7531794,0.010122030419320003,-0.1016906615477,0.41054083988039997
1260,630.2531794,0.050426883150279996,-0.030121740562599992,-0.027604979015599992
1261,630.7531794,0.03820959000426,-0.07702394016552,0.050491028920699996
1262,631.2531794,0.037024514695659996,0.149020463134398,0.01638950104596
1263,631.7531794,0.023756531883776,-0.007715221641999998,-0.035136941841732
1264,632.2531794,-0.0009224061803400001,0.024245223428244,0.01155756184982
1265,632.7531794,0.009792162431516,-0.03973675422226,0.007877101356964001
1266,633.2531794,0.006249146669155999,-0.006957749855159999,-0.0065118185209680005
1267,633.7531794,-0.013848304533160001,-0.015717550599884,-0.0096974783153
1268,634.2531794,0.011453715045439999,0.0210320744396,0.00057421295008
1269,634.7531794,0.004636463742228,0.011539235550154,-0.00216856990978
1270,635.2531794,0.00142331496339,-0.005137372431316,0.0006108648838799999
1271,635.7531794,-0.004269944718986,-0.00037262760346199977,-0.00350636384432
1272,636.2531794,-0.004111119960004,0.01777005668648,0.002541197530312
1273,636.7531794,-0.03116021227058,0.075594516067296,0.005589412581119999
1274,637.2531794,0.008594867247412,-0.02522260749376,0.019892811599708002
1275,637.7531794,-0.07646194434879999,0.13968645092254,0.040683594458492005
1276,638.2531794,0.04784903754868,-0.03141677568099999,0.21656072833206
1277,638.7531794,-0.12371844368926199,0.1531254728188,-0.046749481672951995
1278,639.2531794,-0.100346756687382,-0.0469327408814,0.1256609947172
1279,639.7531794,0.0024251318398980006,0.15220918040280002,-0.33873062857472
1280,640.2531794,0.14387698190922,-0.162899310741,-0.329170593764
1281,640.7531794,0.0475802579932,-0.12712706962382,-0.0582154151236
1282,641.2531794,0.10497711341596,0.062387623524217985,0.2585485171394
1283,641.7531794,0.0211420302236,-0.010952807144999998,0.11327265652679999
1284,642.2531794,-0.2250975626324,0.2697517758056,0.666899405744
1285,642.7531794,-0.0249782609946,0.016132939366320004,-0.5682691742464
1286,643.2531794,0.07296779878682,-0.11919804274796,0.17896200009000002
1287,643.7531794,-0.0552405015592,0.1175364960546,-0.012974768407899993
1288,644.2531794,0.06260753166958,-0.02409861549979999,-0.0589698320604
1289,644.7531794,-0.39992706636568004,-0.09079283309188,-0.512210123536
1290,645.2529794,-0.0384783721958,0.3253893411924,0.48752812738819995
1291,645.7531794,0.36856526639580006,0.34498588456039997,0.048246098218020006
1292,646.2531794,-0.11825731300448,0.117023362747618,0.005510000570235999
1293,646.7531794,0.0059681475478000024,-0.0748614785574,-0.06612000447140001
1294,647.2531794,0.18550130725119998,-0.2281763191108,-0.0259403729124
1295,647.7531794,-0.089607755970164,-0.08468418610524,0.02162461149246
1296,648.2531794,-0.08875254288340001,0.10738391924982,-0.047042697137580004
1297,648.7531794,0.05829482445558,-0.206600577215404,0.01669798821632
1298,649.2531794,-0.027458371675541996,0.24614796426266,0.04337445333804
1299,649.7531794,0.04725038815890001,-0.07362753253952,0.03878991330626
1300,650.2531794,0.0329195053462,0.099222765280538,-0.0353843466394
1301,650.7531794,0.033310456980400006,-0.09060957342513999,0.015650355275779997
1302,651.2531794,-0.015424335986099998,-0.036438084322600005,-0.06778155747999999
1303,651.7531794,-0.04996263028996,0.0441105451596,-0.03419315657668
1304,652.2531794,0.0242696568592,-0.1324415915374,0.10471444192468
1305,652.7531794,0.04519788332944,0.25964807654772,-0.04938230968554
1306,653.2531794,-0.076620769231382,-0.16377895585084,0.009773837410199998
1307,653.7531794,-0.038734933209200004,0.11897813141586001,0.08126945066198
1308,654.2531794,-0.05028027925654,-0.09889289838557999,0.03210399813184
1309,654.7531794,0.06937591458404,0.09473901901371999,-0.16772819876300002
1310,655.2531794,0.0045020736019399975,-0.0004337158727600021,0.14789952492272002
1311,655.7531793999999,-0.04423271992218,0.006566794576578002,-0.10630879587804
1312,656.2529794000001,0.022412629179115996,0.030378304832599998,0.049370091149400004
1313,656.7531793999999,0.004172206003578004,0.002217439928799998,-0.18971933023281198
1314,657.2531793999999,0.0353018749864,0.034886488555400004,-0.04640128789856
1315,657.7531793999999,0.01831983540654,-0.08026152437292,-0.027293438307640003
1316,658.2531793999999,-0.06732340546926001,0.04968163296884,-0.039006769793599995
1317,658.7531793999999,0.010073159785399995,-0.10767713295863998,0.27471200063053997
1318,659.2531793999999,0.13809819710218,0.19378463245736,-0.14489712770583998
1319,659.7531793999999,-0.1936258104528,-0.158720996824,-0.010595450763559998
1320,660.2531793999999,0.0732976656318,0.1651472918896,0.0440677829236
1321,660.7531793999999,-0.0255066562656,-0.11102467219581999,0.021972805217000006
1322,661.2531793999999,-0.0427544265612,0.07658411867352,-0.06676141214416001
1323,661.7531793999999,0.0791253210148,-0.26156619385962,0.03235750609156
1324,662.2531793999999,0.021239766620359996,0.0429865549488,-0.1597044865792
1325,662.7531793999999,-0.09472680450801998,-0.25758335157407997,0.01739437338432
1326,663.2531793999999,0.3901654434154,-0.142533078533042,0.034406958280479995
1327,663.7531793999999,-0.0909272217766,0.046370748403016,0.0283563447572
1328,664.2531793999999,0.20976485999800001,0.6742175685185999,-0.40875711172240003
1329,664.7531793999999,0.0760587722694,-0.3625299242536,0.08389311473448
1330,665.2531793999999,-0.5299923960556,-0.28951936774779996,0.2013960080958
1331,665.7531793999999,0.2558607096296,-0.08133664486316,-0.0620699707314
1332,666.2531793999999,-0.13093886484911998,-0.07328544860651999,0.13015390362554002
1333,666.7531793999999,0.26774813662054003,0.22666137599643998,0.13623811511294
1334,667.2531793999999,-0.06525868038364,0.0997847572608,-0.015360193553199994
1335,667.7531793999999,-0.11636363210942,-0.1421299090252,-0.015231913592419993
1336,668.2531793999999,-0.14591727237472,0.11296722194264,0.11873989339959999
1337,668.7531793999999,0.12073742481074,0.1448054917128,0.13037381508212
1338,669.2531793999999,-0.033921319755803994,-0.09262542714968001,-0.152972757442
1339,669.7531793999999,0.0431575947304,0.0580993500448,0.021270315591599996
1340,670.2531793999999,-0.11740210003599999,-0.10590562386308001,0.008778127053479997
1341,670.7531793999999,0.1025092183758,0.015351032087760003,-0.1440755131708
1342,671.2531793999999,0.14407245546380001,0.22259302209419998,0.33790596300398
1343,671.7531793999999,-0.012321143512240002,-0.17258762587979998,-0.1604925052218
1344,672.2531793999999,-0.011148286423399994,-0.2006874035098,-0.07161473269659999
1345,672.7531793999999,0.030879215631199997,0.12699267554406,-0.18007682666320002
1346,673.2531793999999,-0.012467751090599997,-0.19553171014659998,0.027711878155799997
1347,673.7531793999999,-0.06033511464238,0.1881768931024,0.03150534886435999
1348,674.2531793999999,-0.15665627097024,-0.2079322610128,0.047082402023480005
1349,674.7531793999999,0.08513622582316,0.276129208625196,0.06737533180942
1350,675.2531793999999,-0.020873251813019994,-0.2459647054088,0.05445248497282
1351,675.7531793999999,-0.032259767618579994,0.05957764056348999,-0.10830937973422
1352,676.2531793999999,0.005711589003800004,-0.34426505470659996,0.013726136005460013
1353,676.7531793999999,0.033212716602779996,0.33996457840879996,-0.08277217588278
1354,677.2531793999999,-0.12072520704772,-0.11980890860392,-0.0578458390798
1355,677.7529794000001,-0.0729311454056,0.08370680400059999,0.08678861377920001
1356,678.2529794000001,-0.023487749772199997,-0.11224640203215999,0.1096899349942
1357,678.7531793999999,-0.08812946274918,0.29940315209324003,0.0441471989298
1358,679.2531793999999,0.04849655336860001,-0.2423606004916,-0.14998562864496
1359,679.7531793999999,-0.09750928981904,-0.07993471102404,-0.1034194015686
1360,680.2531793999999,0.15478702667782002,0.006285799158760005,0.1900553040898
1361,680.7531793999999,-0.0753623867844,0.003695734187560001,0.028472406378199998
1362,681.2529794000001,0.019211697622474,0.0636460004788,-0.027940956196400003
1363,681.7531793999999,0.0011056671681400033,0.05447081201746,0.16229455372634
1364,682.2531793999999,0.053811077442200005,0.053420122783000006,-0.1354714809716
1365,682.7531793999999,0.04966940741482001,-0.04571100909899999,0.1927675517762
1366,683.2531793999999,-0.07699950261619999,0.0759976859698,-0.280017359854
1367,683.7531793999999,-0.06034732762780001,-0.128825271022,0.12872753380266
1368,684.2531793999999,0.034251189975818,0.21561693981001803,0.033463173948619994
1369,684.7531793999999,0.13553256795528001,-0.22892157484647999,0.007159333209819997
1370,685.2531793999999,-0.10847125839272,0.053322384831800004,-0.1406424511956
1371,685.7531793999999,0.04660287651256,-0.1273469800458,0.1432386285865
1372,686.2529794000001,-0.146357091633,0.13333345304535998,-0.22637732605820002
1373,686.7529794000001,0.08839824364894001,-0.071501723907004,0.2537410112572
1374,687.2531793999999,-0.168870515073,0.08131221033594001,-0.22817937497580001
1375,687.7531793999999,0.0733404277662,-0.147572713736,0.023307547769959996
1376,688.2531793999999,-0.12953387336822,0.10417077341656,-0.17388876701248002
1377,688.7531793999999,0.02390314015424,-0.13996744620218,0.15647912633720001
1378,689.2529794000001,-0.06045728676456,0.0327362410888,-0.08328835822130001
1379,689.7531793999999,0.134237536072,-0.03482540067024,0.020241003307979996
1380,690.2531793999999,-0.0536033829176,0.078160149759,0.1286114690116
1381,690.7529794000001,-0.007202097916600004,-0.01483790723002,-0.039003713121172
1382,691.2531793999999,-0.029852961789220003,-0.020555600299200002,-0.012162317149812
1383,691.7531793999999,0.09653496162896,0.13962536191928,-0.19195815014904
1384,692.2531793999999,0.0787099279144,-0.21116984275658002,0.1879844732966
1385,692.7531793999999,-0.12118946175344,0.11453103549426,-0.28123909085964
1386,693.2531793999999,-0.06847183097304,-0.20514672066706002,0.13540428552592
1387,693.7531793999999,0.0601396377808,0.23257455064205998,-0.11671182638934001
1388,694.2531793999999,-0.051624182845939996,-0.19755977707312,0.07719498119818
1389,694.7529794000001,-0.01640171870972,0.26531690131956,-0.11162026621014
1390,695.2531793999999,0.16618576366260002,-0.11368804302721999,0.19958784740600002
1391,695.7531793999999,-0.23019217502708,0.0758022114582,-0.48463873474362
1392,696.2531793999999,0.2065761430538,-0.18598999515272,0.05594910659
1393,696.7531793999999,-0.076975071483004,0.05300473688922001,-0.1768056480004
1394,697.2531793999999,-0.013445132146200002,-0.0905729204444,0.2257908916478
1395,697.7531793999999,0.010537416743599998,0.11999216810938,-0.2967458906069
1396,698.2529794000001,-0.0222049369954,-0.07704837610736,0.216643194127812
1397,698.7531793999999,0.04412276115362,0.021325289289559998,-0.4121260348692
1398,699.2531793999999,0.004587595736380007,-0.0687406171764,0.234437685461
1399,699.7531793999999,-0.0329683712208,-0.03899149686688,-0.17089553040022
1400,700.2531793999999,-0.032577420190604,-0.046590658970599996,0.1119256977778
1401,700.7531793999999,0.0791741846426,0.19355250763573997,-0.171084897707
1402,701.2529794000001,0.0810678626544,-0.004941898345400003,0.35411220488379996
1403,701.7531793999999,-0.1351782666638,-0.13219724874342,-0.32832454614740003
1404,702.2531793999999,0.03243081284998,0.0747393044678,0.19272478572733998
1405,702.7531793999999,-0.045332275774779995,-0.12812888852398,-0.17269147476251998
1406,703.2531793999999,0.035350745124519994,0.2664653298628,-0.05192656130600001
1407,703.7531793999999,0.11400569303144,-0.17471343648166202,0.08588453371528
1408,704.2531793999999,0.035301877116180005,0.13007143955040001,-0.361799934855212
1409,704.7531793999999,0.025210391205399998,-0.06692023855414,0.3192654218363
1410,705.2531793999999,0.083474670723978,0.2002353636848,0.52303769522034
1411,705.7531793999999,0.0173790982448,0.17591072844976,1.018687271916
1412,706.2531793999999,-0.14011405920645997,-0.201738092405182,-0.6889302357260201
1413,706.7531793999999,-0.033970188531600005,-0.022461500705999997,-0.0998580700918
1414,707.2531793999999,-0.09748791180039999,0.2165210190554,1.2282505542004
1415,707.7531793999999,0.15598432162944,-0.532484716954,-0.8353300931378
1416,708.2531793999999,-0.124756914292992,-0.15004671661942,0.6072515118058
1417,708.7531793999999,0.0246117424172,0.41088598053058,0.71501722156
1418,709.2531793999999,-0.0014355331700999984,0.10230152851860001,-0.188839684199548
1419,709.7531793999999,-0.1796492179446,-0.05572919320398,-0.0028649578569999996
1420,710.2531793999999,-0.1047327685322,0.15075531784526,0.018860449538139992
1421,710.7531793999999,0.024697262718400004,-0.27830388370448,-0.17408729889500002
1422,711.2531793999999,0.095679751750258,0.260698761648,0.1834396389828
1423,711.7531793999999,0.021813982758399998,-0.2703504265234,-0.09121738002918
1424,712.2531793999999,0.006945533654280016,0.29202390823896,-0.0887708689696
1425,712.7531793999999,-0.0315022984098,-0.1503521503854,0.131708555818
1426,713.2531793999999,-0.090120874874224,-0.1600160251606,-0.20642341994080002
1427,713.7529794000001,-0.1694722141172,0.07208815265726,-0.2548680588588
1428,714.2531793999999,0.04240012253000001,-0.29429632229499997,0.17595043633260002
1429,714.7531793999999,-0.135483700056,0.19964893801240002,0.03128544445
1430,715.2531793999999,-0.1569983609524,-0.0591133895292,0.22515864874339997
1431,715.7531793999999,0.1055391102242,-0.1245980888982,-0.1728105897088
1432,716.2531793999999,0.056963140221,0.21393095431300002,0.38911475493786
1433,716.7531793999999,-0.0348987042752,-0.2217744593358,0.10531614240322
1434,717.2531793999999,-0.01553429144998,0.16327804802786003,0.3982716215384
1435,717.7531793999999,0.09676708997607801,-0.0412394817112,0.11889872055558
1436,718.2531793999999,0.004648681659200003,-0.05374999251538,-0.0566393833972
1437,718.7531793999999,0.124463700594,-0.244339801875,0.48250987124719996
1438,719.2531793999999,-0.1436204200746,0.1493381121624,-0.04923264746299999
1439,719.7531793999999,-0.1933692481402,0.1279822801378,0.24961156491708
1440,720.2531793999999,0.1629237475684,0.0510621887932,-0.1498023708874
1441,720.7531793999999,-0.009034689319,-0.10983959341782,0.2021779184564
1442,721.2531793999999,-0.1663568086602,-0.02295019226016,0.21863460988644
1443,721.7531793999999,0.1917443445775,0.0948489736396,0.10626603784462
1444,722.2531793999999,-0.04148382555570399,-0.033090543533403995,-0.21169213572974
1445,722.7531793999999,-0.06412247542279999,-0.14355933279232,0.19383961182339998
1446,723.2531793999999,0.028692321180400004,0.08403666846001999,0.0040958482083999995
1447,723.7531793999999,-0.12456143444540001,0.0209832048342,0.12712706709256
1448,724.2529794000001,0.42709832799659997,-0.133431190133562,0.03097389919
1449,724.7531793999999,-0.1694844333372,-0.06010298518740001,0.05524660828400001
1450,725.2531793999999,0.048826420558879986,-0.0035857756801999925,-0.1269987888202
1451,725.7529794000001,-0.00028710379095999437,0.16322917751302002,0.27506630097706003
1452,726.2531793999999,-0.13200177098344,0.014837904002460003,-0.21337200994654001
1453,726.7531793999999,-0.037537640791884,-0.04525897004259999,0.028619016636812
1454,727.2531793999999,0.02075107546900001,0.1560698413222,-0.10425934913459999
1455,727.7531793999999,0.0500603695936,-0.084513139570702,0.1204167203564
1456,728.2531793999999,0.11435999617260001,0.3584371235924,-0.8260968753686799
1457,728.7531793999999,1.2330733082028,-1.096471732854,-2.3314051472840003
1458,729.2531793999999,-1.4317021095851998,0.805810058694,2.0802083766446002
1459,729.7531793999999,-0.32567034602440004,0.29669091365379996,1.199927798286
1460,730.2531793999999,0.29683752324,-0.1362778184862,-0.5987788229102
1461,730.7529794000001,0.25956255495979996,-0.08828828425039999,-0.5082272839681999
1462,731.2531793999999,0.07537460466022,0.14870281137498,-0.2032224982114
1463,731.7529794000001,0.36860191498719996,0.1529910846416,-0.7199774476764
1464,732.2529794000001,0.18199494566359997,-0.286758250336,-0.590278634990588
1465,732.7531793999999,-0.1306456511508,-0.02125198645474601,-0.015015054682000005
1466,733.2531793999999,0.5134013026628,-0.5672307092512,-0.34693149194984
1467,733.7531793999999,0.38350701944340004,-0.004819721400000004,-0.075618951918
1468,734.2529794000001,-0.05142870562952,-0.051098841865,0.0134787324786
1469,734.7531793999999,-0.059638729019200004,-0.1354959173618,0.563913708319
1470,735.2531793999999,-0.35543167032120004,0.2238391822402,-0.13992773767140002
1471,735.7531793999999,0.305743933802,0.030036222188159996,-0.27243041740344
1472,736.2531793999999,-0.18087095077872,-0.31882865198574,0.1987601257782
1473,736.7531793999999,-0.22635594417734,0.32859026887439996,-0.11712415907538
1474,737.2531793999999,0.013946044609840001,-0.15531236430436,-0.27212498735518
1475,737.7531793999999,-0.069436999807,0.05039023503938,-0.20517115269240002
1476,738.2531793999999,0.07054876950773799,-0.04319424790802,0.10808947039115999
1477,738.7531793999999,-0.09454354161638,0.032760677784800005,-0.11000758496484
1478,739.2531793999999,-0.009828814447959999,-0.0728089725212,0.04237568938398001
1479,739.7531793999999,0.10954638185787999,0.23702164256004,0.08121447488560002
1480,740.2531793999999,0.018955139113459998,-0.15497028078,0.039593201493460004
1481,740.7529794000001,-0.0912570868206,-0.03287063449442,-0.27428134028
1482,741.2531793999999,-0.06834966171266,-0.0370856024498,0.12855343819971998
1483,741.7531793999999,-0.1127717465884,-0.0514164833168,-0.150309384631
1484,742.2531793999999,-0.013665045754399998,0.0282280598984,0.24379918477898
1485,742.7531793999999,0.053786642173,0.10682192207117999,-0.032870631916812
1486,743.2531793999999,0.0901330990342,-0.0392236301574,0.02921460912362
1487,743.7531793999999,0.1161315044332,0.10162957424058,0.1101205947278
1488,744.2531793999999,-0.14612496358142,0.11509303582314001,-0.09192598478696
1489,744.7529794000001,0.0502191936912,-0.190009490803,0.0561018205076
1490,745.2531793999999,-0.021948370963128003,0.156057626355,-0.021120648022720002
1491,745.7529794000001,-0.03047604286218001,-0.35785070013320003,-0.1838855654268
1492,746.2531793999999,0.14081044101064,0.19850051140400002,0.2216492280466
1493,746.7531793999999,-0.006310233344799987,0.019346089729400006,-0.03951074222
1494,747.2529794000001,-0.043157596551,0.093248509021,0.21317348123719998
1495,747.7531793999999,0.097781122804,-0.19795073491484,0.18438648178
1496,748.2529794000001,-0.37414857537319995,-0.03433672266600003,-0.552288947735
1497,748.7531793999999,0.09900285284346,-0.1331013272296,0.30284842926919997
1498,749.2531793999999,0.08232624932618,0.354319897293,-0.11656216120826
1499,749.7531793999999,-0.059162251491460004,-0.2689943076786,0.004810561047400005
1500,750.2531793999999,0.006249146303440001,0.3859627003002,0.09996496384124001
1501,750.7531793999999,-0.040164353411999996,-0.2382678090336,0.14596308515
1502,751.2531793999999,0.005699368664680007,0.09945489543246001,-0.1844231279736
1503,751.7531793999999,-0.07064651080142,-0.21396760681299998,0.07275704740259999
1504,752.2531793999999,0.006273579893800001,0.20899516595058,-0.09286366200498
1505,752.7531793999999,-0.24273933844919998,-0.39159486741638,-0.07175217374204
1506,753.2531793999999,0.03769646400166,0.23890310647277999,0.0845436876242
1507,753.7531793999999,0.04764134365198,-0.15512911003660002,-0.045313949903179995
1508,754.2531793999999,0.028814492330399996,0.17754784993782,-0.09690147943333999
1509,754.7531793999999,-0.046505137255208,-0.202422261975,0.15438080012686
1510,755.2531793999999,-0.00315817279698,0.208665303795618,0.0013316856663999988
1511,755.7531793999999,0.016914847533599998,-0.21807261860302,-0.06994401814178
1512,756.2531793999999,-0.03470322666805999,0.15128066405726,-0.08228959269988
1513,756.7531793999999,0.1838031061006,-0.0404209238446,0.17189124121212
1514,757.2529794000001,-0.0629862656424,0.1493991958358,-0.057525138299360006
1515,757.7531793999999,0.4878060680814,-0.3200503856531,0.07838005856936
1516,758.2531793999999,-0.47885080075360004,0.15989385953659999,-0.1468244072494
1517,758.7531793999999,-0.044538151409200005,0.02558912351840001,0.15328124590808
1518,759.2531793999999,-0.016328412407401998,0.09978475987077999,-0.1375270408862
1519,759.7531793999999,0.028069237128420008,-0.30341042830799997,0.16210518209019997
1520,760.2531793999999,0.03134347115662,0.41153349756060004,-0.19857991844800002
1521,760.7531793999999,-0.08380453601004,-0.32298253824998,0.042784969183720004
1522,761.2531793999999,0.030903651847200005,0.1601870725306,-0.14311950734391998
1523,761.7531793999999,-0.08281493574981999,-0.1405050072036,0.23483169354480002
1524,762.2531793999999,0.0886059373992,0.21052232853580002,0.01504254648116
1525,762.7531793999999,-0.04616305207364,-0.1596128538306,-0.11780832692700001
1526,763.2531793999999,-0.060078551734,0.10974185195782,-0.037021458603000004
1527,763.7531793999999,0.08992540378621999,-0.16717536401514,-0.011982113055400001
1528,764.2531793999999,0.0458209649856,0.17245323771002,0.059409653890219995
1529,764.7531793999999,0.009718858273279998,-0.1433516361188,0.034608543491108
1530,765.2531793999999,-0.093236288482722,0.0933095970046,-0.09249714704182
1531,765.7531793999999,0.0818619858482,-0.10705405522434001,0.0376017833528
1532,766.2531793999999,0.18607552188460003,0.412706359402,0.3622886300834
1533,766.7531793999999,-0.19912359228225998,-0.2684933950538,0.08826385338755999
1534,767.2529794000001,0.07818458221736,0.079662875733098,-0.37220296099260003
1535,767.7531793999999,0.015961896268692,-0.06423243452644,0.0979338406434
1536,768.2531793999999,-0.012211183155620002,0.14051722499560002,0.09009949729983999
1537,768.7531793999999,-0.050634580623799996,0.10531919752286001,-0.09959539531197999
1538,769.2531793999999,-0.09989471946268001,-0.3310948177668,-0.33714543209168
1539,769.7529794000001,-0.05652332045490199,-0.0866633872522,0.0863060307496
1540,770.2531793999999,0.0904996157416,0.18239810967864004,0.3108629799836
1541,770.7531793999999,-0.04148382701460001,0.033090543278879996,-0.07157197212374
1542,771.2531793999999,0.18776150902634,0.5178484009406,0.25661208099419996
1543,771.7531793999999,-0.01469129182080001,-0.3356885166154,-0.254965791468
1544,772.2531793999999,-0.002009747039800003,-0.07599768458759999,-0.035344635556999994
1545,772.7531793999999,-0.12407274413572,-0.0533101677792,-0.1375362112204
1546,773.2531793999999,0.012883140075760002,-0.08056695751434,0.07827621414859999
1547,773.7531793999999,-0.03714668912548,0.12045642301079999,-0.1316596851526
1548,774.2531793999999,0.06919264967422001,-0.01882074361606,0.04705186097728
1549,774.7531793999999,-0.038502806387999994,0.01079397902272,-0.04151436995359999
1550,775.2531793999999,0.0449779729866,-0.0526015652376,0.11530989070422
1551,775.7531793999999,-0.0018020518872799976,0.13916110439224,-0.054938125272320004
1552,776.2531793999999,0.018942918846839997,-0.1072861818336,0.07841976381419999
1553,776.7531793999999,0.01720806164226,0.16062689209685999,-0.0018081593298000032
1554,777.2529794000001,-0.10513593925296,-0.18383975312499998,-0.005455021122939997
1555,777.7531793999999,0.0194193936162,0.12348631635400001,-0.14388308490614
1556,778.2531793999999,0.0638536963998,-0.09279646671860001,0.167022647783
1557,778.7529794000001,0.09360281240299999,0.25509102264444,-0.11275647574312
1558,779.2531793999999,-0.09569196789899999,-0.18746829001436002,-0.07325184912786001
1559,779.7531793999999,-0.048789767119360006,0.1440846752172,-0.0754020912788
1560,780.2531793999999,-0.0008979722211600028,-0.19840276935881998,-0.03443139170060001
1561,780.7531793999999,0.10489159111508001,0.18947193080412,0.011163554519080004
1562,781.2531793999999,-0.2185613093598,-0.174505742636,0.05508778658486
1563,781.7531793999999,0.07079311821815999,0.12443926551518,-0.05753429670178
1564,782.2531793999999,0.14599057354042,-0.0459797985342,0.109014926481
1565,782.7531793999999,-0.05440972655774,0.1467602601049,-0.13078004047726
1566,783.2531793999999,0.03439779774498,-0.03612043282907999,0.2085248014786
1567,783.7531793999999,-0.019590432615760003,0.17797545407377802,-0.16687298809245998
1568,784.2531793999999,-0.022375978493800002,-0.16167758165479998,0.0307600929566
1569,784.7531793999999,-0.0984897279486,0.05244274271724,-0.018793256037399998
1570,785.2531793999999,0.1116355376048,-0.054324203492302,-0.0663063150572
1571,785.7531793999999,-0.059064514403,0.07232028064022,-0.0774057287982
1572,786.2531793999999,0.16138436344682,-0.143217246755,0.1568456407646
1573,786.7531793999999,-0.070744251294742,0.0991005964614,0.03175275073866
1574,787.2531793999999,-0.042497863845200004,-0.02248593258896,0.06196306939226
1575,787.7531793999999,0.059479902794400005,0.021386376547000006,-0.03951684083844
1576,788.2531793999999,0.05724413829985999,0.04604087911939999,-0.10308953936704
1577,788.7531793999999,0.007812959663000002,0.057940523701,0.203100320121436
1578,789.2531793999999,0.07688954766640001,0.05913781876898,-0.060567243401399996
1579,789.7531793999999,-0.128446539349906,-0.1106581555094,-0.0503596928695
1580,790.2531793999999,0.09772003947842,0.1080436536256,0.0198347780784
1581,790.7531793999999,-0.066346022484,0.010317507078600005,0.25076915923334
1582,791.2531793999999,0.27206084529686,0.04715265235944,0.29790653413720003
1583,791.7531793999999,-0.12355961433500001,-0.18605108409100002,-0.32006565011896
1584,792.2531793999999,0.12766462774,-0.07246688601644,-0.13972005023428
1585,792.7531793999999,-0.1629359587558,-0.020433424635800005,0.021985022043399992
1586,793.2531793999999,-0.05902786353076001,-0.021899504242840005,-0.04932427588399999
1587,793.7531793999999,-0.08914349746260002,0.13800046229112004,-0.0819750025514
1588,794.2531793999999,-0.03334710835226,-0.134310840027506,-0.0020616672948000057
1589,794.7531793999999,-0.052797043286700006,0.017171411145818,-0.078236505791
1590,795.2531793999999,0.0822040691752,-0.0729433619916,0.061602661309199995
1591,795.7531793999999,0.141861126002,0.477152582712,0.6011947932207999
1592,796.2531793999999,-0.1176464510672,-0.25914716589819997,-0.2928516280222
1593,796.7529794000001,-0.18675968997759998,-0.07594882019319998,-0.33446374134199996
1594,797.2531793999999,0.049339548204199994,0.04618748358066,0.30904260169958
1595,797.7531793999999,-0.05189296017262,0.05041467390439999,-0.12055111242774
1596,798.2485715568628,0.1627984579439216,-0.03471448866,-0.03303161120784313
1597,798.7531793999999,-0.11859939646321999,-0.012321143845620003,0.036706864197140004
1598,799.2531793999999,0.078343406563,-0.0043554649326800025,-0.045875942304399994
1599,799.7531793999999,-0.08516065815054001,-0.06641932906036,0.03380525593238
