Time_interval,Time,Acceleration_x,Acceleration_y,Acceleration_z
0,0.264239489,-0.03110188848731915,0.006596290042127657,-0.2211706689204468
1,0.749239489,0.2782471132214,-0.23426603898419998,-0.18708175660320003
2,1.249239489,-0.4616326403588,-0.1084349596486,-0.1494049644502
3,1.749239489,0.44406500219100004,-0.2540283268702,0.0622764778362
4,2.249239489,0.5644901227977001,-0.04563206046156,-0.49564191821610004
5,2.7492394890000003,-0.03641983434844,-0.1671417638698,0.5073693465832
6,3.2492394890000003,-0.09233367502382,-0.13712926626973998,-0.46822367669922005
7,3.7492394890000003,0.05883792424576001,-0.04355643481274,0.17139370919898
8,4.249239489000001,0.22736165047370002,-0.1331961616972,-0.1325844288228
9,4.749239489000001,-0.04581904549642,-0.047209466999,-0.33345691683059997
10,5.249239489000001,-0.23476709007286,-0.17261937200900002,0.2489498996874
11,5.749239489000001,-5.325838598000177e-05,0.03345272459286,0.1332034302116
12,6.249239489000001,-0.18490514932918,-0.11275734811478,0.10601027487640001
13,6.749239489000001,0.048758805239259996,-0.0777730172093,-0.2112719249642
14,7.249239489000001,-0.33951359971659995,-0.056491357082,-0.08594924930617999
15,7.749239489000001,0.3942116367792,-0.07200093425867,0.1171616935744
16,8.249239489,0.1223330058372,0.0711571697772,-0.038221254344599984
17,8.749239489,-0.19121720938058,-0.0929215800746,0.21376110078019997
18,9.249239489,0.1144758836946,-0.29695221394,-0.3801161003088
19,9.749239489,0.1537641310784,0.18173441824960002,-0.283510847063
20,10.24923949,0.1154035216332,0.16875143169446002,0.3503036308132
21,10.74923949,0.23416519491436,0.060427260702300006,0.016582822766499996
22,11.24923949,-0.126338369276,0.06397924990228,-0.1793277454442
23,11.74923949,-0.088737192121,0.008008642803599995,-0.1048845100208
24,12.24923949,0.21363266200202,0.1590081812412,-0.012525024449600014
25,12.74923949,0.1309420663092,-0.08595160655985999,0.1776645660724
26,13.24923949,0.32564723566174003,-0.0005210959881799993,-0.011583137470800007
27,13.74923949,-0.32811163843832,0.09652686834081999,0.1391691588788
28,14.24923949,-0.3688626097231264,-0.011652044053440003,0.01766185758940001
29,14.74923949,-1.258900381896,0.04154503941826,0.07641958230099999
30,15.24923949,-0.6427290022901999,-0.6077777105628,0.241033172614
31,15.74923949,0.0380185222256,0.01707874089582,-0.22249958041080004
32,16.24923949,-0.1686044876258,-0.291494454152,0.06257360454540001
33,16.74923949,0.5971272513352,0.10254391431624,-0.29669030188620005
34,17.24923949,0.1747472512744,0.015751728712,0.13452859880304
35,17.74923949,0.41994603991380003,-0.0854433798828,-0.13808198930234
36,18.24923949,0.3607223242488,0.030377316479379995,0.0418469238294
37,18.74923949,0.08124523786800002,-0.012444002625199997,-0.0347059059094
38,19.24923949,-0.5188858254212,0.0007192325584000017,-0.2264644908762
39,19.74447986,-0.13777679316553193,-0.0031149330348936135,0.12011881081106383
40,20.26594176042553,0.2581893979138298,-0.04203808434546808,0.1451158320490213
41,20.75423949,0.3971444550212,0.0649409818628,0.009699440013600005
42,21.25423949,-0.38760836175716,-0.029082198146360004,-0.1461481285146
43,21.75423949,-0.197401807120388,0.0645818579227,-0.1924506950352
44,22.25423949,9.198248099999029e-05,-0.04511776507318,0.1194303989448
45,22.75423949,0.1502013402396,-0.004542344212340003,-0.08156127931846
46,23.25423949,0.08049848335266599,-0.15343773603086,0.1328871345504
47,23.75423949,-0.11212728428154,0.05866519718976,-0.035574340817720006
48,24.25423949,0.2070064528104,-0.14213559001550402,-0.05436001779179999
49,24.75423949,-0.17805346407359998,-0.039732596429079996,-0.022027416240199996
50,25.25423949,0.07294710428839998,-0.016050469873599996,0.16977434159840002
51,25.75423949,-0.3166467773142,-0.017070465678999995,-0.050126476259200005
52,26.25423949,-0.00911720216624,0.0332846534254,-0.014859733588600006
53,26.75423949,-0.25315288305172,-0.07051866351892,-0.015629711149799993
54,27.25423949,0.04808537364764,-0.00273866057032,0.0015921211298400007
55,27.75423949,-0.42511297270340004,-0.17814835742248,-0.1172455787494
56,28.25423949,-0.059232424942200004,-0.06460694990902,0.010960435838599993
57,28.75423949,0.014549257464799997,-0.1872015365966906,-0.24842712397959998
58,29.25423949,-0.0013599073796799989,0.014939841027399998,-0.0572665786838
59,29.75423949,0.29244285046522,-0.15278658643802,0.5008850956043
60,30.25423949,-0.03396757959618,0.0893434856072,-0.33087841035618
61,30.75423949,0.047267076373,-0.15397502392950602,0.02624529840699999
62,31.25423949,-0.049032477438519996,0.079388802048,0.07304759979756
63,31.75423949,0.3061728918548,-0.047085466367799984,-0.09731058118199998
64,32.25423949,-0.6970379346266,-0.12471277862748,0.049581756590400004
65,32.75423949,0.02936418665146,0.06596697091648,-0.0853888321088
66,33.25423949,0.3004560566074,-0.041903577745599996,-0.03566475870199998
67,33.75423949,-0.0503106006868,-0.104107738718784,0.19321900369699999
68,34.25423949,-0.05732019007676001,-0.12470319086699998,-0.09960700038032001
69,34.75423949,0.2458520782754,0.06233405948568001,-0.056064605718799995
70,35.2542394792,0.174280009344,0.07112177908132,-0.017830305088199997
71,35.754239309999996,0.23393228233279997,-0.2077019599092,0.01957505223
72,36.254239309999996,-0.02505804650739999,0.10102356612304,0.1768824958596
73,36.754239309999996,-0.28587591245664,-0.1705077844856,-0.1995919418366
74,37.254239309999996,-0.41421054392304,-0.023050490623799998,0.2311631202868
75,37.754239309999996,-0.571422440408,-0.1512112528132,-0.12437280658299998
76,38.254239309999996,0.0515473571414,-0.005458062881619997,0.042947692898199996
77,38.754239309999996,0.2686913377056,0.09118121921778,0.07372276307016
78,39.254239309999996,0.6617790910419601,-0.0533943650076,0.08968862531602001
79,39.754239309999996,0.0901420318936,0.15906425861806,-0.004379253361000002
80,40.254239309999996,0.3739293760129,-0.0369905111128,-0.22019302367760002
81,40.754239309999996,-0.13817135036494,-0.07006852268786,0.07756439206964
82,41.25423931,-0.159903074425,0.01686053827392,-0.1699852562106
83,41.75423931,-0.17813986241660001,-0.21103316023714,-0.0033992767215999973
84,42.25423931,0.31905080765054,-0.017010463169799997,-0.0448554230156
85,42.75423931,-0.029069605898445997,-0.0004770265428399995,0.065931825627
86,43.25423931,0.043230375796199996,-0.080286797875,-0.0691200447206
87,43.75423931,-0.21058479756979998,-0.020240075002359997,0.0755692100296
88,44.25423931,-0.1410126969262,0.025775182550299997,-0.019124126473399995
89,44.75423931,0.016234472683,-0.05358405411486,0.1690367316972
90,45.25423931,-0.052286191881626,0.07227175683294,-0.1584206008924
91,45.75423931,0.12143784478168,-0.023100072740399998,0.13776012420226
92,46.25423931,-0.28983476073212,0.0698251129692,0.026265983599999997
93,46.75423931,0.06018677651080001,-0.1214543405152,0.1670824241226
94,47.25423931,-0.058081604243999996,0.0425650236006,-0.15895670893400002
95,47.75423931,0.355083471241,-0.10541124671560001,0.055315380140000016
96,48.25423931,-0.283896375314,-0.07718550086220001,0.12699426651584
97,48.75423931,0.13118264548699998,-0.09091945707245999,-0.158378353114
98,49.25423931,-0.500426938804,-0.1260676938288,0.1044485282584
99,49.75423931,0.2679573738566,-0.0353692597213,-0.6677938747836
100,50.25423931,-0.6774484282752,-0.09029517875359999,0.5755225753727999
101,50.75423931,-0.5148002997112,-0.11629929095644,-0.4147292232624
102,51.25423931,-1.1284876936233998,-0.2363288956856,0.1723634719572
103,51.75423931,0.19702358782659998,-0.027524062973200012,0.1278893852046
104,52.25423931,0.5669831764534,-0.02587536037396,0.00913239479580001
105,52.75423931,0.2062545248964,-0.019169659621840005,-0.0926087570108
106,53.25423931,0.2029400384318,-0.1070557001318,0.0196701240774
107,53.75423931,0.29399238793620003,-0.10700769961476,-0.037352161409799994
108,54.25423931,0.35353043438480003,-0.08694553313440002,0.2350189018028
109,54.75423931,0.21162769719767,-0.22729448139300001,-0.067568864836
110,55.25423931,0.0815538775896,-0.1536103698588,0.11398433684518
111,55.75423931,-0.33718823495480005,-0.231671401851398,0.1957516479246
112,56.25423931,0.004496146458599997,0.2010872793048,-0.6544834042002
113,56.75423931,0.7391520226149799,-0.2899876475336,0.2714781474618
114,57.25423931,-1.0714850795239999,0.126420394485548,0.03652462004192
115,57.75423931,0.41661642585342,-0.08650452850315002,-0.44643618587859996
116,58.25423931,-1.2250605758814,0.0828542077742,0.6112003516822
117,58.75423931,-0.36770854206804005,-0.4629799461176,-0.18078058241306
118,59.25423931,-0.19968855171629202,-0.10209140418139999,-0.13298997878592
119,59.75423931,-0.53418372544282,-0.1329511392115,0.040696735410139996
120,60.25423931,0.2416681043608,-0.1060262557992,-0.196990203886
121,60.74404015152174,0.4232741490691304,0.10435903653130435,0.15566568792804347
122,61.26363068375,0.18413722080895834,0.13355973362372917,-0.05093206959766667
123,61.75423931,-0.8447639769254001,-0.0224821847654,0.2020932960386
124,62.25423931,0.44187375486344005,-0.1517565187932,-0.1569166183644
125,62.75423931,-0.13037991760440001,-0.0681407224442,0.4042267227076
126,63.25423931,0.7554310363078,-0.09817105427299999,-0.23699364659720001
127,63.75423931,-0.3010446023948,-0.13372999131142,0.408359889977
128,64.25423931,1.156375128042,-0.1833512184782,-0.32376072886681995
129,64.75423931,0.1519542729752,-0.10354124523692,0.0236945724122
130,65.25423931,0.1488735824804,-0.12825132623578,0.1155991935638
131,65.75423931,0.5355153083816799,-0.04344122436848,-0.1465977287534
132,66.25423931,0.57306810855052,0.00011506877628000386,-0.0384345436016
133,66.75423931,0.26670640408497,0.03672758095066,0.00012949946160000446
134,67.25423931,-0.35625153661299996,0.09733189016246001,0.13828957559000002
135,67.75423931,-0.12255313634812,0.029372294403,-0.23386196135906
136,68.25423931,-0.36296451983620004,0.10285911545734,0.30865098951000003
137,68.75423931,0.32923034072439994,0.0172135679396,-0.02013322828419999
138,69.25423931,-0.032359043349779994,0.13705760001964,-0.04580458642620001
139,69.75423931,1.0468342065824,-0.0817967584698,0.07555025099822
140,70.25423931,-0.27119023802504,0.04291542365007601,0.3441940116878
141,70.74538775291667,-0.9599561958227083,-0.08117838080402083,-0.3521261115629167
142,71.25267736065217,0.20062619735847825,-0.45202913620693475,0.18447069496826088
143,71.74923931000001,0.7519228756226001,0.026994707879592,0.11057376861939999
144,72.24923931000001,0.2062114262506,0.16906480952848,0.36056784630315397
145,72.74923931000001,0.8436131274196,0.014588133090600005,-0.1374007702266
146,73.24923931000001,0.1111470818592,0.046249837572580006,-0.062998914676
147,73.74923931000001,-0.30633432031360003,0.08844743087899999,0.08431823729139999
148,74.24923931000001,-0.1200038534362,-0.2272840645934,0.012749214172780004
149,74.74923931000001,0.2833034208494,0.0724770852816,-0.043879318269820014
150,75.24923931000001,-0.23153016865296,-0.30955213427126,0.0462722015598
151,75.74923931000001,0.29125415440200003,0.0363636463666,-0.083318910557
152,76.24923931000001,-0.23165355322220002,-0.1884368869652,0.3317284202386
153,76.74923931000001,0.44379359126639994,-0.1321660184744,-0.4733993815934
154,77.24923931000001,-0.3594004970836,-0.06664505243248,0.1315217590396
155,77.74923931000001,0.04012794019035999,-0.024103221006399996,-0.23223245624619998
156,78.24923931000001,-0.668892491745,-0.2775324765639,0.37555082321428
157,78.74923931000001,0.004413070080186004,-0.193595304487,-0.4697521590872
158,79.24923931000001,-0.648799702228,-0.005518629559400001,0.365789022394
159,79.74923931000001,0.08695805729012002,-0.009421806928319999,-0.3073145771206
160,80.24923931000001,-0.09889166362259999,-0.08712871074898,0.28652175903386
161,80.74923931000001,0.42471996642500004,0.0282534790026,-0.2367491913036
162,81.24923931000001,-0.6268571665684,-0.09977422833864001,0.2387390327594
163,81.74923931000001,0.40453143824132,0.00853139877680001,-0.2870529746874
164,82.24923931,-0.542066399151,-0.16160250246684002,0.19434749604379997
165,82.74923931,0.10338222118484,0.029613323208800005,-0.1762796592618
166,83.24923931,-0.66503677323356,-0.26206261038998396,-0.04771587374180001
167,83.74923931,-0.6955798813459999,0.0642922961774,0.027940864563880004
168,84.24923931,-0.86533730093204,-0.29618580341796,0.1477907181044
169,84.74923931,0.54286959542244,-0.09261239051792,-0.16504419326324002
170,85.24923931,0.5454303002504,-0.0029782517243999982,0.040332508099800005
171,85.74923931,-0.32552466630472,-0.06538857952232,-0.156820049282
172,86.24923931,-0.07489098848514,-0.161538042768642,0.07911994936280001
173,86.74923931,0.02407705962551,-0.019833648203,0.02393747329552
174,87.24923931,-0.1375587290634,-0.1367777276812,-0.035376338976919997
175,87.74923931,-0.0618227240396,-0.035101176286992004,0.07666309356380001
176,88.24923931,0.26702415467574,-0.10643447220218,-0.1450591754896
177,88.74923931,-0.08011799827762,-0.173205601757628,0.11245328904179999
178,89.24923931,-0.16490607648379998,-0.08242020160121999,-0.04022133831020001
179,89.74923931,-0.1293907462012,-0.07627598255692,0.16870766640180002
180,90.24923931,-0.14438877135128,-0.047974508397612005,-0.058429985032399996
181,90.74923931,0.015266896186599996,-0.19775201708529,-0.0031067466490000005
182,91.24923931,0.0493325656672,0.0037351448857999986,-0.15484270094840002
183,91.74923931,0.11007565379454,0.027156029860600003,0.10754989624240001
184,92.24923931,-0.1024364322394,-0.044742977881800004,0.259405937189364
185,92.74923931,0.30331957429713996,0.08007031485735601,-0.16826913837159999
186,93.24923931,-0.28669098734980003,0.12639194309299998,0.10183746338800001
187,93.74923931,-0.19229775950376002,-0.1182421800552,-0.010152492490700004
188,94.24923931,0.12308560371719998,-0.04659518908478,-0.025852470415599987
189,94.73732290555554,0.12915121813444447,-0.09573332319064445,0.04861348466377777
190,95.249239334,-0.027806514796679994,-0.15761294916305998,-0.14637943269312
191,95.74923991,0.9014608984946,-0.055467860248,0.029044170381260007
192,96.24923991,1.010123831038,0.185962643774,0.03442676544296
193,96.74923991,0.46567145881632,-0.029886302498599998,-0.018754034052000018
194,97.24923991,0.3138870140668,0.1545832899508,-0.01540861133960001
195,97.74923991,-0.2946763035694,-0.004106645435080005,0.17822004317
196,98.24923991,0.431692699365086,0.08445020600917,-0.2555552578294
197,98.74923991,-0.55818393885216,-0.11422492786319999,0.052127399480199996
198,99.24923991,-0.015936556736818007,-0.062302985755,0.012366447444199999
199,99.74449311163266,-0.1113364142734694,-0.0008921566254897948,0.09888638285612246
200,100.25313796739131,0.15487494869091956,-0.12373419267913045,0.013469519830434776
201,100.75423989999999,-0.5246196040532,0.016720539123000002,-0.1347092055682
202,101.25423989999999,0.1116911321926,-0.18489067877642001,-0.03548656463576
203,101.75423989999999,-0.65714677035534,-0.1442588048788,0.036248359710000004
204,102.2485446375,0.11859844072208332,-0.01588980776625,-0.2223920822216875
205,102.76397002666666,-0.29012881585051115,-0.1444506022702,0.3269812689880222
206,103.24923989999999,0.21633039080508,0.04686464339582,-0.1861501407504
207,103.74923989999999,-0.2008063650094,-0.1042966403,0.06566022869031998
208,104.24923989999999,-0.05089135743658,-0.0357535916534,-0.0602722549554
209,104.74923989999999,-0.21652883979124,-0.13678647212766,0.1001089859436
210,105.24923989999999,-0.007926543772560015,-0.11319106428964,-0.4115853309572
211,105.74923989999999,-0.28077421844434,-0.0861344829226,0.5266919230714
212,106.24923989999999,0.06802246210898,-0.055390796059800004,0.22347835539840002
213,106.74476245957446,0.008220777709319149,-0.2784457878838319,-0.5530441466839362
214,107.2630645106383,-0.04099057456553191,0.07894451821582979,-0.046496594232978715
215,107.74923989999999,-0.11835457564474,0.01159363746546,0.0067278671082
216,108.24923989999999,0.10254146892091999,-0.069063137186,0.048992614757
217,108.74923989999999,0.1787120091594,-0.224050503333,0.08298072813652001
218,109.24923989999999,0.0544138102199,0.10869815482718,0.027676706358699996
219,109.74923989999999,-0.09621168495304,0.003711915615399999,0.08388804432380001
220,110.24923989999999,0.17393683932454,-0.018468948898399996,-0.12434816358044001
221,110.74923989999999,-0.4914619826946,0.0871943897022,-0.001866874719639997
222,111.24923989999999,-0.324614265270196,-0.188473929767,-0.0010081481686000026
223,111.74923989999999,0.008071534043800004,0.02617636971,0.20669960022161998
224,112.24923989999999,0.16459139180327997,-0.0107542390444,-0.14436697956726
225,112.74538231041667,-0.34100341424881253,-0.13830018773,-0.021347939958749996
226,113.26454139574467,0.03245335230042553,0.04128280916453191,0.06768153574970213
227,113.75423989999999,-0.04370291591720001,-0.15927955902758,-0.1749673271366
228,114.25423989999999,0.23098993123686,0.043502576054600006,0.1418503570702
229,114.75423989999999,-0.3975018841,-0.11142733096716001,-0.054186725638600004
230,115.25423989999999,-0.0460220962916,0.058619874569199995,0.09981292726600001
231,115.75423989999999,-0.265496771338,-0.08246366381572001,-0.24716159822619999
232,116.25423989999999,-0.20453056872645997,0.005801524598939999,0.2400598716454
233,116.75423989999999,-1.1244763428424,-0.31842964709120003,-0.110292110471
234,117.25423989999999,-0.64618762910544,-0.1341517001355,-0.1944789123388
235,117.75423989999999,0.7067338523056,-0.22149418190356,0.013670787812300005
236,118.25423989999999,0.3273605412472,-0.0355376372517,0.284235839867
237,118.75423989999999,-0.13901235400919998,-0.011732453404600003,-0.14435659407418
238,119.25423989999999,-0.300277366935,-0.11130188732726999,-0.05221975326679999
239,119.75423989999999,-0.3300692903996,-0.148230995986324,-0.14544734001640003
240,120.25423989999999,-0.2697661861368,-0.182050012184378,-0.0724675655052
241,120.74833473863636,0.5367833030818182,-0.06199965405749999,0.3793255632811363
242,121.24923989999999,0.3089808154188,-0.17709811106060003,0.16692811966488003
243,121.74923989999999,0.3107005870338,-0.0394128423984,-0.0051490402257999964
244,122.24923989999999,0.1190874350068,-0.15147552758479998,0.0973003196458
245,122.74923989999999,0.38072651387699996,0.020518487401799998,-0.2378485488694
246,123.24923989999999,0.2643142401848,-0.12901405053878,0.17996828080699998
247,123.74923989999999,-0.16586304544986,-0.083219756348,-0.1998805618384
248,124.24285196041666,-0.14550795408887499,-0.08000315306083333,0.15163864690941667
249,124.76032925531916,0.10393167365446808,-0.10972227099495743,-0.19851299039978723
250,125.25423989999999,0.17248441459886,-0.0983411440274694,0.1449059581654
251,125.75423989999999,0.1479615360462,0.001984354132199997,-0.136208963407
252,126.25423989999999,0.17614111780761998,-0.10483741208979999,0.2231837845006
253,126.75423989999999,0.5130890205612001,-0.10895566584748,-0.37845248219559996
254,127.25423989999999,-0.13322245240766,-0.10878189817680001,0.2643693351984
255,127.75423989999999,0.39682305841978,0.1789709667114,0.1115040779264
256,128.2542399,0.6684035825988001,-0.09539908052009999,0.016029090888999998
257,128.7542399,1.010390832444,0.11499469027336,0.388797359497
258,129.2542399,-0.38743894932799994,-0.19913098356273998,0.48305330275516
259,129.7542399,0.76299827815762,-0.11186408412234,-0.2766901207036
260,130.2542399,1.0001511955196,-0.1376400680782,0.19299290659799997
261,130.7542399,1.971606495286,-0.5495798359802,0.3999988079394
262,131.2542399,-0.6500077104595999,0.14103987266843998,0.15962628364582002
263,131.7542399,0.24284942522558,-0.46417830665860005,-0.22202507968000001
264,132.2542399,-0.4704600977888,-0.0659005498858,0.06115447997884
265,132.7542399,-0.32586653948185995,-0.061005424253600005,0.02556886673040001
266,133.2542399,-1.51079814672,-0.22631601452014,0.0923573684754
267,133.74490593958333,-0.8396497232041668,-0.36059977393772913,0.212115526174375
268,134.25399587173914,-0.9890469015852609,0.06775404772586957,0.024395279253043484
269,134.7542399,0.47805180938040004,-0.3202541989064,0.09948772431520002
270,135.2542399,-1.056962851892,-0.04002088517096,-0.0760051918074
271,135.7542399,-0.9945792627176,-0.435956950635,0.06575590133874001
272,136.2542399,-0.10281673282991999,-0.13111763179480002,-0.03681927683319999
273,136.7542399,0.11254035233900002,-0.13525259954500002,0.021192798629599992
274,137.2542399,-0.19269507400138,-0.09006864577622001,0.1261774635272
275,137.7542399,0.46888945937420007,-0.19147499143146,-0.100591688135
276,138.2542399,0.7077965939240001,0.06107757226,0.01778146745632
277,138.7542399,1.42133340118128,-0.0927081978282,0.38885152818644003
278,139.2542399,0.9763182199384,0.14107151835864,0.1083874129834
279,139.7542399,0.3475750709054,-0.1904098647684,0.3202058029188
280,140.2542399,0.9521921557080201,0.005927618751920007,0.24878778459000003
281,140.7542399,0.8404244840107999,-0.25644203454,0.31003879551662
282,141.2542399,0.891229017974,0.0307213541834,-0.32602665898926
283,141.7542399,1.211919896564,-0.3580006790212,0.5914640235699999
284,142.2542399,0.63267711402988,-0.43585624728280004,0.34331417084980004
285,142.74853835208333,-1.7343632678666667,-0.3945267403856875,-0.2467301686833333
286,143.26179601956522,0.5215868074934782,-0.704177835046739,-0.09670493918567392
287,143.7492399,0.05974079248933999,0.006771415620980001,-0.0014175224464000058
288,144.2492399,0.5134875464302,-0.4733823618478,0.08889121052280002
289,144.7492399,-0.472738659361,-0.23293673291642,-0.06011688231100001
290,145.2492399,-0.6258999064603,-0.4672416779404,0.032042331687899994
291,145.7492399,-0.2891789612242,-0.1761741252238,-0.295307931896
292,146.2492399,-0.2095835474134,-0.25182451709799997,0.400948829645
293,146.7492399,-0.4499611976722,-0.0761224126126,-0.3559367561564
294,147.2492399,-0.32708830445554,-0.3896001663124,0.16227417940978
295,147.7453324375,-0.16656609561837502,-0.06816945434564166,-0.47647650047020834
296,148.26324476170214,-0.5574391749344043,-0.389534790440566,0.29904635410531916
297,148.7542399,-0.4889336423588,-0.08071734755631998,-0.218642559013
298,149.2542399,0.5630744212802,-0.30517618178798,0.25972869872
299,149.74758338723404,-0.0793049119806383,-0.1895957731810851,-0.06284149654553192
300,150.26492705106384,-0.770910591357234,-0.1993360411412766,-0.03334349776170212
301,150.7542399,-0.6332416912887799,-0.11546688586826001,-0.2812953472314
302,151.2542399,-0.8911368805372,-0.28254215122078,0.32623447418300006
303,151.7542399,-0.3741826948772,-0.11617713689639998,0.022065744417999994
304,152.2542399,0.7761674821360001,-0.1299604431764,-0.0540258121612
305,152.7542399,0.6042834139084801,0.05114636629264,0.0908227157624
306,153.2542399,0.66188407066144,-0.0916284344682,0.17305806159599998
307,153.7542399,0.4018287944854,0.012696217969339998,-0.18606319429732
308,154.2542399,0.6236444782953999,-0.22207645088261999,0.24689104080020002
309,154.7542399,-0.016105585732199997,-0.005767261726639998,-0.24793193824314
310,155.254239864,-0.6128861561610001,-0.2427556729278,0.2010710239516
311,155.7542393,-0.21514106869787997,0.1088742852324,0.164179220181
312,156.25111460666668,-0.5458795785861779,-0.4229941328400222,0.011901134893266656
313,156.7542393,0.41998321757589996,0.14110424995292,-0.1611752891662
314,157.2542393,0.14451124682692001,-0.046658442020799995,0.0416218948374
315,157.7542393,0.34899258971974,-0.0085161781264,0.1547624206572
316,158.2542393,-0.269599257995,0.13587372034286,0.04553400046419998
317,158.7487700851064,0.031713661593574465,-0.11676166700734042,0.021030892732553205
318,159.2634389125,-0.7080384153485416,-0.020372163974876255,0.22994499403916666
319,159.7542393,-0.12433232902449999,0.06839317579194,-0.10479152677180002
320,160.2542393,-0.47188736914720003,-0.023208869545340002,0.018304729454400002
321,160.7542393,-0.1985449120317,-0.040935634374838,-0.05343236919259999
322,161.2542393,-0.4706159661678,-0.038097968772599994,0.09318195343186
323,161.7542393,0.209958932028388,-0.0433642014872,-0.13378517148212002
324,162.2542393,0.06726677775052,0.0512177124597329,-0.07758567810087999
325,162.7542393,0.5460327528382,-0.11110207706500001,-0.16558000563696
326,163.2542393,0.15461654729899998,0.2059290008248,0.11942823406620001
327,163.7542393,0.45534908653339995,-0.055125304762000005,-0.2836457919978
328,164.2542393,-0.25567195594684,-0.13379633069788,0.926520404768
329,164.7542393,-0.43501961647259996,-0.23274269876759998,-0.5206830692444
330,165.2542393,0.9873103386056821,-0.253828283554,-0.03717027667379999
331,165.7542393,1.1125002908968,0.008443625795400004,0.1091646766784
332,166.2542393,1.4715617036882,0.16701052590528,0.18629414557900004
333,166.7542393,0.2418573665364,0.20009594365920003,0.2727115440168
334,167.2542393,0.26315802457779996,-0.004842576388,-0.23347269057400002
335,167.7542393,0.45174689173529997,0.10631590933364,-0.2341960429836
336,168.2542393,0.25681584240362,-0.2191756838308,0.5898098945642
337,168.7542393,0.48609350322899997,-0.13246584474806,-0.3521451854752
338,169.2542393,-1.1372659551550002,-0.1304399597724,0.102597723057
339,169.7542393,-1.03120138296412,-0.2083701625522,0.15011937139632
340,170.2542393,-0.32621736050320005,0.147013493773,-0.4620084476542
341,170.7542393,-0.3532769636942,-0.060172619223999996,-0.22968971252400003
342,171.2542393,0.36065493463271997,-0.25351244443439996,0.4027705573639999
343,171.7542393,-0.59536340594152,-0.0670469283904,0.2911627674018
344,172.2542393,-0.87677184818306,-0.4784313383748,0.01962740897719998
345,172.7542393,0.5351404148162,-0.128516663209,-0.020335235600200004
346,173.2542393,-0.0008947348629999974,0.021948858789200002,-0.14731154443136718
347,173.7542393,0.9207605714002,-0.23479943234636,0.10253864285480001
348,174.2542393,-0.083068377985,-0.03864387773106,0.141554985095816
349,174.7542393,0.13430779814924002,-0.16788399157960002,-0.10287077904019998
350,175.2542393,-0.155991228804166,-0.252097309891,0.2153809070546
351,175.7542393,0.1365510788412,-0.0424942952466,-0.3659109783334
352,176.2542393,-0.6459644663558,-0.05475231841514,0.307086305632
353,176.7542393,-0.11532709606166,-0.207652015695,-0.12354385376020001
354,177.2542393,-0.5516169726998,0.016569247320880002,0.17057703014204
355,177.7542393,-0.29804165780946,-0.1097977669322,0.2059567641664
356,178.2542393,-0.3583007097264,-0.1929534649832,-0.110690603284
357,178.7542393,0.290466823573996,0.32071913841848,-0.06861680033279999
358,179.2542393,0.29751715421808,-0.11004625529018,0.4826187896676
359,179.7542393,0.21387040855184,0.020639383792399997,-0.2892669773036
360,180.2542393,-0.6587044966228,-0.023744939720399996,0.502865304956
361,180.7542393,0.4346257571474,-0.10489885882053601,-0.29661415098914
362,181.2542393,-0.3642503922057,-0.1346247124714,-0.1766770172348
363,181.7542393,0.156584496049,0.1215266084604,0.3343588829062
364,182.2542393,0.13069089599018,0.08278341457484001,0.19164692879460002
365,182.7542393,-0.4587323772938,-0.0783997699668,-0.2417529487864
366,183.2542393,0.1843490970386,-0.1606495237288,0.10861690521639998
367,183.7542393,0.6389573520574,0.012102935613497996,0.1261228752402
368,184.2542393,-0.39077098724099996,0.0324137370214,0.01323339466176001
369,184.7542393,0.19356791034166002,-0.0319317625062,0.006411485678799995
370,185.2542393,-0.34244575353602,0.09908017996296,0.052228050257399995
371,185.7542393,0.290533913825234,0.013524129913720002,-0.03711465835556
372,186.2542393,-0.21589716077668,-0.07150506899220002,-0.22278384202662
373,186.7542393,0.066675464213924,-0.15712582497289201,0.3407094955478
374,187.2542393,-0.1591121673438,-0.016209196003319996,0.2098364258036
375,187.7542393,0.050312793553366,0.0075435075190000015,-0.4660986137298
376,188.2542393,-0.20763554213913998,-0.2869324402544,0.37901277539966005
377,188.7542393,0.517756534811824,-0.132855482376,1.01905604363986
378,189.2542393,0.221256424135,-0.43156746191472,-1.1062758540367
379,189.7542393,0.5629189854628001,0.44857245534900003,-0.77934924131
380,190.2542393,-0.6685256618288,-0.27582527843779997,2.0305890179858
381,190.7542393,-0.26926450564816,0.014728878454999999,-1.3027259063704
382,191.2542393,0.57703070879324,-0.4615477466684,0.42026296618000003
383,191.7542393,0.3453937957248,0.0160818746618,-0.3472239494028
384,192.2542393,-0.7320467919378,0.0673092293826,0.38896342275500007
385,192.7542393,-0.07056900590968,-0.2233939617892,-0.3164380836584
386,193.2542393,-0.36614852608459997,-0.11834647000244,-0.06113274570646
387,193.7542393,-0.2363594187298,0.09241656779440001,0.20135475158199997
388,194.2542393,0.11471573590474002,-0.14340372143616,-0.040824213001360014
389,194.7542393,0.14099092114072,-0.113230860846,-0.1210564327026
390,195.2542393,-0.8201197433496,-0.14420275226499998,0.08716468810300002
391,195.7542393,0.60998151774938,-0.03466591645687599,-0.2419229030356
392,196.2542393,0.38478644669466,-0.060816942225453995,0.21840099333200003
393,196.7542393,0.28867787153972,0.12890761263712,-0.18747804642616
394,197.2542393,-0.15877436220649999,-0.16518032128846,0.17951916697319997
395,197.7542393,0.44124621167531797,-0.152563497414,-0.0004743290219999985
396,198.2542393,-0.23853713452994,0.05500674672834,-0.012796869322260002
397,198.7542393,0.37178186772259997,-0.09749171003518,0.12616981507236
398,199.2542393,-0.5045832538394,-0.035627125949200006,-0.10755407334500001
399,199.7542393,0.15576731525314,-0.1957479048604,-0.15333391189759998
400,200.2542393,-0.26699096784119997,-1.2042822399995767e-05,-0.1326776313708
401,200.7542393,0.3197829142562,-0.1071259443462,0.10036991121524
402,201.2542393,-0.20329907803539998,-0.049668005710200004,-0.023077392569130006
403,201.7542393,0.2487870645354,-0.0231026947863,0.12369306563980001
404,202.2542393,0.3601347017208,-0.0112663563956,-0.012225437182400007
405,202.7542393,0.026538895359400003,-0.007668145744200003,0.1442405700724
406,203.2542393,0.8148460363962,-0.3162272924376,0.22121938703760002
407,203.7542393,-0.9718204247692,-0.19816870212820198,-0.6146782874818001
408,204.2542393,-2.97458099844,-0.27790936205058,0.7409050369436
409,204.7542393,-2.48923897508,-0.0494321385074,0.25475871090546
410,205.2542393,-2.6804074573600003,-0.09993998407740001,0.5456035423360001
411,205.7542393,-1.828603743278,-0.7409559013025999,1.018200817092
412,206.2542393,-0.68294446702364,-1.6823624289216,0.450522794706
413,206.7542393,-0.18877059460848,-1.6172226048096,0.055853462245400005
414,207.2542393,-0.154987182621,-0.9741052484504,0.3033747004824
415,207.7542393,0.5732544207534,-1.133618438242,-0.5237348556477
416,208.2542393,0.8946331107528,-0.580859196201,0.4975949859752
417,208.7542393,0.772154424154,-0.42543753982122,-0.6296828269766
418,209.2542393,0.23201783954768002,-0.04503419757326,-0.01456315996979999
419,209.7542393,0.3514556348126,-0.68064365446764,0.282862243618
420,210.2542393,0.056486620388199994,0.0506722927114,-0.16380633354540003
421,210.7542393,0.587627700871,-0.177255489824,-0.09002681732474
422,211.2542393,0.60362117201044,0.20726896524459998,0.1739246749916
423,211.7542393,-0.0983666703132,0.223394219283316,-0.242316122091
424,212.2542393,0.3175793033852,0.2577834564342,0.08449549678400001
425,212.7542393,0.47143235922160004,0.434570955641,-0.01602744100159999
426,213.2542393,0.535996364348,0.5423354470805,0.0009316635278000129
427,213.7542393,-0.1113134002672,0.6517858135748,-0.17556484220398003
428,214.2542393,1.509582542224,0.4583108091383,-0.21557691575
429,214.7542393,1.1763819885592,0.6507344185306,0.5663275623888
430,215.254239294,1.443860940792,0.3318743777178,0.5582602596376
431,215.7542392,1.6774081803268002,-0.3121179670416,1.1136557292766
432,216.2542392,2.083803105418,-0.8960214036802,0.9807268142166999
433,216.7542392,0.2792590272316,-0.5393263983619999,0.6020042610028
434,217.2542392,0.942733827548,-0.49279869317999997,-0.08576754569019998
435,217.7542392,0.11536689788280001,-0.51724233148512,-0.017683486924599992
436,218.2542392,-0.181581413741248,-0.3924208211666,0.04456840515116
437,218.7542392,-0.5833752041836,-0.3955794215128,0.06731792449900001
438,219.2542392,-0.82603892388958,-0.4153849315832,0.18561618802488
439,219.7542392,-0.36657330692275997,-0.3953872358844,0.1136641311496
440,220.2542392,0.273346986474,-0.40004153847319995,-0.06699724195540001
441,220.7542392,0.02589440778836,-0.13737481474432,-0.08322063447599999
442,221.2542392,-0.699343850594,-0.3115297472476,0.280529270174
443,221.7542392,-0.2955846783492,-0.24528197168882,-0.061987743348599994
444,222.2542392,0.094008989771,-0.2546447092276,-0.05202830311237999
445,222.7542392,0.37588895356274,-0.0928915503606,0.1383259773122
446,223.2542392,-0.16034520091659998,-0.16258472650308,0.3222912025404
447,223.7542392,0.7452631574699999,-0.016877287048239997,-0.358290023819034
448,224.2542392,-1.418058081854,-0.07622274727436,0.35064731600919996
449,224.7542392,0.46444908679420005,-0.4627871203418,-0.267403993608
450,225.2542392,-0.08650166987776,-0.0460965067134,-0.13595808982559998
451,225.7542392,0.3144874653256,-0.11947543616522,0.17931745530476
452,226.2542392,-0.2375679671584,-0.20249644615112,-0.07020921708479999
453,226.7542392,-0.40606011935294,-0.08160564795378,0.013699054738040006
454,227.2542392,-0.3043730980036,-0.23012891829074,-0.0433080291588
455,227.7542392,0.47837861521790004,-0.0625884079834,-0.12506292344561998
456,228.2542392,-0.4303548663864,0.0502422511642,-0.17038330078959998
457,228.7542392,0.7678507852526001,-0.1643663835522,0.3019376563692
458,229.2542392,-0.3362421435254,0.09119112818979999,-0.20682634355319998
459,229.7542392,0.38425270333868,-0.0833738624776,0.3193717956068
460,230.2542392,-0.062120595721399996,-0.14154035328998002,-0.42128427508837196
461,230.7542392,-0.02760176646236,-0.059598249498240004,0.2340605258628
462,231.2542392,-0.35824128985717996,0.0010408129550800004,-0.23617138862386
463,231.7542392,-0.338319899422,-0.29347623153200003,0.0288310813766
464,232.2542392,-0.2958434736726,0.039977050124400004,0.09336956027368
465,232.7542392,0.4728768652638,-0.134055544109,-0.2171354484586
466,233.2542392,0.49268872839448,0.0832653775862,0.018457765554800002
467,233.7542392,-0.096314549463,-0.038188098967200004,0.024760456070599998
468,234.2542392,0.15747876793752,0.0211496940278,-0.004225149212600004
469,234.7542392,-0.25588711679799997,-0.08522655770094,0.25509044643856
470,235.2542392,0.058164934702399994,0.030584420260800004,-0.22896085740236
471,235.7542392,-0.026323403700600004,0.019461729564680005,0.22168529511180002
472,236.2542392,-0.1613263297116,-0.027964989239400002,-0.2078889178896
473,236.7542392,-0.34138902806044,-0.096082845254,0.06307794567139999
474,237.2542392,0.09099643141699999,-0.10719251737065999,-0.10853367807079999
475,237.7542392,0.130035657287894,-0.006131231634077996,0.17903697969700003
476,238.2542392,0.1877572599034,0.01567016750298,-0.15193065641428002
477,238.7542392,-0.2904231843374,-0.1548889543134,0.2524344253924
478,239.2542392,0.2096128127143,0.060648249092540005,-0.1975782203494
479,239.7542392,0.4447265374882,-0.023486478435840005,0.1788418769506
480,240.2542392,0.10107878290448,0.03147162999274,-0.08017367365996
481,240.7542392,-0.1547939342302,0.009420772495299998,0.16274034499599999
482,241.2542392,-0.056875263157600005,-0.068271155351944,-0.25423101427634104
483,241.7542392,-0.25310506226276,-0.0783257859922,0.2452478027304
484,242.2542392,0.21798405795259998,-0.0544479990048,-0.21646744727599998
485,242.7542392,-0.5303948927028,-0.143197984435,0.4018298339938
486,243.2542392,0.3391929956938,-0.0774366585908,-0.4147887993012
487,243.7542392,-0.22091852364085998,-0.017643735264158,0.26767759324539997
488,244.2542392,0.5177697583766,0.0427395046492,-0.24816928859
489,244.7542392,-0.546132217671,-0.0629215223692,0.2304656982382
490,245.2542392,0.18097279787051998,-0.09090581507970001,-0.31101440428840005
491,245.7542392,-0.225476208330934,0.01933894611566,0.28975798606068
492,246.2542392,0.30939229369044,-0.04811327141840001,-0.1385646248116
493,246.7542392,-0.6111419439168,-0.14239731101542,0.10915000918799998
494,247.2542392,0.35707556009126,0.0333547510952,-0.2731054305976
495,247.7542392,0.44695068061626003,-0.028755412399999996,-0.0030500221106060034
496,248.2542392,0.02778353273474,-0.01827295798432,0.24552339551042
497,248.7542392,-0.2220887038146,-0.00893396794936,-0.23434379575124
498,249.2542392,0.1627061455,-0.042952708599799994,0.15115126608212
499,249.7542392,-0.16386782914388,-0.068492879277,-0.12042625426260001
500,250.2542392,0.100257515366236,-0.06090727999240001,0.11782381058839998
501,250.7542392,0.0076892723119999975,-0.049657692761399995,-0.23290834429181997
502,251.2542392,0.1075537416384,-0.062371390646640004,0.105899629556
503,251.7542392,-0.2601287552672,0.012756424697600001,-0.1938659477304
504,252.2542392,-0.206306222668,-0.150087130853,0.143876552597042
505,252.7542392,0.3467700399412,0.06767230391312,-0.1599263000316
506,253.2542392,-0.018406245705399997,-0.032549999804272006,0.305233936313
507,253.7542392,-0.11054702132541999,0.040187444691074,-0.0833023643324
508,254.2542392,0.011719645226600002,-0.06796146214712001,0.0999238014028
509,254.7542392,0.2414679944672,0.0546709913044,-0.1079415130392
510,255.2542392,-0.1483972406354,0.047222571967,0.359428310427
511,255.7542392,0.5402191299014,-0.09214128942499998,-0.258625030567
512,256.25423920000003,-0.5781756639321359,-0.073904111238,0.1483602142124
513,256.75423920000003,0.22844453320580002,-0.112099221494,-0.2157233428882
514,257.25423920000003,-0.2660115784387,-0.1021405686426,0.06262882234160001
515,257.75423920000003,-0.076703091561,-0.09934837041060002,0.12515491486124
516,258.25423920000003,-0.3881550731942,0.0489696009426,-0.3791549301204
517,258.75423920000003,-0.07518425197778,-0.08973731405820001,0.09336555484636
518,259.25423920000003,-0.12229619890596,-0.034789774027579996,-0.017418823250000003
519,259.75423920000003,0.11119833529373001,0.012102386764920002,0.048074035670040004
520,260.25423920000003,-0.1554481008658,-0.04908454567164,-0.009322700499599997
521,260.75423920000003,-0.48399782058638,-0.1804484336026,0.1645306777858
522,261.25423920000003,0.5566548952384001,0.021918556839999995,-0.1104588508556
523,261.75423920000003,0.4722300457796,-0.190827836689994,0.2320587539158
524,262.25423920000003,-0.6862823897944,-0.034152551896979993,0.20341157915799996
525,262.75423920000003,-0.1666186621128,-0.13340756652639998,-0.40964634897819996
526,263.25423920000003,-0.08306013031963999,0.017504917380820006,-0.04458573340619999
527,263.75423920000003,-0.6734410947488,0.135188847184116,0.44019470213620004
528,264.25423920000003,-0.364301078909,-0.1684417136028,0.30393201829780003
529,264.75423920000003,0.088296349638,-0.18077367484540002,-0.005637149812399991
530,265.25423920000003,-0.38564753234872,-0.22563388794849998,-0.0629809379422
531,265.75423920000003,0.042430548367453996,-0.06677242040386,0.03942213057338
532,266.25423920000003,0.1501199238,0.0165864975093088,0.0636940002608
533,266.75423920000003,0.475028854306,-0.014960882809600002,-0.13250965117222
534,267.25423920000003,0.49812458039016,0.10317294664843998,0.375031852699
535,267.75423920000003,-0.460180119576,0.38919237257301603,-0.086103191366642
536,268.25423920000003,0.328869443536574,-0.06254976503866,-0.3021896934334
537,268.75423920000003,-0.21550510704457998,0.27110174947238,0.80203468329888
538,269.25423920000003,0.08282336175419999,0.198254986985034,-0.401087942184
539,269.75423920000003,0.2369819209064,-0.07429194718808,-0.252356023796
540,270.25423920000003,-0.258993342525,-0.1237279135152,0.38723043445822003
541,270.75423920000003,0.133254077123,0.1324299178882,0.34540823937
542,271.25423920000003,-0.5561594453300001,0.008268843736660004,-0.4035191440904
543,271.75423920000003,0.45293800471300005,-0.292024790032,-0.20804494859199998
544,272.25423920000003,-0.15876906052032,0.1910973817044,0.2895453643638
545,272.75423920000003,-0.515471366333052,0.05807232559300001,0.01961602210336
546,273.25423920000003,-0.275080801260572,-0.17781126141402,-0.121534872048
547,273.75423920000003,-0.36839841602679996,-0.007375649337419998,0.028356113426999983
548,274.25423920000003,-0.56906651868412,-0.1032985991244,0.552427282408
549,274.75423920000003,0.3388692554654,-0.08250959767464,-0.6441608715374
550,275.25423924,0.08518041566198199,0.02762814380014,0.005982189171380005
551,275.75424019999997,0.5129953747758801,0.06496475427108,0.34180337905400004
552,276.25424019999997,0.7902862802144,0.1505361248534,-0.11494060516162
553,276.75424019999997,-1.681444935492,-0.06358826577706,-0.12867221835632
554,277.25424019999997,-2.012364203936,-0.5460661983306,0.3494803142886
555,277.75424019999997,-1.5483368396200001,-0.09474569112308,0.4452118682936
556,278.25424019999997,-2.0032196033139997,-0.05092627166259999,-0.19645246508699998
557,278.75424019999997,-1.280032050571,-0.406429719072,0.8370119857466
558,279.25424019999997,-1.127215065968,-0.24771718681019997,0.38755128860999993
559,279.75424019999997,0.0815928539834,-0.5567009031614,-0.3105937004232
560,280.25424019999997,0.16087592095763997,-0.36212028414999997,0.20741479873368
561,280.75424019999997,0.24282204148638,-0.493522729871,-0.2715471458472
562,281.25424019999997,0.3768795156394,-0.2511944258226,0.25173620225459997
563,281.75424019999997,0.6070454740582,-0.2741348177184,-0.0951260948212
564,282.25424019999997,0.5655828631168,-0.5109326571158,0.2039430236618
565,282.75424019999997,0.6224887978926,-0.00827601872414,-0.30176260950782
566,283.25424019999997,0.457943075882428,-0.3513520818922,-0.06880777354019998
567,283.75424019999997,0.6054548990154001,-0.19830739083579998,0.21515014651400002
568,284.25424019999997,0.008225008240399987,-0.1037689483112,0.3846011257088
569,284.75424019999997,0.12759087009040002,-0.1556591168018,-0.4130506515778
570,285.25424019999997,0.1542336183778,-0.2821402263624,0.142357769026
571,285.75424019999997,0.235073362594167,0.061798447367299995,0.1325358772046
572,286.25424019999997,0.1476381516548,-0.26559076353552,-0.3604688357944
573,286.75424019999997,0.3008000993908,-0.10279247831448,0.2599511146582
574,287.25424019999997,0.7044056964186,-0.0510819808002,-0.0319594955162
575,287.75424019999997,0.54724602460994,-0.008426040022999999,0.03606108666400001
576,288.25424019999997,0.31363764763506,-0.1763673688487,0.4718097305296
577,288.74736113863634,0.26279835808675,0.0007076432771363595,-0.28086819432954546
578,289.2492402,-0.16194079875436,-0.12613983750588,0.09996679309922002
579,289.7492402,0.311896008834338,-0.1243046861867,0.1584229279094
580,290.2492402,0.6117163336347999,-0.2870843285718,-0.07201041218
581,290.7492402,0.349039271784,-0.22860133885164,-0.00013290406140001654
582,291.2492402,0.43207025350580003,-0.1443369573379,0.16101817133596
583,291.7492402,0.0448843139413,0.004009872376599992,-0.6874082088108
584,292.2492402,-0.0957274317638,-0.168993773515833,0.4288325595804
585,292.7492402,0.328468842498026,-0.0269903713330926,-0.07184421539600001
586,293.2492402,-0.0035446809200000017,-0.05814099668406,0.1727436924078
587,293.7492402,-0.37724633565239996,-0.2418241351811,0.06922179223619995
588,294.2492402,-0.24630860551080003,-0.37341832658999996,0.2463072013363
589,294.7492402,0.21757169434832002,-0.26991341529380003,-0.324820842698
590,295.2492402,-0.1369486212779,-0.10403760328899998,0.06924088476939999
591,295.7492402,-0.1676478709302,0.04334774110031999,-0.27994550704759996
592,296.2492402,0.601894474755,0.11457463381726,-0.18045328140920003
593,296.7492402,-0.3062423607562,-0.17157379148148,0.07310252189583999
594,297.2492402,-0.33632545730639996,0.297206453056,0.5771965217756
595,297.7492402,0.438525938984,-0.000982873442800002,-0.7924931621579999
596,298.2492402,0.0170646542228,-0.0021918225312000093,1.1529978465834
597,298.7492402,-0.09973947948619999,-0.18812954009400001,-0.9140409374099999
598,299.2492402,-0.16970437129678,0.0517460563738,0.11513553620219998
599,299.7492402,0.61238990695594,-0.30591807454840003,0.1509797858504
600,300.2492402,0.23939091112388,-0.0870621186364,0.06730794907740002
601,300.7492402,-0.18085498539986003,-0.3285473772641,-0.20752189642540003
602,301.2492402,-0.14088354645454002,-0.20430581630779998,0.11176923749879998
603,301.7492402,-0.37975149064072,-0.2927271688036,0.06506768222477997
604,302.2492402,-0.024341757371400003,-0.23117111920248,-0.006389131547400004
605,302.7492402,-0.2843595602074,0.124089878806,-0.20832497599888
606,303.2492402,-0.1154737080936,-0.22203747033260002,0.17809060094919998
607,303.7492402,0.20733279456560003,-0.115302157400342,-0.15263889311799997
608,304.24526747659576,-0.48919493293085103,-0.0530166448406383,0.16843179946382977
609,304.75871735714287,0.11497936351116327,-0.12386918312699999,-0.24011011509714283
610,305.25424019999997,-0.09023848071060002,-0.18146771073530002,0.254522123348
611,305.75424019999997,-0.0444613069592,-0.00023205757119999727,0.09413179393980001
612,306.25424019999997,0.1299518710541,-0.165096434035,-0.2963397884932
613,306.75424019999997,0.16282432646,-0.016812357620980004,0.5147988700094
614,307.25424019999997,-0.33032663046660005,-0.15707153917855998,-0.05294261933644005
615,307.75424019999997,0.2649106454612,-0.1994296944062,-0.23653805742440004
616,308.2495371489796,0.3458130664042857,-0.02788072399918368,-0.2408113576602041
617,308.75397358666663,-0.3891789111475556,-0.09123692131455555,0.3279009500971111
618,309.2492402,-0.026380627105716,-0.13783934354139998,-0.1068697166596
619,309.7492402,0.42080806614140004,-0.13747368978724,-0.1145336055184
620,310.2492402,-0.26677824377459997,-0.19703349380157997,0.027943449044399982
621,310.7492402,0.2383872696568,0.1264699237254,-0.02674698833400001
622,311.2492402,0.012691652164800003,-0.07566707940332,0.1071580982268
623,311.7492402,-0.4855280181864,-0.2320050219458,0.014068565300199998
624,312.2492402,0.505331344646162,0.19958922002579998,0.06970843308559999
625,312.7492402,0.0959596872278,0.003678180540400008,-0.52070858950832
626,313.2492402,-0.23274516674524,-0.3344494513926,0.416188096972
627,313.7492402,0.48538534194679994,-0.06449610546896001,-0.18882926937940003
628,314.2492402,-0.33312066671580803,0.1802695879214,-0.1307149982514
629,314.7492402,-0.2052030964016,-0.13612003355908,0.6307407665684
630,315.2492402,0.1398893162616,-0.1652524781108,0.148452177026926
631,315.7492402,-0.18246968389823998,0.06962957025159999,-0.8604997157840001
632,316.2492402,-0.0340360104446,-0.26239011284429997,0.581778430953
633,316.7492402,0.009609386951832005,-0.009601597037338,-0.16592357632500002
634,317.2492402,0.5465638595138,0.05031607092989999,0.010086612682000009
635,317.7492402,0.8655329370374,-0.1946133414198,0.2877144336716
636,318.2492402,-0.0203238356106,0.0211750187719,-0.336880884213
637,318.7492402,0.29896350085240003,-0.031488131886,0.5033283710631999
638,319.2492402,-0.4364211702302,0.01757643459878,-0.08054181102060001
639,319.7492402,-0.02938841410276,-0.31366712093264,-0.374666137714
640,320.2492402,0.060559406297639985,0.0746571606472,0.04811051365911997
641,320.7492402,0.55702365249524,-0.14780024824521998,-0.3146642684264
642,321.2492402,-0.5505586457142,-0.31276925118628,0.7175366687026
643,321.7492402,0.0708369636744,0.010192109419060007,-0.8401444339399999
644,322.2492402,-0.023001065843,-0.040405110983999994,0.46706542967860004
645,322.7492402,-0.555212549588,-0.10499761463200001,-0.023466281885
646,323.2492402,-0.242567523126,-0.2422504132997,-0.01846085545580001
647,323.7492402,-0.6265739974305999,0.1229913011366,-0.4281467437616
648,324.2492402,-0.7931153201954,-0.2263519530776,0.339459886478
649,324.7492402,-2.72699814313,-0.63675146088474,-0.091187152862
650,325.2492402,-1.1897205030628,-0.48565808920583997,0.5591416168159999
651,325.7492402,-0.4179579079154,0.10784820025280001,-0.7273632049236
652,326.2492402,-1.14325293422,0.010686426905400006,0.09158470156432001
653,326.7492402,-1.6499142419716,-0.4083976098683506,0.1820662402918
654,327.2492402,-0.4350990262582,-0.8666591250919999,0.46860272408
655,327.7492402,0.2106359028949,-0.2910438585442,-0.004612998942000011
656,328.2492402,0.07600280639319999,-0.5163500377676,0.3027160072514
657,328.7492402,0.34198403119264,-0.5380604195594,-0.1415030002504
658,329.2492402,1.2457476961518,-0.5581025720588,-0.069593830171
659,329.7492402,0.530185704244744,-0.30610963743134,-0.1212609672526
660,330.2492402,0.23939442276657,-0.519917288931,0.32986191750266003
661,330.7492402,0.48197634218056,-0.2626793228008,-0.05091763501980001
662,331.2492402,0.6214528066038,-0.26820791802919997,-0.17214044567620002
663,331.7492402,-0.059721755419756,-0.3096610301692,0.2327163410184
664,332.2492402,1.0777412557862,-0.16781418218980002,-0.25972557068019997
665,332.7492402,0.018888287529599992,-0.07881710606339999,0.4034373092474
666,333.2492402,0.6925648331995999,-0.19497301992479998,-0.22367586129099998
667,333.7492402,-0.7173472839592,-0.276588229720618,0.2949684810528
668,334.2492402,0.8435771370026,-0.11951054000760002,-0.3587112236168
669,334.7492402,0.2118608247976,-0.020818826239800012,0.171107387566
670,335.249240196,0.044339260458799996,-0.19603686921600003,-0.20553838732000002
671,335.74924,0.09288136484204002,-0.33463745340629997,0.3232080841978
672,336.24924,0.018342550440599993,0.05513731573215399,-0.11286555289599999
673,336.74924,0.07600780012279999,-0.01769069666204,0.2868067931726
674,337.24924,-0.1085773190934,-0.08990557104106,-0.2599729252536
675,337.74924,0.44029593646599996,-0.17484729722339998,0.1975149727166
676,338.24924,-0.1590788338736664,-0.10231597923460001,-0.278696079246
677,338.74924,0.09953016889903597,-0.22448916390200002,0.1390443897346
678,339.24924,-0.12303795218240002,0.13575841967488,0.22004708285239993
679,339.74924,0.06368153097040001,-0.32692279696622,-0.16610575676559997
680,340.24924,0.13771865424860003,-0.29263855216238005,-0.088098573692
681,340.74924,0.09090433238900002,0.013319387545199998,-0.07924087522720001
682,341.24924,-0.018628384516,-0.036932840022,0.04420472140340001
683,341.74924,0.51180430921,-0.1997645315368,-0.06442275045999997
684,342.24924,-0.38212448115922,-0.06869069046199999,0.43310563086639997
685,342.74924,0.3588865494156,-0.13430341367560003,-0.040375013375959924
686,343.24924,0.043189344403600005,0.03300493488720001,-0.2324822807088
687,343.74924,0.06813638092360001,-0.2460214861853448,-0.0966236877338
688,344.24924,0.2508458757656,0.13450322808528,0.10779935841420002
689,344.74924,-0.30359844982004,-0.08846568939776,-0.12175590516719997
690,345.24924,0.11633258031004001,-0.08090872824534,0.49535980224500004
691,345.74924,0.04612601575788,0.04075372399062001,-0.4008128738146
692,346.24924,-0.29406389715026005,-0.08274004221334,0.3502288437336
693,346.74924,0.2761955547032,0.11130552345629999,-0.466366653478
694,347.24924,-0.31493711414812,-0.05662405850063999,-0.15462342263559997
695,347.74924,0.4663056045826,-0.2253838765314,0.15223551752226
696,348.24924,-0.13125262020798,-0.1512381264896,0.6309901809364
697,348.74924,0.22715864000060002,0.153413958527,-0.1510302829716
698,349.24924,-0.19996535242400001,-0.04034168391324,-0.5095334911084
699,349.74924,0.2158951032368,-0.1264435349444,0.25536702158200003
700,350.24924,0.2156406277454,-0.028009196789800007,-0.2835797309882
701,350.74924,0.0595410367678,0.17764764904553998,0.36375930784719995
702,351.24924,-0.38510076880219996,0.012411295198740003,-0.04389069554439998
703,351.74924,0.5044318935234,-0.2499196997062,0.048049640632
704,352.24924,-0.08595234867759999,0.030197655547799997,0.29853783606219997
705,352.74924,-0.2039393367912,0.0882554652616,-1.0623238181596
706,353.24924,0.06992758693000002,-0.21069294363004,0.7108611488386001
707,353.74924,0.19474813222111279,-0.25043477622432,0.07455399512439999
708,354.24924,-0.124972606285,0.002931329307999997,-0.23142495159319998
709,354.74924,0.0386560779848,0.0683933048024,0.450290994588
710,355.24924,0.2437825515738,-0.36186136920732004,0.09797849657919999
711,355.74924,-0.019914415473319992,-0.1397694952844,-0.466672554036
712,356.24924,-0.07763255596819997,-0.23836193710339998,0.5998999023180001
713,356.74924,-0.0906718722854,-0.1647733187682,-0.8723290252697999
714,357.24924,-0.39398476122779996,0.2446947354392,0.2510303878722
715,357.74924,0.40198731496336004,0.023805198065519995,-0.039823608382000004
716,358.24924,-0.1788927564052,-0.027581045336,-0.1206224346432
717,358.74924,0.21638263759064,-0.18615397221740002,0.1556386375516
718,359.24924,-0.3550877991454,0.0790749448548,-0.06283591268026
719,359.74924,0.7524599928632,0.1497085335798,-0.1428366851802
720,360.24924,-0.19823074102954,-0.06646325745038001,0.23126928326238003
721,360.74924,0.2820334942614,0.050889808165599994,-0.004945936180799993
722,361.24924,-0.47331866086828,-0.1923212898668,0.1598615359822
723,361.74924,0.2987293416026,0.04450825692032,-0.4977268886354
724,362.24924,0.0459841427118,-0.08612252675521999,0.30198821067139997
725,362.74924,0.04260810553622,0.08778685361724,-0.13649803163996002
726,363.24924,-0.014207414386400006,-0.038441240492200004,-0.15159665107200002
727,363.74924,0.12256373107494,-0.08836226597326,0.09548506738160001
728,364.24924,-0.12422014772720001,-0.004714026445639996,-0.12328402522040001
729,364.74924,0.322764351656,-0.14896734847419998,0.22742394443440003
730,365.24924,0.09198615789971999,0.08218035996279999,-0.25260953902158
731,365.74924,0.2061187511856,-0.08778508066799999,0.12659610752220002
732,366.24924,0.12410197377786,-0.1616669382278,0.4459556102344
733,366.74924,0.3357422101456,0.1445648777512,-0.291741199516
734,367.24924,0.7851236736704,-0.017559857359600004,0.22430548666180003
735,367.74924,1.0988673233919999,-0.07335343419061999,0.3700918769586
736,368.24924,0.7578266393574,0.47528327585268004,-0.1900877570994
737,368.74924,1.517187433194,-0.10401559293362,0.6854866790224
738,369.24924,0.704622112526,0.049064270262600004,0.0817649364396
739,369.74924,1.560363674194,-0.33556016265739996,0.48588265422099997
740,370.24924,0.1913210499346,-0.2320953082774,0.34063138964558
741,370.74924,0.5745866859264,-0.7637368750118,-0.1389570712972
742,371.24924,-0.7923410928036,-0.34466727049164,-0.2528707122858
743,371.74924,0.6639937865158,-0.7623516166494,0.06380659103574
744,372.24924,0.3350096643224,-0.499285622812,0.26261815070011996
745,372.74924,-0.317932293978,-0.7094157934068219,-0.2299938678564
746,373.24924,-0.8017200225626,-1.2772150742719999,-0.13782738687800003
747,373.74924,-0.38785628675940004,-0.65731167319436,-0.1182318973678
748,374.24924,-0.77233933330832,-0.50406492116422,0.025037784571320002
749,374.74924,-0.32714363746966,-0.541321488633,-0.21425148012
750,375.24924,0.22517538875218002,-0.3955739355152,0.106959705357836
751,375.74587199787237,0.34799752305370213,-0.21355053212174466,-0.09403344418921278
752,376.2626388382979,-0.19939176635382977,-0.09168185452382978,0.09209935208574467
753,376.74924,-1.1058937096213999,-0.19066657305075999,-0.12465320587840001
754,377.24924,-0.8108006061596,-0.45497288466358,-0.0706771087968
755,377.74924,-0.6257007878854001,-0.37137065648620005,-0.154445915208
756,378.24924,-1.4358603954,0.24631211758147997,-0.08580734253559999
757,378.74924,-0.2482407503796,-0.2671659493264,-0.0227787971469
758,379.2463529591837,0.7216390152306122,0.011450704275816322,0.18606112930285712
759,379.75841427446807,-0.9847950655893618,0.5794154189823404,-0.09720077916480853
760,380.24924,-0.9996101847110801,0.10227117181014,-0.031289749143
761,380.74924,-0.048061603339199996,0.2422043752694,0.13585859299415998
762,381.24924,-0.15967939913312,0.4103678077422,-0.13622766493424
763,381.74924,-0.0419226217306,0.9776009279268,-0.394209756837
764,382.24924,-0.7083031475807999,0.6229926895952,0.7738663864202
765,382.74924,0.20154139537480004,-0.46163600679928,0.7344057846281999
766,383.24924,0.25194871785,0.03306021815579999,-0.855261135044
767,383.74924,0.3585233294788,0.40137211269879997,0.20771512985599996
768,384.24924,0.8375303161315399,-0.797232317914,-0.2738173675578
769,384.74924,-0.4149218418861,0.5751067380598,0.7580989646924
770,385.24924,1.0809560549522,-0.6164939287212,-0.30780336382240003
771,385.74924,1.5127040457474001,0.03349378586276,0.2550214385944
772,386.24924,1.0359882521176,0.2446525231066,-0.024396352769599998
773,386.74924,2.3478042936240002,-0.21040615448788,0.2843051814986
774,387.24924,1.3249327325595999,-0.48551198881639995,1.093761587113
775,387.74924,-0.42207853764968,-0.021912603994800006,-0.12165899275599998
776,388.24924,-0.675817598708,-0.12547101946164,0.151962041852
777,388.74924,0.18557187807502998,-0.43512944946959997,-0.26638982769942
778,389.24924,-0.32299621280179996,-0.1398606619294,-0.1422279262978
779,389.7457432020408,0.2879281364046939,-0.38807799623006123,0.5779787082779592
780,390.2595034673913,-0.17922111795365217,-0.12421452319282608,-0.7004015134713043
781,390.75424,-0.4058588599548,0.011597610867859997,0.436592426392
782,391.25424,0.27068429089380003,-0.18589145155782,0.2060630702721
783,391.75424,-0.72021820931672,-0.1339448171802,-0.07391832354020002
784,392.25424,0.9651384526597999,-0.3095051479324,-0.10242549893519999
785,392.75424,-0.8828679082998001,-0.2101645070462,-0.2916998100268
786,393.2448622088889,0.12295225359266665,-0.3845422009977778,0.10064462032888888
787,393.75424,-0.24482916681380001,-0.50611041738,-0.05492550853800004
788,394.25424,0.5596486664343999,0.043429878924400006,0.2760975265826
789,394.75424,-0.4160548591294,-0.45350009917080003,-0.5518947982648
790,395.254239998,0.034922109126,-0.097469248165,0.3626856994326
791,395.7542399,-0.11418955790296,0.04842546164480001,-0.04574338911293999
792,396.2542399,0.6961478823234001,-0.1652325487238,0.377312583904
793,396.7542399,0.28204830765739997,-0.17654859752156,-0.4822813892472
794,397.2542399,-0.34105221867959995,-0.07117174029509,0.6714600181596001
795,397.7542399,0.1349256646298,-0.24465257166452,-0.588264503476
796,398.2542399,-0.4086863815544,-0.14746200441079998,0.405842246948
797,398.7542399,0.3824652479356,-0.1729658937488,-0.54265980719836
798,399.2542399,0.07875930725948001,-0.04234993397279999,0.10668996810459999
799,399.7542399,-0.014007779911199997,-0.23057745694800003,0.46271870610439997
800,400.2542399,-0.27901851738574,-0.1678627323954,-0.42505868915999995
801,400.7542399,0.25689320414579997,0.22312964139646,-0.214299955364
802,401.2542399,0.22766860845318,-0.5360570520024001,0.139713325528
803,401.7542399,-0.36471696809099996,0.15413907765520002,0.09972920420560001
804,402.2542399,0.01663178503860002,-0.2461256015388,-0.201752796136
805,402.7542399,0.48711701631807997,-0.0857001697909354,0.2198872375188
806,403.2542399,-0.190091730956768,-0.19181051671660002,-0.07538177486268002
807,403.7542399,0.40041258930963997,0.10012453138902,0.013272228203660004
808,404.2542399,-0.4567573553138,-0.17103841006380002,-0.2188449764316
809,404.7542399,0.22614347994599998,-0.2672328495909,0.36029552466380005
810,405.2542399,-0.3050510012964,-0.0332440316698,-0.31276080128149997
811,405.7542399,0.31402035119120003,0.069153237343851,-0.081697053916
812,406.2542399,-0.4294777867184,-0.1040018227638,-0.182322168352
813,406.7542399,0.21125298025033998,-0.046576875444699996,0.26075527187412
814,407.2542399,-0.26470744863324996,-0.06145778477396,0.048176383974400015
815,407.7542399,0.7888678253902001,-0.1632479056724,-0.062116985311199996
816,408.2542399,-0.029735320212340002,0.0521996480344,-0.10512398718460002
817,408.7542399,0.73081295099,-0.47293943105746,0.35842063903300003
818,409.2542399,-0.919590269024,0.29865966139169997,-0.022116947187000004
819,409.7542399,-0.4689912546894,-0.58369429562734,-0.2363258457414
820,410.2542399,0.59596434784272,-0.0942949602118,0.19786870956854
821,410.7542399,-0.4019033503434,0.17492959618360002,-0.1832063388961
822,411.2542399,0.45385770683474,-0.6144801348259601,0.2118453884128
823,411.7542399,-0.47104107660899996,0.09460460187079998,-0.27147287367554
824,412.2542399,-0.1731084299275,-0.4091080266488,0.26056097984028
825,412.7542399,0.6657367391798,-0.1800940459816,0.199697074942
826,413.2542399,-0.07182816503816801,-0.1605044964414,-0.5554783821420001
827,413.7542399,0.0897346538526,0.25312360763358,-0.20149284364
828,414.2542399,-0.875645811564,0.14610398292600002,0.2210004043719
829,414.7542399,0.219603020564,-0.009108182189219998,0.15625004772739998
830,415.2542399,0.2709031486578,0.18128112495460003,0.251036567713
831,415.7542399,0.15269043800760002,-0.1597281753978,0.145239725097
832,416.2542399,0.08748430864776,0.002739889933600004,-0.3869659137102
833,416.7542399,0.0080048692242,-0.228781168442,-0.021694498036999996
834,417.2542399,-0.018763674044999998,-0.27424069227684,0.27977852821658
835,417.7542399,-0.7164140099296,0.06629062295360601,-0.2168698692464
836,418.2542399,0.37502101632326,-0.4366173505458,0.008515434272379996
837,418.7542399,0.08615963783524,0.031414652475,0.202397499059
838,419.2542399,0.06390262745780001,-0.2345416817228,-0.10262151715200002
839,419.7542399,-0.29724301543340004,0.08421779394555999,-0.195598812129
840,420.2542399,0.1561355030522,-0.08391033590220001,0.024484453200199985
841,420.7542399,0.5628800776666,-0.3100251823752,0.43209878923280004
842,421.2542399,0.979415749935,-0.766760737886,-0.1179080963016
843,421.7542399,0.951168727922,-0.830559731126,0.19578933716320002
844,422.2542399,1.560490441326,-0.485291128161,0.40766382220520003
845,422.7542399,0.02797767223819999,-0.3280038571372,-0.10630054470359998
846,423.2542399,0.6313125133284,0.821824254996,0.12913604736234
847,423.7542399,-0.89543696881142,0.5866971475248,-0.10312663079
848,424.2542399,-1.1226070914038,-0.46349376350820004,-0.04652801515200002
849,424.7542399,-1.668222485776,-0.3017403394002,0.6901533126768
850,425.2542399,-1.1943513941528001,-0.54790828823216,-1.12749862674
851,425.7542399,-0.649977734853,0.6105281250264,0.18587748529819997
852,426.2542399,-0.950898197878,0.15434650834969202,-0.033241252919439995
853,426.7542399,1.1117612933828,-0.17025798230039998,0.07642988206740002
854,427.2542399,-0.067919125576154,0.220139586299126,0.963279180504
855,427.7542399,-1.46754395247692,-0.304462794081,-0.280424909578
856,428.2542399,-1.6351306760271997,-0.601051589876514,-0.2147762584518
857,428.7542399,-1.5703816068215122,0.020145540837979994,-0.32018777847883995
858,429.2542399,-0.466688119174,-0.40104900121937803,0.1750540351826
859,429.7542399,0.1802032590016,0.025778743546399994,-0.1356644439842
860,430.2542399,-0.4501348638194,-0.2890512829332,0.34284489628880005
861,430.7542399,0.5335047972542,-0.23591239779999998,-0.1213502979092
862,431.2542399,-0.2621206879652,-0.14653816492639998,0.1557931709356
863,431.7542399,1.252203360796,-0.6386299419276,-0.1505802440632
864,432.2542399,-0.699673913738,0.120042030813718,-0.1479583740014
865,432.7542399,0.20001264662086002,-0.34114089043260004,0.11676750183419998
866,433.2542399,-0.4240769813276,0.1127049103454,-0.3445120430058
867,433.74929576734695,0.3518669215904082,-0.2155634669492449,0.03814545461995917
868,434.25412674347825,-0.17771452925499998,0.0343487538226087,-0.07598222855478261
869,434.7542399,-0.1706206113061,-0.18606941386928,0.189628858597
870,435.2542399,0.20695199132279998,-0.00876030020368,0.0686874008292
871,435.7542399,0.1413792878392,-0.226700124746,-0.15044082643040002
872,436.2542399,0.6956243049402979,0.10120329499448001,-0.08636158943255999
873,436.7542399,0.026090362503799994,-0.16334960073116,0.1132390022345
874,437.2542399,0.00521950724179999,0.10698702037340001,0.5936521243846
875,437.7542399,-0.07173442125774,-0.3609180593268,-0.50335866929
876,438.2542399,0.24135022163178,0.12040112241432001,0.16149988178276
877,438.7542399,-0.006158835898420003,-0.1274871206326,0.36827587130486
878,439.2542399,0.9625481969159999,-0.53385462197736,0.09691005701100003
879,439.7542399,-0.2163165175708,0.2386182546748,-0.3320606136796
880,440.2542399,0.6339287409236,-0.0455884593712,-0.1777582836322
881,440.7542399,-0.6031915310104,-0.0907233484146,-0.05918020241999999
882,441.2542399,-0.054326096267799995,-0.07980150759194,-0.1616870022002
883,441.7542399,-0.7139061402033999,-0.143642901705498,0.20008543015400002
884,442.2542399,0.19542799700712,-0.004072105294599999,-0.04933256149142
885,442.7542399,0.025889338254260003,-0.08306902452360002,0.1310382461122
886,443.2542399,0.83215273381898,-0.0727365679282,-0.096369113896
887,443.7542399,-0.32952477335040004,0.0402570830966,0.3447140311936
888,444.2542399,0.7758246383040001,-0.08684934327602001,-0.32190245634180004
889,444.7542399,-1.0038976284691998,-0.20287056058986,0.13905963896759999
890,445.2542399,0.014613864573047997,0.04701536357959999,0.23580291749718
891,445.7542399,-0.17891315161844,-0.4320580375084,-0.4256264304828
892,446.2542399,0.20997872382211,-0.00759629130302,-0.145118045813
893,446.7542399,-0.3186030850564,-0.1642807239324,0.1866584872784
894,447.2542399,0.4101115903158,0.025042482468000005,-0.07234493253040002
895,447.7542399,0.025621889836699996,-0.14364046246999998,0.2389542484252
896,448.2542399,0.6924986016350261,-0.118424111602,-0.27587934497280003
897,448.7542399,-0.18778152465244,-0.02258028746379999,-0.007206525767800001
898,449.2542399,0.5746530786262,0.058746781212400005,-0.004105663268680013
899,449.7542399,-0.37032839475776,0.1330627960384,-0.19230966565602
900,450.2441535488889,0.3923084946222222,0.08285183028755555,0.604794947292
901,450.7592399,-0.9040750949401021,-0.0032130090719183625,0.18230127805977547
902,451.2542399,0.28383811482498,-0.09031997859096,-0.46763305663396
903,451.7542399,-0.852790077928,-0.217470189625,0.30548747061299997
904,452.2542399,0.48485800533199996,-0.0023120827916199983,-0.33547252653600007
905,452.7542399,0.06307392774708,0.10149325074637999,0.2758977412289
906,453.2542399,-0.001818853766400003,-0.1970922809814,-0.263052434964
907,453.7542399,-0.08990576950438,-0.1169805663818,0.1075724983472
908,454.2542399,-0.3799321907932,-0.07055997915864,-0.056221923813199993
909,454.7542399,0.031517592086199996,-0.1345491179844,-0.14977663993594
910,455.25423988399996,0.48259012505459997,-0.1202862984001,0.4922426604906
911,455.75423909999995,0.34828231469545995,0.1109167249559,-0.28239429478104
912,456.25423909999995,-0.7184735286496,-0.16857333862842,-0.378773765543
913,456.75423909999995,0.7416000526633999,-0.2723309394546,0.01359059331761998
914,457.25423909999995,-0.157396182985,0.2795208956282,0.5941742896742
915,457.74500475531914,0.861510981896383,-0.005035765620638299,-0.5563883375570212
916,458.2578518851064,-0.2537990586544042,0.07021726097193617,0.47583075785255324
917,458.74923909999995,0.016195673887799997,-0.282774004504,-0.20462510105559997
918,459.24923909999995,0.1381426345734,0.013320507117199995,0.2894949343041999
919,459.74923909999995,-0.5165862673808,-0.379258946188,-0.6883397960864
920,460.24923909999995,-0.47850736143,-0.073545224962,0.37009085655440005
921,460.74923909999995,0.032028978477799994,-0.005887106631920007,-0.07167892455899999
922,461.24923909999995,0.2876327645468,-0.08093806326219999,0.10643190388059999
923,461.74923909999995,-0.34742112697331995,0.029227102096320002,-0.0821493529952
924,462.24923909999995,0.802745527699,-0.187882670006,-0.07740630148356
925,462.74923909999995,-0.6317884534384001,-0.025809434030599997,0.0851337433122
926,463.24923909999995,0.0561923140168,-0.18870477594378,0.4820051193412
927,463.74923909999995,-0.2372414362424,-0.08456250831628001,-0.1514096450912
928,464.24923909999995,0.7960596347308,-0.07579662859,0.0488551616774
929,464.74923909999995,0.029589502809800005,-0.06787025570644,-0.32230666157160004
930,465.24923909999995,-0.0856879951172,-0.06155225433290001,-0.2270643901718
931,465.74923909999995,-0.30646091964460004,-0.1288329313736,0.1262263488734
932,466.24923909999995,0.190776243648378,-0.007481968693399997,-0.08748569490676
933,466.74923909999995,0.5378552660181399,0.14398618101586,0.1054521369896
934,467.24923909999995,-0.5118626189226,-0.04046661563263999,-0.1133095073712
935,467.74923909999995,-0.11835828944080001,0.1501858660428,0.20521769521091998
936,468.24923909999995,-0.14300536632535998,-0.22542035222448,-0.15292898177
937,468.74923909999995,0.5267436796230001,0.05845240935788001,0.439170541778
938,469.24923909999995,-0.03609233262140001,-0.0376098163336,0.17959596637640002
939,469.74923909999995,0.38991781771219997,-0.0722763594838,-0.25675536157400003
940,470.24923909999995,0.1675558221448,-0.07116040304316001,-0.08123779299521999
941,470.74923909999995,-0.5367089534139999,-0.04209618864132,-0.2818122005454
942,471.24923909999995,-0.2618747460388,-0.40180398656530003,0.26572040558958
943,471.74923909999995,-0.18588630794307398,0.0899583669002,0.15184099197039996
944,472.24923909999995,0.007182646397999994,0.0634434221743,-0.1018612003336
945,472.74923909999995,0.33443271755059994,-0.14919251236040001,-0.12018145564640001
946,473.24923909999995,-0.0716735720698,-0.21328003372879997,0.06788453101440002
947,473.74923909999995,-0.1175925960394,-0.255317130712508,0.09046216005034001
948,474.24923909999995,-0.09398688211186,-0.055550759135799994,-0.2227915954708
949,474.74923909999995,0.68780188620034,0.012760102306800008,0.13270399098400001
950,475.24923909999995,-0.3658198118262,-0.022810026702147997,0.11052180285399998
951,475.74923909999995,0.08141159086935999,-0.033300819108,0.011532945631400003
952,476.24923909999995,-0.07477506161163999,-0.0212428101882,0.031991920447400006
953,476.74923909999995,0.2598080629146,0.031876354666080006,-0.38261562349019995
954,477.24923909999995,0.12701705457934,-0.10635948829134,0.24103338241879999
955,477.74923909999995,-0.2607716203102,-0.05499360209114,-0.12779164317077998
956,478.24923909999995,0.13939134836720002,0.013363828665859999,0.09128733641600001
957,478.74923909999995,0.014383407827000006,-0.06883401829324,-0.39496368404842
958,479.24923909999995,0.10622436104839998,-0.030309468807799996,0.42214754107937197
959,479.74923909999995,-0.3459602796976,-0.011065449399879999,-0.12092350954020001
960,480.24923909999995,-0.04372827408780001,0.12226788572984,-0.059777078648399984
961,480.74923909999995,-0.09581585765427998,0.005541957065799996,0.07021867752000001
962,481.24923909999995,0.24401454925694,-0.030767648821359996,0.1517081833014
963,481.74923909999995,-0.0669757127806,-0.22819220424120001,-0.2696752929388
964,482.24923909999995,-0.032426507485540004,-0.015552450426,0.1669146728594
965,482.74923909999995,0.27267605781800003,-0.3468783797518,0.23153465268799997
966,483.24923909999995,-0.020519016975799994,0.28427922008,-0.7175033092853801
967,483.74923909999995,-0.0126647758376,-0.1966372184254,0.14350411419600004
968,484.24923909999995,0.0943906259422,-0.0649880746046,0.7300889396080601
969,484.74923909999995,0.685919440417,0.0002974746368599979,-0.9259092998826
970,485.24923909999995,-0.2538075494871,-0.06625581024199999,0.47806566238559994
971,485.74923909999995,0.004778965866599994,-0.1026678943602,0.2096401214542
972,486.24923909999995,-0.23860167384618003,-0.20493049771559999,0.0572127913688
973,486.74923909999995,0.0834752524192,0.06475366350448,-0.182683258026
974,487.24923909999995,-0.452047094132,0.093078812961,-0.2952861976062
975,487.74923909999995,0.2388986599586,-0.069468182917,0.1435586929382
976,488.24923909999995,0.039892443428417995,-0.05691502450880001,0.10483561519660001
977,488.74923909999995,0.07927345692046,-0.2316487050072,-0.08607503890512001
978,489.24923909999995,-0.005284426210000002,-0.135821678122748,0.06890143393512
979,489.74923909999995,-0.1837174522806,-0.033091417662420006,-0.14314874648886
980,490.24923909999995,-0.24256927371404,-0.17215180933260002,-0.3526334095266
981,490.74923909999995,-1.05234541657872,-0.2450059133676,0.36504659655756
982,491.24923909999995,0.9755486297407999,0.0732274752842,-0.23666444778159998
983,491.74923909999995,0.7706643033260001,0.11878495570725602,0.7142669296446
984,492.24923909999995,0.8329583060436001,0.30734070597314,-0.27169414520019997
985,492.74923909999995,0.24636520383980598,-0.11048208715079999,0.41856801988299996
986,493.24923909999995,-0.06670554519260001,0.17048862279399998,-0.2096761322484
987,493.74923909999995,-0.53886870505092,-0.064119123212714,0.09837959287794001
988,494.24923909999995,-0.6967477673272,-0.11798545181298,-0.10055374142699999
989,494.74923909999995,0.0007843136731680067,-0.0965320798712,0.031399602885999994
990,495.24923909999995,0.140287237176,0.05414462835432,0.09541786194286
991,495.74923909999995,-0.3291583585912,-0.20111884890560003,-0.19654496195173998
992,496.24923909999995,-0.3205213779182,-0.23587792255520001,-0.1472368240638
993,496.74923909999995,-0.018253943926359997,0.043112729193600006,0.1189072036854
994,497.24923909999995,-0.13720378815630002,-0.1172836157694,0.048251800542479996
995,497.74923909999995,0.102219226361,-0.0021848958835999953,-0.008566474909200001
996,498.24923909999995,0.8354969537,-0.19545869529134,0.08382719041915321
997,498.74923909999995,0.6388654184292,-0.0608164384987,4.8542043999990626e-05
998,499.24923909999995,-0.1805253410422,-0.0149975127009,-0.133671960817
999,499.74923909999995,-0.041412583586859994,0.05743496716148,-0.2715158843822
1000,500.24923909999995,0.09259036361968001,-0.18266833068602,0.09416383741199999
1001,500.74923909999995,0.1300712060994,-0.5451268683838,0.2631817245906
1002,501.24923909999995,-0.03154603958346,-0.4407410874944,-0.21760091781
1003,501.74923909999995,0.06446756601600001,-0.2019866186478,0.2169635582002
1004,502.24923909999995,0.5024793332826,0.0192776614404,-0.11472068780853999
1005,502.74923909999995,-0.106936379674,0.19294941335760002,0.19921630857919997
1006,503.24923909999995,-0.104742442962,-0.318378999231,-0.027466516473659983
1007,503.74923909999995,-0.2913626462046,-0.72293128191928,0.14640366555438
1008,504.24923909999995,-0.9531423056442,-1.1659890717499999,-0.557304115302
1009,504.74923909999995,0.4974900347196,-1.0783229611918,0.452023935298
1010,505.24923909999995,0.27178236602670003,-0.127979209447,-0.0047554587798799754
1011,505.74923909999995,0.06969797372528,-0.033442702162199994,-0.3187708282376
1012,506.24923909999995,-0.5096124303584,0.75834115979,0.4247867393181
1013,506.74923909999995,0.32798843502836,0.3264965909656,-0.2291248130998
1014,507.24923909999995,-0.1325441801624,0.5298890471482199,-0.10663379666483999
1015,507.74923909999995,-0.21948726653800002,0.31725162746384,0.2065525055274
1016,508.24923909999995,0.06322003841282,0.38592532396454,-0.12492338179435998
1017,508.74923909999995,-0.05732125520839999,0.056444160934139995,0.29426612852312
1018,509.24923909999995,0.02607806682406,0.14052206396916,-0.1842905616822
1019,509.74923909999995,0.4633983517014,0.3810319257404,0.38379580495779997
1020,510.24923909999995,-0.915950658946,0.274876432409,0.019853887523399994
1021,510.74923909999995,0.39023224978352,1.826418648054,-0.20254266733399998
1022,511.24923909999995,-1.3356014068272,-0.023650827370599994,0.422252988836
1023,511.74923909999995,0.23774504664319998,-0.949200107999702,-0.308222179402
1024,512.2492391,-0.0870688342956,0.9599490356165999,0.2728865432716
1025,512.7492391,-0.28053889993500003,-0.586226382254,0.052614955913800075
1026,513.2492391,0.49568887950504,0.175341100707282,-0.278616285348742
1027,513.7492391,-0.1178021812966,0.44381291631400005,0.7944321632506001
1028,514.2492391,-0.6209010100588,-0.318235617907,-0.32937217712999994
1029,514.7492391,0.47309024516091197,-0.414537717901702,0.210550518016
1030,515.2492391,0.13796676618558001,0.0635667918704,-0.0014561271930000016
1031,515.7492407999999,0.5474543557972,-0.21605381611,-0.7800166225748
1032,516.2492407999999,-0.46139431238392,0.0408917723542,0.457904291199292
1033,516.7492407999999,-0.32215518178006003,-0.138051085171,0.08270020486980002
1034,517.2492407999999,0.19759173035751998,-0.009373102189000003,-0.2975251960736
1035,517.7492407999999,-0.4102222705064,-0.044343577025999996,0.3282943535428
1036,518.2492407999999,-0.8063702327005999,-0.22248943150300002,0.12685613630178
1037,518.7492407999999,-0.9581775891712,-0.616403889642,0.01756818771699999
1038,519.2492407999999,-0.23328829943054,-0.163172543050262,-0.2572521876964
1039,519.7492407999999,0.9663558959251,-0.14405274629724,0.2080491351974
1040,520.2492407999999,0.28785647689996,0.11225234746814,-0.035847625760300005
1041,520.7492407999999,0.427523410314,-0.11580465197082,0.28691810608262
1042,521.2492407999999,0.25784582495180003,-0.04694233671148,-0.54973340990706
1043,521.7492407999999,0.3163879877458,-0.1809027421542,0.020898056067599993
1044,522.2492407999999,0.40105932116380005,0.04915103196424,-0.38002752303279996
1045,522.7492407999999,-0.280709583761,-0.1845940947442,0.15891502380078
1046,523.2492407999999,0.2585306095756,-0.30128655316026,0.20497266770589997
1047,523.7492407999999,-0.3198544883826,-0.17619281708656,-0.27110597610360004
1048,524.2492407999999,0.11913377406772002,-0.283997655511268,0.08209911346755999
1049,524.7492407999999,0.4193042850714,0.19603724420030003,-0.2227674674992
1050,525.2492407999999,-0.23334807278406,-0.15748008191,0.44158884047027996
1051,525.7492407999999,-0.11034059521580002,-0.09471962273659999,-0.426455974573
1052,526.2492407999999,-0.43767044662300003,-0.2529881507138,0.10182950971734
1053,526.7492407999999,0.6073842286978001,0.0185276734856112,-0.07141862870496599
1054,527.2492407999999,-0.5406466865626,-0.1617580384032,-0.053347558979000016
1055,527.7492407999999,0.40485766890386005,-0.144393525717,0.04218884470859999
1056,528.2492407999999,-0.5349597644892,-0.24365907191840003,0.15764789581
1057,528.7492407999999,0.6356020247876,0.10293388545179999,-0.38482041360012803
1058,529.2492407999999,-0.2474025368846,-0.011761606938599995,0.3197742652996
1059,529.7492407999999,0.49447422268829994,0.0026036143239000008,-0.554252319337
1060,530.2492407999999,-0.8519435245229999,-0.2689485383064,0.5757525825727999
1061,530.7492407999999,0.38742103636644,2.776146211599495e-05,-0.5548311615004
1062,531.2492407999999,-0.42266902719534,-0.15391597748204,0.3835802269042
1063,531.7492407999999,0.6156132464195655,-0.07189624191458,-0.26393387792580003
1064,532.2492407999999,-0.07306022791098,0.005422282214000001,0.12241090775388001
1065,532.7492407999999,0.45483224542346,0.1147204172614,-0.3611646175036
1066,533.2492407999999,-0.7704780396442,-0.2903353500206,0.543516120916
1067,533.7492407999999,0.41558764128759995,0.05901195170187999,-0.42502161978679603
1068,534.2492407999999,-0.3241484030446,-0.20527499317099998,0.04394551282600002
1069,534.7492407999999,0.6146183935486,-0.1318348658104,-0.03243751527359999
1070,535.2492407999999,0.21255807877966,-0.003743670563399998,-0.006800603867999993
1071,535.7492407999999,0.1281836119536,-0.0761496204046,-0.0818418979482
1072,536.2492407999999,0.052696295960100004,-0.0804830348402,-0.1190315819028
1073,536.7492407999999,0.2877468967472,-0.2142096620796,0.3422730064326
1074,537.2492407999999,0.5080579346466,-0.06490985422380001,-0.3448078823134
1075,537.7492407999999,0.0903511400784,-0.0473632782418,0.2102122879228
1076,538.2492407999999,0.1511690777744,-0.16647712528802,0.03056567194120001
1077,538.7492407999999,-0.2557055437256638,-0.10177202106900002,-0.1142534256084
1078,539.2492407999999,-0.8007454532862001,-0.22983005821854,0.0943677902458
1079,539.7492407999999,-0.7961414634790001,-0.06707831561720001,-0.18140059470164002
1080,540.2492407999999,-0.6907694512602,-0.2687899860996,0.04314403534405999
1081,540.7492407999999,0.07164387016486,0.2232384281808,-0.11969669342946
1082,541.2492407999999,0.6174394863826,-0.16472027987538,0.3167747974644
1083,541.7492407999999,-0.2687563538676,-0.0355316588228,0.06346670151759999
1084,542.2492407999999,0.08792972535060001,0.040116258741281996,-0.29603156087599997
1085,542.7492407999999,-0.6286164808106,-0.0964568499828,0.0562306594766
1086,543.2492407999999,0.4263322001194,-0.16034476216439997,0.4230232906216
1087,543.7492407999999,-0.3241281771622,-0.17264015701098,-0.36896538728940004
1088,544.2492407999999,0.48249458729784,0.1247138738574,0.2236730669982
1089,544.7492407999999,-0.254853730189,0.046492873125519994,-0.345247573837
1090,545.2492407999999,0.4215133991934,-0.07805208517119999,0.0348528385427238
1091,545.7454294795918,-0.25407602642183674,-0.040495565240469385,0.27781728818612245
1092,546.2596207170212,0.4069260926529787,0.0030419211306382953,-0.1650747542925532
1093,546.7542407999999,-0.2714803147176,0.062001832109874006,0.224374580373
1094,547.2542407999999,0.746586810394,-0.004201589814000007,-0.17250835419000002
1095,547.7542407999999,-0.23250179945874003,-0.029349640301040005,0.15636844630639998
1096,548.2542407999999,0.17106740476420002,-0.22916619598474,-0.2130872631798
1097,548.7542407999999,-0.009243806592800004,0.2007832378418,0.23700585359559997
1098,549.2542407999999,0.6851227234399999,-0.1364263508886,-0.149944686944
1099,549.7542407999999,-0.5679121208083999,-0.029578245307599987,0.247940502086
1100,550.2542407999999,0.43620898847239997,0.0332221394552,-0.3062559128274
1101,550.7542407999999,-0.6016702384046,-0.04997799575272,-0.0051146316399800044
1102,551.2542407999999,0.0714972567855,-0.072547025234406,0.05774776455740001
1103,551.7542407999999,-0.2924455873698,-0.11498054039297999,0.063201827991258
1104,552.2542407999999,0.5846677079820001,0.1813113796618,-0.3164390182404
1105,552.7542407999999,-0.6463990023596,0.03798344851412,0.14475664141411998
1106,553.2542407999999,0.7233335072036,-0.20148875652062198,-0.20648161887804
1107,553.7542407999999,-0.27613785267356,0.30539065064464,0.2041986751608
1108,554.2542407999999,0.30779806225412004,0.12899710687108001,0.21398468015948002
1109,554.7542407999999,-0.033538089991720005,-0.114675852956,-0.21693182943980002
1110,555.2542407999999,0.3039753997124,0.039974811079400006,0.045796070114400005
1111,555.7542407999999,-0.28220097004688,-0.07639488816026,-0.16221332549359999
1112,556.2542407999999,0.16358531862439998,-0.087980029593,-0.023610134083779988
1113,556.7542407999999,-0.8095341569234,0.0015641379297000003,0.172498950962
1114,557.2542407999999,0.4334871501984,0.0771306157102,-0.2317541503782
1115,557.7542407999999,0.16873027560620002,-0.1211202514224,0.405902624186
1116,558.2542407999999,-0.1302565419634,-0.03304926751279999,-0.46911483761944
1117,558.7542407999999,-0.09425718965,0.05717881380284,0.26581160546335997
1118,559.2542407999999,-0.07203102469700001,-0.1356858336846,-0.12972255711519998
1119,559.7542407999999,-0.5920338809933999,0.1168948912786,0.11979313849679998
1120,560.2542407999999,0.2881637370416,-0.1594587022104,-0.03462862015639999
1121,560.7542407999999,-0.2122766140848,0.048516128657259995,0.24848281855256002
1122,561.2542407999999,0.09380243047180001,-0.2109857821424,-0.37374362946559997
1123,561.7542407999999,-0.0030867239820199987,-0.04075880288684,0.11787502289440001
1124,562.2542407999999,0.27664475873942,-0.09490888596,-0.367161436089
1125,562.7542407999999,-0.38786455629579997,0.0209135097268,0.17708627700580004
1126,563.2542407999999,0.11792571990272,-0.058394638886399994,0.542237234096
1127,563.7542407999999,0.5257541799500001,-0.12751144528299999,-0.4877637577182
1128,564.2542407999999,-0.1337148189794,-0.09377266884366002,-0.08730627059332
1129,564.7542407999999,0.05913594485939999,-0.04213168382331601,0.3189966774082
1130,565.2542407999999,0.2053859567656,0.01926987648278,-0.3140959548986
1131,565.7542407999999,-0.11615856366739999,-0.056209495071599995,0.1209823703716
1132,566.2542407999999,0.22158306096152,-0.009924235326279998,0.005496692657179999
1133,566.7542407999999,0.08051124872259999,-0.05073032140520001,0.10514581679059999
1134,567.2542407999999,0.11378726778396,0.054727301598599995,-0.24804414747123998
1135,567.7542407999999,-0.12416792073096002,-0.15554725525750002,-0.20780961034620002
1136,568.2542407999999,-0.1308124866848,0.37802183804600004,0.5811618232926
1137,568.7435105822223,-0.30031613250466666,-0.4502821829195556,-0.09856195450311112
1138,569.2542407999999,0.39947911844752,0.10061531186139999,-0.20409645081518002
1139,569.7542407999999,-0.0701778433647,0.2368481016079,-0.042538452100419996
1140,570.2542407999999,-0.10684021530302001,0.0456605446482,0.31639163013
1141,570.7542407999999,-0.116890309442602,-0.32936488269956,-0.2205804634296
1142,571.2542407999999,0.3918401146062,0.118647246361,-0.011346321101200001
1143,571.7542407999999,-0.11178660631126,-0.03650890350540001,-0.15316206932
1144,572.2542407999999,0.1415617196344,-0.015969132208819993,0.14317146298959998
1145,572.7542407999999,-0.7337425983065999,-0.023232343203799997,0.3539102744562
1146,573.2542407999999,0.3965170151476,-0.13886811256782,-0.32092488288528004
1147,573.7542407999999,-0.10229657888498,0.11830520629156,-0.03680738449557601
1148,574.2542407999999,0.016829834388799998,-0.01159655093732,0.3489655875948
1149,574.7542407999999,-0.29463415376204,-0.029164590870200003,-0.37033934592240003
1150,575.2542407999999,0.33558544752978003,-0.1205972838374,0.1783871460086
1151,575.7542394,-0.0834374785678,0.0539980733312,-0.07349183084174
1152,576.2542394,0.6798205346486,-0.02754985153,-0.2153431224904
1153,576.7542394,-0.44240735646060003,-0.0419530993676,0.4156476402514
1154,577.2542394,0.84880055010908,-0.03774287612298,-0.3201152896882
1155,577.7471622590909,-0.2911876555296591,0.026640792976590902,0.20249648528954545
1156,578.2492394,0.38871843514062,-0.12931208878399997,-0.255155477538
1157,578.7492394,-0.5254619104078,0.020741305198223994,0.22665889739958
1158,579.2492394,0.4004751792412,-0.17390395730710762,-0.11321140289119999
1159,579.7492394,-0.61299094724012,0.045312543515800004,0.048602027918599994
1160,580.2492394,0.358121052611,-0.04020015059879999,-0.1434634495348
1161,580.7492394,-0.6610106628939999,-0.04698453367664001,0.11711417200320003
1162,581.2492394,0.7590046012457999,-0.2885197013488,-0.14661026955579998
1163,581.7492394,-0.3114086425167,0.01571798875739999,0.4769042301602
1164,582.2492394,0.3446025721444,-0.25789682028452,-0.21306430820200004
1165,582.7492394,-0.3060752439402,-0.03474890261322,0.133449716601
1166,583.2492394,-0.21443246464192,-0.19741724429644003,-0.2940497779724
1167,583.7492394,-0.06984369808679601,0.1274814981338,0.2648564910526
1168,584.2492394,0.6390091985751201,-0.2918098306452,-0.38658326156839995
1169,584.7492394,-0.351105343058,0.136675836878,0.34886305812642
1170,585.2492394,0.1400548768432,-0.14526572496680001,-0.51035602574062
1171,585.7492394,-0.19637666222,-0.1092036564612,0.585802116375
1172,586.2492394,0.10041430056540002,-0.1107988417088,-0.42098587035039997
1173,586.7492394,0.3123548817772,-0.017257415439339993,0.102387552238
1174,587.2492394,-0.0272125202298,-0.1659386840646,0.1680426979488
1175,587.7492394,0.005021576916980013,-0.052683884790600016,0.14991405487399997
1176,588.2492394,-0.095205938217,-0.0701180961709,-0.5375908470172
1177,588.7492394,0.1559838878916,-0.2823330137666,0.3899775982425999
1178,589.2492394,0.06221998691552,0.12652255758692,-0.189618244138
1179,589.7492394,0.11392208042164001,-0.045666007020199996,0.08158405301828
1180,590.2492394,-0.235028401906,-0.053452119311199996,0.0946061611292
1181,590.7492394,0.2237223143992,-0.12640348046580002,-0.21358529092616
1182,591.2492394,-0.12776130736684002,-0.002103900727020005,0.14284909245406002
1183,591.7492394,0.42384519757708,-0.09028140069879999,0.055543260606200004
1184,592.2492394,-0.32993610916939997,0.057119714085,-0.08919675824599999
1185,592.7492394,0.38232318343480004,-0.08597317486084002,-0.19509540565420003
1186,593.2492394,-0.5698633944798001,0.1308050073746,0.3661985969424
1187,593.7492394,0.3414661237884,-0.2553228273784,-0.344053049058
1188,594.2492394,-0.3121342086714,-0.035060068873800004,0.6461768531624
1189,594.7492394,0.310460046506,-0.1608383270758,-0.47136094097424
1190,595.2492394,-0.14852460264480002,0.19247187820865597,-0.020448217408599985
1191,595.7492394,-0.0781830746474,-0.285029426585122,-0.1370261859436
1192,596.2492394,-0.2203355002248,0.07302359772738001,0.26242594715800005
1193,596.7492394,0.1632396804992,-0.14677278412724,-0.19821001053700002
1194,597.2492394,0.2789008414766,-0.034565634799799995,0.0047848701257999764
1195,597.7492394,-0.1190541971188,-0.1223606026182,0.128607130122
1196,598.2492394,0.008820757871399989,-0.036450356618262,-0.0352995585956
1197,598.7492394,0.4915911698518,-0.026090046055799995,-0.12602284430439997
1198,599.2492394,0.1593961101786,-0.18522294552982,0.219293966292
1199,599.7492394,-0.4035751772136,0.005964845715680005,-0.011303777721599996
1200,600.2492394,0.133273790169,0.0116069319974,0.07308062554033999
1201,600.7492394,-0.317264306583,-0.10672524691420002,0.049378576267800005
1202,601.2492394,0.32529554724820003,-0.04486636625454001,-0.19868967056886
1203,601.7492394,-0.47411520598080004,0.154010073955282,-0.2843978214516
1204,602.2492394,0.475522743441,-0.3462601703368,0.3294801330176
1205,602.7492394,-0.12709356307674,0.04882884592276,-0.290193796168
1206,603.2492394,0.6486401417828,0.12030625493099999,-0.1112777328376
1207,603.7492394,-0.7396103417915999,-0.12714964866439998,0.5411316108448
1208,604.2492394,0.6702103960378,-0.2231836827176,-0.11632957454239999
1209,604.7492394,-0.327814619575,0.34148105724640004,-0.20904442786699998
1210,605.2492394,0.3493955284584,-0.3592108415052,-0.10256329533000001
1211,605.7492394,-0.14601242422719998,0.25552794217212,0.18012114525079997
1212,606.2492394,-0.040213239520600005,-0.24904371634024003,0.05937075614800001
1213,606.7492394,-0.5559170499614,-0.0956282356298,-0.0001503849058000073
1214,607.2492394,0.2573919910586,0.06257594964699999,-0.1027075100216
1215,607.7492394,0.3003548764942,-0.015365908950859994,-0.2204622268676
1216,608.2492394,0.00018519222340001028,-0.25613595755598,0.07528703691139998
1217,608.7492394,-0.09403114322020001,-0.10019182414519999,0.16490566252799999
1218,609.2492394,-0.0730454241872,0.0394831408374,-0.15337640764279997
1219,609.7492394,0.15088249503808002,-0.08083098626754202,0.03265632632999997
1220,610.2492394,0.0751221528858,-0.0543859746056,-0.09185799598019999
1221,610.7492394,0.17352430283434,0.034635936321199996,-0.03453101155300001
1222,611.2492394,-0.32822231653255995,-0.016442149373600005,-0.0426208877376
1223,611.7492394,0.295347437858,-0.1959762796924,0.45593926424560005
1224,612.2492394,0.25459973988359996,0.03940667852559999,0.1347656440662
1225,612.7492394,0.4062899607762,0.01448662701119999,-0.3745904064456
1226,613.2492394,-0.5067057061174,-0.06108220531139999,0.12939841269780003
1227,613.7492394,0.22528384865940002,-0.1032398179056,-0.04822493556100001
1228,614.2492394,-0.24000371813488003,0.03894680113062,-0.44163697247659994
1229,614.7492394,-0.18510279897299997,-0.0835913208444,0.06719972611939999
1230,615.2492394,-0.6908681785676001,-0.22465487813700002,0.29336789129901997
1231,615.7492394,0.902140154817,-0.031066446924400016,-0.4208213901596
1232,616.2492394,-0.3665582740464,-0.027509477887279997,0.5045062636914001
1233,616.7492394,0.5478560352538,-0.10517596927640001,-0.2281480884544
1234,617.2492394,-0.43292197824740003,-0.15911968498776,0.35413931846748
1235,617.7492394,0.38514928403200005,0.1424779087466,-0.3698595142904
1236,618.2492394,-0.44554613941119997,-0.21107099215240002,0.16496058464600005
1237,618.7492394,0.46434759857566,-0.17030823138159998,0.0510620880434
1238,619.2492394,-0.08848892687259999,0.16588822213,-0.009767074619599993
1239,619.7492394,0.41664274156060005,-0.11244207320188,-0.10293174743982
1240,620.2492394,-0.34710194347460005,-0.008809007990499997,0.1945315456264
1241,620.7492394,0.13346890273711998,-0.30781262129776,-0.220080661822
1242,621.2492394,-0.32576876490351997,0.12965171657059998,-0.20277075766660002
1243,621.7492394,0.36486102343326005,-0.04563914059419999,0.012007694250599998
1244,622.2492394,-0.1484540081156,-0.2130188080784,0.3130173778314
1245,622.7492394,0.275023254168,-0.0368430490974,-0.34592488285660006
1246,623.2492394,-0.5271404200842,0.021636961704480005,0.1112861728812
1247,623.7492394,-0.34368749682416,-0.925395989240902,-0.1535257339668
1248,624.2492394,0.8709736370822,-1.416464923668,0.4029147433768
1249,624.7492394,0.06767633615039999,-0.801261734477,-0.033958492266
1250,625.2492394,0.063083508606,-0.4652283322956,0.11535528176000001
1251,625.7492394,0.38925225851219997,0.0824695425056,0.09707118036199999
1252,626.2492394,0.49779364470096,-0.0147927764702,-0.10086585996880004
1253,626.7492394,-0.39035276648260003,0.11645513210999998,-0.37508010857600005
1254,627.2492394,-0.50449550984184,0.05340322390176001,0.22581794743143402
1255,627.7492394,-0.013692110772399999,0.5466523059939999,-0.15438674927760002
1256,628.2492394,0.616222406036,0.3712209552486,-0.3254063701332
1257,628.7492394,-0.52467020448116,0.32140523434034,0.4407523536502
1258,629.2492394,0.06104648231779999,-1.0915822863358,0.07621737482728
1259,629.7492394,-0.2233092178364,-0.6811893701302,0.09887563707624
1260,630.2492394,-0.004622732080740011,-0.2236344552162,0.08532200814970001
1261,630.7492394,0.350045682204,-0.353729971622,-0.055883731860020006
1262,631.2492394,0.18121653389599998,0.3296930837536,-0.14728971480970002
1263,631.7492394,-0.2180141688903,0.3407022786122,-0.048485298156540006
1264,632.2492394,-0.199109892846,0.277957432268,-0.03753057479922
1265,632.7492394,0.14121470361818,0.1022053813938,-0.05276224136512
1266,633.2492394,0.057811887114934006,0.022305176259012002,-0.019562129975759998
1267,633.7492394,-0.034006541649696,0.060107035639040005,0.0009099197371318001
1268,634.2492394,-0.040929201689900004,-0.0013815212249979993,-0.0061040115369
1269,634.7492394,-0.03135715723121,0.015433344838879998,0.009324665068476
1270,635.2492394,0.059068958907280006,-0.030187244415239997,-0.00803039550794
1271,635.749239792,0.007067980615980001,0.010974082947494,-0.0022527885437399996
1272,636.2492397999999,-0.015771463217262,0.00688563585395,0.0036647224426040004
1273,636.7492397999999,-0.0718532809646,0.008515393733947,0.01772773742834
1274,637.2492397999999,0.08613671482148,-0.03923624753368,-0.014215812683640002
1275,637.7492397999999,-0.0667666310074,0.21189188957648,-0.027802295688490002
1276,638.2492397999999,0.055426170825399995,0.7226273989642,-0.1609775733978
1277,638.7492397999999,-0.0828250122356,0.25730591769662,-0.187220191932666
1278,639.2492397999999,0.1815134081344,0.8366665339639999,0.042924366001400004
1279,639.7492397999999,0.2816306102174,-0.47390274643606,0.0482023430014
1280,640.2492397999999,-0.008195692911800011,0.29194471357824,0.04850320813474
1281,640.7492397999999,-0.27595903034999997,0.1957930219016,0.03140409465000001
1282,641.2492397999999,-0.3011303326628,-0.8226795411055999,0.036660261116999986
1283,641.7492397999999,-0.24557961137504003,-0.0821655559516,0.07657389640139999
1284,642.2492397999999,0.0755599435672,-0.3474836397526,-0.423755846048
1285,642.7492397999999,0.29567345620859997,0.338884069882,0.65352296824808
1286,643.2492397999999,-0.310167669646,-0.2888091004068,-0.23257496834480001
1287,643.7492397999999,0.5482521283802,0.07875459907304,0.21957147597319998
1288,644.2492397999999,0.023000637866599984,-0.2986028730492,-0.2456503200514
1289,644.7492397999999,0.17128638983004,0.29498756378979996,0.031350154857399996
1290,645.2492397999999,-0.78979294417338,-0.37017392933399995,-0.1710147476426
1291,645.7492397999999,0.19538485291526,-0.06840755879760001,0.5853815078589
1292,646.2492397999999,0.41020004273438,0.0246540838503,0.045949001284460014
1293,646.7492397999999,0.04572380543019999,-0.09597879737079999,-0.17706336018200003
1294,647.2492397999999,0.1742320299198,-0.31508075679580005,-0.1384258937632
1295,647.7492397999999,-0.33613524912722,0.1730882256166,0.3436448574198
1296,648.2492397999999,0.11647682666808,-0.242068228799,0.4609382724538
1297,648.7492397999999,-0.08846874238218,-0.24346961808439999,-0.5702867698698
1298,649.2492397999999,-0.23561688423099997,-0.1964783689384,0.2510824394204
1299,649.7492397999999,0.0948621988394,-0.38956838250479997,0.014394388237999997
1300,650.2492397999999,0.15843407151660002,-0.2039415675188,-0.3446788597394
1301,650.7492397999999,0.034444682575060004,0.075172679424,0.24304173463693998
1302,651.2492397999999,0.40625136139,-0.1226677000679,0.12198904039328001
1303,651.7492397999999,-0.306451811751,-0.236968612081,0.18011214257655997
1304,652.2492397999999,0.055079662787799986,-0.045258377783080006,-0.1748222733124
1305,652.7492397999999,-0.0796080541982,-0.0756304961166,-0.2945785713206
1306,653.2492397999999,-0.13035706521536,-0.023147630692380003,-0.0949973393046
1307,653.7492397999999,-0.31679273368534,0.0020085534317200093,-0.016474390037920006
1308,654.2492397999999,-0.007184910779000003,-0.13769914428054,0.27925785065106
1309,654.7492397999999,-0.06553960799298,-0.017296271497599998,-0.1901579761936
1310,655.2492397999999,-0.08600107193120002,-0.0631810946006,0.09655909533059999
1311,655.7492398,0.29707913401159997,-0.06332799659686,0.003836565042940001
1312,656.2492398,0.17957063197122,-0.024293033699200006,0.0431590938148
1313,656.7492398,0.44615215542184006,-0.010303944679600004,0.32647766116084
1314,657.2492398,-0.07836980344476001,-0.0221739020156,-0.27816726683140003
1315,657.7492398,0.2057543277696,-0.16762855325579998,0.158766498560778
1316,658.2492398,-0.45736204146958004,0.075336626454,-0.162519760164
1317,658.7492398,0.4652723550492,-0.2065695938432,-0.25149006839726196
1318,659.2492398,-0.11269983766200001,0.16420781939360002,0.214912681558
1319,659.7492398,0.1035604644014,-0.1063966020764,0.2311267662018
1320,660.2492398,-0.14709814073592,-0.12906083933452,-0.535850029
1321,660.7447250844444,0.06570881209799999,-0.2236167779926667,0.23260042401288888
1322,661.2492398,0.03864308353552,-0.13303560590448,0.5513048839588
1323,661.7492398,0.25941537617279997,0.007077983277999999,-0.26937454224760005
1324,662.2492398,-0.42207659243032,-0.16225492666986,0.1646634292656
1325,662.7492398,0.187386263605802,-0.0367462556174,-0.05700467112200001
1326,663.2492398,-0.242229506361,-0.3224433775066,-0.16615625381794
1327,663.7492398,0.41330775200756004,0.028746850490980004,-0.07767358782719999
1328,664.2492398,0.16134681940659998,-0.14552850723705998,0.02538066867720001
1329,664.7492398,-0.1396004104412,0.16937045574296,0.3255357075078
1330,665.2492398,0.1227672696106,-0.0798783704594,-0.09962550164972
1331,665.7492398,-0.15253088235110002,-0.16205152859716002,-0.2467355823662
1332,666.2492398,-0.0728534658207402,-0.2490103107654,0.262528896324194
1333,666.7492398,0.6220330804444,0.21520375104060002,-0.1995433521408
1334,667.2492398,-0.12460717438238002,-0.1103206276864,-0.2769853019984
1335,667.7492398,0.27086805165419997,-0.0213446468096,0.32011678697859997
1336,668.2492398,-0.5837831592542,-0.037427126707219996,-0.004586753819999987
1337,668.7492398,0.6553680252965001,0.06099181487006599,-0.02388509755439998
1338,669.2492398,-0.294850777324,-0.1523536133914,0.10680154799097999
1339,669.7492398,0.360989981898,0.0056595969353400045,-0.10662947650799999
1340,670.2492398,-0.11115625856340001,0.012736809230699996,0.17431421276200001
1341,670.7492398,0.21756700400698,-0.261275693758,0.10667593962000002
1342,671.2492398,-0.6847165989680001,0.1565232908766,-0.11138648036559998
1343,671.7492398,0.8369603085855999,-0.13708241223768,-0.46353172301420004
1344,672.2492398,-0.32231444360302,-0.07008940341480002,0.5860939025314
1345,672.7492398,0.6830251169362,-0.0127869731072,-0.6819982529499999
1346,673.2492398,-0.6120906579945999,-0.37600904464959994,0.08711884498859997
1347,673.7492398,0.3694800793288,0.1613485177934,0.4034682369358
1348,674.2492398,-0.12001707852098001,-0.275402543855,0.083656463556
1349,674.7492398,0.24050549387579997,0.11897143423105999,-0.3766568946476
1350,675.2492398,0.0466439497354,-0.09184637770080001,0.24116517066899998
1351,675.7492398,-0.067382736169338,-0.0992436322532,-0.3990318870686
1352,676.2492398,0.0726511359366,-0.010451628887999997,0.5967687511163999
1353,676.7492398,-0.2715516382266,-0.32724581243800005,-0.56771819110774
1354,677.2492398,0.2786373186272,0.0581742101897,0.44670029641540004
1355,677.7492398,-0.1312602376864,0.025813109288896,-0.35217077247600004
1356,678.2492398,-0.13398246155664,-0.10664545455439998,0.179355716718
1357,678.7492398,-0.15511578679456,0.12126023397573998,0.0788016033342
1358,679.2492724560001,1.467467529748,0.2179369628522,-0.08631430629431999
1359,679.7520771644445,-1.4452550371677777,-0.27335225938933333,0.6145997153784445
1360,680.2492398,0.6413514062748,-0.27120128778561997,-0.708869543184
1361,680.7492398,-1.0788013446384,-0.079212421171,0.4402999495888
1362,681.2492398,0.33922163635192,0.1116070210782,-0.26305738450439997
1363,681.7492398,-0.4565874922396,-0.0841643720976,0.32946408270444005
1364,682.2492398,0.567294218541,-0.0629433205116,-0.324235315351
1365,682.7492398,0.04348444822066,-0.10622290131967999,-0.11764750478200002
1366,683.2492398,0.18598665355879998,-0.1355355650142,0.193094043727
1367,683.7492398,0.013299373383599995,-0.1073967305406,0.2420534515232
1368,684.2492398,0.24261930110680002,0.04512078437816,-0.391255712496
1369,684.7492398,0.18441731514339998,-0.07075785399259998,0.030407314290800003
1370,685.2492398,-0.3479272395264,-0.092178995300334,0.40466266627400005
1371,685.7492398,0.34847485544819995,-0.164368191977,-0.4833889388912
1372,686.2492398,-0.7525673121288,-0.14594718502492,0.2736780262106
1373,686.7492398,0.6634424173868,0.0031752344941999877,-0.18666173935967997
1374,687.2466466914893,-0.31164491048612764,-0.01581135565276596,0.01787047695908512
1375,687.768593893617,0.796200035780851,-0.04301348448021277,0.01870247654978725
1376,688.2542398,-0.9996724069358,-0.05585963669848001,-0.19358660696698002
1377,688.7542398,0.5052517169835999,-0.27707935961316,0.011742458416200008
1378,689.2542398,-0.56411993507648,-0.050718623991599994,0.3862643432732
1379,689.7542398,0.39682142553248,-0.033961399496599994,-0.4141192340936
1380,690.2542398,-0.7293839824618,-0.10232667920319999,0.2634842205276
1381,690.7542398,0.6081547594788,-0.1059877569892,-0.11238525390139602
1382,691.2542398,0.12018319725056001,0.014250146746200003,0.239375267018
1383,691.7542398,0.5098932326166,-0.1263679842772,-0.1293398666776
1384,692.2542398,-0.018237348862200024,-0.11168976334672,-0.08075902940399998
1385,692.7542398,-0.2423955339253894,-0.29316451176522,-0.140618257572
1386,693.2542398,0.23478621129232,-0.17172004997606,0.31706556316330003
1387,693.7542398,-0.3137122976984,-0.083237437908,-0.32273855209960006
1388,694.2542398,0.4559748059218,-0.14038240316800002,0.13278115269659999
1389,694.7542398,0.12241001964099998,0.032319730518799994,-0.1828425788768
1390,695.2542398,0.648592054824,-0.126333687605746,0.25397360802560004
1391,695.75423931,-0.013497600564199993,0.14470788540718,0.057767009704200005
1392,696.2542393,-0.1479099559114,-0.48202266330800003,-0.10458817484339997
1393,696.7542393,0.07952026131374,0.11233776621681998,-0.33070604323459996
1394,697.2542393,0.310616295332,-0.0948975552858,0.278953771604
1395,697.7542393,-0.022453026180399994,0.0323980602776,-0.200496444691274
1396,698.2542393,0.27312456371,-0.04794970196897999,0.24043651575300004
1397,698.7542393,0.0952343690608,0.02723026620476,0.007379217158400013
1398,699.2542393,-0.326322474475,-0.22580007440462002,-0.030476617814600003
1399,699.7542393,-0.1511084699476,-0.32995240835780004,0.1272590446361
1400,700.2542393,0.04195507287980001,0.04690986216780001,-0.1436977386694
1401,700.7542393,-0.012987914105999998,-0.11423416272520001,-0.2716701793868
1402,701.2542393,-0.25910004137384,-0.05589920951257999,0.43782930376
1403,701.7542393,-0.06347747175294,-0.055653490255199986,-0.28345395096799997
1404,702.2542393,-0.37105983379999996,-0.22404208408606,0.20444231987560002
1405,702.7542393,0.63599612832,-0.08577505047192,-0.031247711135599977
1406,703.2542393,-0.36732987405158,0.0570390028528,-0.36086029048260004
1407,703.7542393,0.69046430593292,-0.148009790472,0.2058315848908
1408,704.2542393,-0.023781909353619998,0.009869517554700004,0.1678087806724
1409,704.7542393,-0.2291734511082,-0.19228307516686002,-0.098165893529
1410,705.2542393,-0.546077691311,-0.13087761760584,-0.0029273605477999885
1411,705.7542393,-0.320650633522,-0.31011622486316404,0.0592970371692
1412,706.2542393,1.2488156473836,-0.22911934852555998,-0.25951306340790004
1413,706.7542393,-1.846408180032,0.08321224686859999,0.30679720874
1414,707.2542393,0.294605369542,-0.101249158405,-0.16307944294658
1415,707.7542393,-2.2293427789719997,0.458672100262,-0.22325716968599998
1416,708.2542393,-2.7057808971,0.033530875436,0.0707187843586
1417,708.7542393,-0.53925387322986,-0.3652714895892,0.4703215408188
1418,709.2542393,0.2231229543964,-0.2516493952324,0.4056559180944
1419,709.7542393,0.26078844962458,-0.1848968589458,-0.31327373508899997
1420,710.2542393,-0.08374699113060002,-0.6255446471639999,0.31080701828600005
1421,710.7542393,0.8510355496512,-0.3915975540835,-0.05895277970440001
1422,711.2542393,0.19467446802392,0.04665001868040001,-0.4235743522528
1423,711.7542393,0.611275243736,-0.1272656184524,0.5322648429948
1424,712.2542393,0.17212834954279999,-0.1068128474058,0.08992000586180002
1425,712.7542393,0.80377611159466,-0.7802035927295999,-0.3832304287662
1426,713.2542393,0.5173995494396,-0.19170599343439998,0.495728158858
1427,713.7542393,0.03675500035240001,0.2755439928128,-0.3964331054932
1428,714.2542393,-0.5309269038132,-0.22624872802714002,0.1952946853886
1429,714.7542393,-0.16536798535220001,0.5111108714425999,-0.4312420368118
1430,715.2542393,-0.08314453005240001,-0.4149825291362,0.9757476424800001
1431,715.7542393,-0.2182578864362,-0.32593103548999997,-0.19313144682299999
1432,716.2542393,-0.32982410432088005,-0.20970503583898,0.4381997108886
1433,716.7542393,-0.55441003830532,-0.7955820348798,-0.310259513892
1434,717.2542393,0.05935484114319999,-0.12059236990319999,-0.50499916078778
1435,717.7542393,0.18630148648039999,0.12393480375338,-0.1366650009452
1436,718.2542393,-0.6932197433812,0.1405267198528,-0.25277007104324
1437,718.7542393,-0.490998384627,0.016517539587199995,0.7621838855331999
1438,719.2542393,-0.298476007408,-0.030761578079600005,-0.400699272214
1439,719.7542393,0.5421193921722,-0.33736635653900005,0.4781909847662
1440,720.2542393,-0.005857317722999999,0.037468815441999995,-0.34726942062324
1441,720.7542393,-0.8329175901434,-0.5300944224027,-0.13446679115959997
1442,721.2542393,-0.05605918285939999,-0.45573766108679997,0.398988466246
1443,721.7542393,0.6773240077321999,-0.40202038103924004,-0.025334959052399988
1444,722.2542393,0.07895550248596,-0.1043480563198,-0.08918455121507998
1445,722.7542393,-0.1914514160266,-0.34125146539,0.35704054833579996
1446,723.2542393,0.0815215226886,-0.2882249826126,-0.395569591521
1447,723.7542393,0.2122636884336,-0.1926063308042,0.58723996166058
1448,724.2542393,0.29963051254019996,-0.33963271249800003,-0.6945819950248
1449,724.7542393,0.4471168911932,-0.5396942174362,0.34626607891100003
1450,725.2542393,0.03567107797300001,-0.18003496108857997,0.2276074600566
1451,725.7542393,0.5717996192282,-0.0291619861396,-0.4248833180096
1452,726.2542393,0.3144351637684,-0.2212403771256,0.3117145251872
1453,726.7542393,0.37434335706840005,-0.19628967167380001,0.23226936336879997
1454,727.2542393,0.1087510991148,-0.17549462079952,0.047303514425880024
1455,727.7542393,0.495079219347,-0.3666809368386,-0.11042675018819999
1456,728.2542393,2.1515207731518,0.28161510527600003,0.520379428842
1457,728.7542393,-0.6336148310417999,-3.5273753321070003,1.393920602822
1458,729.2542393,-1.2056727981914,-3.4401994920520003,0.856468143432
1459,729.7542393,2.918029208182,-0.3576802498204,1.9346465492726599
1460,730.2542393,1.4468482828207998,-0.8858779690816699,0.49825895306600004
1461,730.7542393,0.946474568827,0.1910866181722,-0.11061308859415998
1462,731.2542393,1.3674736881365999,0.20967219355284,0.732105207452
1463,731.7542393,2.459855690038,-0.26276055993459996,0.996226816138
1464,732.2542393,0.322659752372,-0.5628852242376999,0.27355603215546
1465,732.7542393,0.3331948518718,0.35580079468020004,-0.3718283748909
1466,733.2542393,-0.3505601382326,-0.33425677265979997,0.757612695679
1467,733.7542393,-0.9856391777142,-0.85829728841896,0.212512245146
1468,734.2542393,0.1599422508507,-0.4675035953398,-0.10254371642740001
1469,734.7542393,-0.596999763884,-0.5323877000496,0.289651136431432
1470,735.2542393,0.1651123619166,-0.029502803681599996,0.05301975249920002
1471,735.7542393,-0.8322383910800001,-0.5415805321611,-0.2978379059124
1472,736.2542393,-0.2945439150956,-0.2906027567604,0.1302313041214
1473,736.7542393,0.003936940437400001,-0.17311251791219998,-0.2077156353006
1474,737.2542393,-0.1204515773001,-0.19265670085103997,0.025510377880000004
1475,737.7542393,-0.11665631860916,-0.62468331033376,0.44755601881799995
1476,738.2542393,-0.002832494392460002,0.043767883484680005,-0.327317047116
1477,738.7542393,-0.1906441709322,-0.3648533844856,0.147839431762098
1478,739.2542393,-0.20950082677600002,-0.130244731608,0.1131856154982
1479,739.7542393,0.13223089589419998,-0.10914356054539999,-0.44496633529600005
1480,740.2542393,0.00172046662660001,-0.251687265708,0.23749611855519998
1481,740.7542393,-0.22844193143099598,-0.276753542206,-0.11784319878800005
1482,741.2542393,-0.6647178742786,-0.1194107448918,0.2002820300614
1483,741.7542393,0.5830068112962,-0.18944752574232002,-0.06862718584919998
1484,742.2542393,-0.5009679552944,0.11103549063340001,0.15615095138002
1485,742.7542393,0.7749155148972601,-0.0930129593894,-0.008576240522800007
1486,743.2542393,-0.54638451697168,-0.12267651305880001,-0.27316169741199997
1487,743.7542393,0.4574060812488,-0.17473123386099998,0.3365647411442
1488,744.2542393,-0.18412890672340002,-0.021145684407580002,-0.20372382165502
1489,744.7542393,0.2929219698698,0.0280793314684,0.05334957120419999
1490,745.2542393,-0.43591656567667997,-0.2217449983924,0.03528953554140001
1491,745.7542393,0.5579602407742,-0.15371550973753997,-0.045491342469199995
1492,746.2542393,-0.643986301401,-0.1520137429652,0.0978662490988
1493,746.7542393,0.2606789756044,-0.302524117195,-0.2708545398394
1494,747.2542393,-0.7349715495185001,0.190109710696,-0.310164136854
1495,747.7542393,0.6439040088452,-0.7469558453694001,0.9367163658326001
1496,748.2542393,-0.7508461978634,-0.1992756482882,-0.4512736702114
1497,748.7542393,0.06494575383100004,-0.2987894916678,-0.22226557731100002
1498,749.2542393,0.4139427101226,0.180686430638,0.0786584854108
1499,749.7542393,0.169540754592838,0.12610362249876,-0.463256387705
1500,750.2542393,-1.3784707087472001,0.44450699982400005,1.21113858219118
1501,750.7542393,1.5085108519080002,-0.5155194043838001,-0.8668176555646001
1502,751.2542393,-0.45629732849619997,-0.020287243116599997,0.287952976197
1503,751.7542393,0.5098628734856,0.0335869345194,0.110280609124
1504,752.2542393,-0.16927404046688,-0.04074952094126001,-0.567111711424
1505,752.7542393,-0.1589651173372,-0.4623122244596,0.7745958614151999
1506,753.2542393,-0.09751231846412,-0.10336668684,-0.11304962162734
1507,753.7542393,0.35818336278968,0.17238052636942,-0.1635675716218
1508,754.2542393,-0.6382970225536,-0.17533284859228002,-0.20142889025472
1509,754.7542393,0.2543660512472,-0.15302211277348,0.33022123336836
1510,755.2542393,0.13313419582719999,-0.08809617963920001,-0.25004619594099997
1511,755.75424026,0.0494997981532,-0.03816337095120001,0.26289036752
1512,756.2542403,-0.4148425537344,0.024465270913556002,-0.32656537064159996
1513,756.7542403,0.026712955237936008,-0.23078596428200002,0.21108182914300003
1514,757.2542403,-0.540868419997,-0.015295056822800003,0.354588584842
1515,757.7542403,0.5505415219156,-0.26995627760822,-0.23719408032266004
1516,758.2542403,-0.1373636069874,-0.08786114721666,-0.059656429246
1517,758.7542403,0.5000058186058,0.17215755162379998,-0.1691921710876
1518,759.2542403,0.10659001050586799,0.2009486213314,0.14063144685617998
1519,759.7542403,0.6359256044380001,-0.08499243573455999,-0.1346483898188
1520,760.2542403,-0.20977549018379998,0.025213015084200006,0.16591614730002
1521,760.7542403,-0.044060784013199995,-0.1804213281422,0.21655724521960004
1522,761.2542403,-0.5728229766935999,0.0699710127792,-0.4598914145896
1523,761.7542403,-0.067193140985,-0.21756688659964,0.44093214031941996
1524,762.2542403,0.2525604808348,0.0340290031916,-0.3723604107081999
1525,762.7542403,0.13687144280068,-0.1259187893695,0.37644438747000003
1526,763.2542403,-0.12706972002952,0.013800735907800002,-0.32350019457720003
1527,763.7542403,0.28934611141858,-0.0738902643146,0.1075836181816
1528,764.2542403,-0.12822372314728,0.0722595453968,-0.2814693355288
1529,764.7542403,0.500504286281,-0.13568047656899998,0.027490406062800003
1530,765.2542403,-0.32215967059999995,-0.06648193701920001,0.10084610944019998
1531,765.7542403,-0.06783578997779999,-0.2492998445216,0.18283068651339998
1532,766.2542403,-0.05480046152479999,-0.483597344776,-0.002079334137999975
1533,766.7542403,0.0841253722088,-0.27158164172939997,0.15950954439159998
1534,767.2542403,0.04709430695176,-0.143334837239,-0.197052049626
1535,767.7542403,-0.51884576913432,0.005848456626599993,-0.4065464210514
1536,768.2542403,0.86694940207564,-0.08755332474159999,-0.1050176715658
1537,768.7542403,0.13425139426276,0.24132438452397997,0.46162261962819995
1538,769.2542403,0.08582242965586,0.22539612099772,-0.02630564690199996
1539,769.7542403,-0.9686181187656,0.2933714419006,-0.14848066331506002
1540,770.2542403,0.19364337469360002,-0.005065424697199994,0.019739303587000004
1541,770.7542403,-0.45739431974699996,0.060738038139000014,-0.22672409053759998
1542,771.2542403,0.65591369866024,0.4579592793584,0.7765520191301999
1543,771.7542403,-0.20919036148476,-0.5267101847962,-0.806892690666
1544,772.2542403,0.55738334779188,-0.36235922481780003,0.6302340888772
1545,772.7542403,-0.23751459004480002,0.20637072621219998,0.0013984013220000157
1546,773.2542403,0.5505007576806,-0.17872537106816,0.03709456444039997
1547,773.7542403,-0.0987684154163,0.0747099954333,-0.32017293932199997
1548,774.2542403,-0.0185469043268,-0.38392011404412,0.2659037113474
1549,774.7542403,-0.6486954581782,0.0311343073872,0.17913229942480002
1550,775.2542403,0.309638738646,-0.11101348532704,-0.1759723949156
1551,775.7542403,-0.013276375546799994,-0.004290223393400001,-0.2200964450974
1552,776.2542403,0.2220405459308,-0.0750822076202,0.22812975881922
1553,776.7542403,-0.1973445987478,0.07836892544439998,-0.15442187315135997
1554,777.2542403,0.14569589018100002,-0.12750568805794,-0.022717790604
1555,777.7542403,-0.3533486151804,0.02224341097339999,0.16819816589870001
1556,778.2542403,0.6228532301948,-0.22747928663981998,-0.1509641933242
1557,778.7542403,0.1130544936624,0.08909457206205999,-0.20222671511620002
1558,779.2542403,0.299715520144,-0.039278767551979996,0.232081365602
1559,779.7542403,-0.0543381273714,0.000952260335239998,0.2528226947658
1560,780.2542403,0.34972006797706,-0.006167999651659996,-0.3124305916208
1561,780.7542403,-0.17800128460274,0.06454790205620001,-0.2334224986812
1562,781.2542403,-0.1571344876088,-0.2905984867826,0.41335900308
1563,781.7542403,-0.7591027176336,0.28542016504699996,-0.5533132552818
1564,782.2542403,0.35321058156,-0.23649333353559998,0.38086051945540006
1565,782.7542403,-0.415410888185812,0.07854382537186,-0.026487684267000017
1566,783.2542403,0.5375440609394,-0.17352293564564,0.0858073234868
1567,783.7542403,-0.10612251999959998,0.12704376383498,-0.08746220584400001
1568,784.2542403,0.3059755146204,-0.1734314061954,0.345210886036
1569,784.7542403,-0.1986088394788,-0.015679207331000002,-0.019959497492000003
1570,785.2542403,0.2943538200958,-0.034744035488522,-0.2313962459608
1571,785.7542403,-0.84876307960464,-0.17178664664898002,0.2090537071272
1572,786.2542403,0.4060691386276,0.038750406356519995,-0.571895570715
1573,786.7542403,-0.27413075211747,-0.0995187273318,0.05127359391800002
1574,787.2542403,0.47012109519399997,0.005954456033100008,0.1556329536922
1575,787.7542403,-0.281510616532,0.01041478154760001,0.35286817552559996
1576,788.2542403,0.14639762044192,-0.24216705917498,-0.268799705512
1577,788.7542403,-0.07963709355256,0.1711168238614,0.1839197349862
1578,789.2542403,0.26758083702372,-0.1230496266608,-0.2308428668978
1579,789.7542403,-0.1780281579319,-0.06563213556399998,0.20343198772760002
1580,790.2542403,0.018454217913000007,-0.158866770854,-0.16716058736463998
1581,790.7542403,-0.2729603564975,0.06192108899679999,0.26296067239740006
1582,791.2542403,0.5640991055792,-0.4647590500224,-0.14944088933019997
1583,791.7542403,-0.22172087909360003,-0.01784891009558,0.16392861358599994
1584,792.2542403,0.152971590764,-0.3396127915308,-0.056552934659600006
1585,792.7542403,-0.3571040225054,-0.10765145716304399,0.231822948398172
1586,793.2542403,1.025250276944,0.0016592615876000016,-0.4370288276104
1587,793.7542403,-0.18616279481658002,0.1261151327268,-0.40207592011279997
1588,794.2542403,0.5441529601802,0.020560742634208,0.33258303642000003
1589,794.7542403,-0.5466078698792,0.17231456838140002,0.09783281325668
1590,795.2542403,0.19304054200860002,0.19977060206060002,-0.44789089203058
1591,795.7542403,-1.0745844781486,0.31680888028799997,1.4291623211539999
1592,796.2542403,1.1561582971154,-0.6974543237688801,-1.37708113661302
1593,796.7542403,-1.4389631796059998,0.01434826509282,0.7937635040019999
1594,797.2542403,0.8740065384275999,-0.1705738422138,-0.3049545097288
1595,797.7542403,-0.4616574883608,0.046001522839759994,0.35758960719
1596,798.2542403,0.6464049762278,-0.10545639903712001,-0.37273304938819996
1597,798.7542403,-0.5429325473396,-0.019218027806039994,0.40638870243619996
1598,799.2542403,0.45717876490279996,-0.25470177293679996,-0.07401275633919999
1599,799.7542403,-0.1946689534194,0.010918980824600012,-0.0046004771819999875
1600,800.2542403,0.34729134202542,-0.055237725748799996,-0.4015286731966
1601,800.7542403,-0.104854363191,0.0983775895976,0.22553526879444
1602,801.2542403,-0.2377102267408,-0.22842456376651998,-0.026312637324048805
1603,801.7542403,0.039376578325000015,-0.12091345626599999,0.13669709204720001
1604,802.2542403,0.21705035807800002,0.024434644578117996,-0.519170503623
1605,802.7542403,0.0895787859404,-0.1048857374384,0.3371752071758
1606,803.2542403,0.1047218007052,-0.0433518572336,0.43296658513880004
1607,803.7542403,0.6724041032706001,0.04358501552467999,-0.331712093384
1608,804.2542403,-1.025419414094,-0.68016616583808,0.8536818600408
1609,804.7542403,0.32049307821760004,-0.2077332520506,-0.06790189762200001
1610,805.2542403,0.06581151723900001,-0.01020079855220002,0.03722335815997988
1611,805.7542403,0.225881857856,0.012030951971900017,-0.33421540263780003
1612,806.2542403,0.19539613484979998,-0.23965917596120598,0.36968649867400005
1613,806.7542403,0.15423998356000002,0.023185725160800006,0.04639410007000002
1614,807.2542403,-0.28693154818780003,-0.26184592486339997,-0.5304618168098
1615,807.7542403,0.766931188088,0.35395975352579995,-0.10699346545300001
1616,808.2542403,-0.0815147495556,-0.2563025235928,-0.03733285904000001
1617,808.7542403,0.3691991472236,0.16977389334598,-0.5083576297972
1618,809.2542403,-0.3015460825194,-0.271609516129,0.5760462760784
1619,809.7542403,0.4022165918596,0.4093700504212,-0.46272585868142
1620,810.2542403,-0.15263548848581998,-0.16919514178642,0.21270667088259998
1621,810.7542403,0.04054699900219999,0.044110040659,0.03201720238119996
1622,811.2542403,-0.53662429812,-0.38426979063814004,0.05375505448419998
1623,811.7542403,0.19643690830119998,0.10294917820320001,0.0703298569004
1624,812.2542403,-0.080577065979,0.2396667719362,-0.2060562992
1625,812.7542403,0.28972048995954003,-0.13620898251279998,-0.18437184328734
1626,813.2542403,0.5953651345276,0.325905473224,-0.23495202063940002
1627,813.7542403,0.83815483570294,0.011743969930799998,-0.36322667126319996
1628,814.2542403,1.4825713038396,0.7778843462480001,-0.255426988538942
1629,814.7542403,0.361765267822,-0.32208566903272,-0.4045360944168
1630,815.2542403,1.3989651513116,0.5354520153851999,-0.450423278798
1631,815.754239628,-0.5023032736784,-0.4246663308468,0.880385608542
1632,816.2542396,0.5035528636048,-0.1321356773116,-0.64359920502956
1633,816.7542396,0.3707478559264599,-0.17180106877979998,-0.18601127631599998
1634,817.2542396,0.9454008602471999,0.1897727889356,0.47617824555048005
1635,817.7542396,0.41484571457948,-0.0829359519488,-0.37374168398999996
