"Time (s)","Acceleration x (m/s^2)","Acceleration y (m/s^2)","Acceleration z (m/s^2)"
1.798763000E-3,-5.879165173E0,2.364108801E0,1.044706345E1
1.054522100E-2,-5.225924492E0,2.163111687E0,9.980463028E0
2.054522100E-2,0.000000000E0,0.000000000E0,0.000000000E0
3.054522100E-2,0.000000000E0,0.000000000E0,0.000000000E0
4.054522100E-2,0.000000000E0,0.000000000E0,0.000000000E0
5.054522100E-2,-4.043870449E0,2.435893536E0,6.879364967E0
6.054522100E-2,-3.931407690E0,2.706282377E0,6.556334019E0
7.054522100E-2,-4.046263218E0,2.883351326E0,6.465406895E0
8.054522100E-2,-4.046263218E0,2.883351326E0,6.465406895E0
9.054522100E-2,-4.046263218E0,2.883351326E0,6.465406895E0
1.005452210E-1,-4.046263218E0,2.883351326E0,6.465406895E0
1.105452210E-1,-3.627519131E0,2.835494757E0,7.645068169E0
1.205452210E-1,-3.651447296E0,2.694318295E0,7.896314621E0
1.305452210E-1,-3.665804386E0,2.584248543E0,7.970492363E0
1.405452210E-1,-3.613162279E0,2.548356056E0,7.668996811E0
1.505452210E-1,-3.613162279E0,2.548356056E0,7.668996811E0
1.605452210E-1,-3.613162279E0,2.548356056E0,7.668996811E0
1.705452210E-1,-3.613162279E0,2.548356056E0,7.668996811E0
1.805452210E-1,-3.247060299E0,2.498106956E0,7.963313580E0
1.905452210E-1,-3.718446493E0,2.273181438E0,8.791230202E0
2.005452210E-1,-3.907479286E0,1.998006940E0,9.822537422E0
2.105452210E-1,-3.768695593E0,1.538584948E0,1.094237804E1
2.205452210E-1,-3.768695593E0,1.538584948E0,1.094237804E1
2.305452210E-1,-2.342573404E0,2.560320199E-1,1.075573826E1
2.405452210E-1,-2.249253273E0,2.632105052E-1,1.022453117E1
2.505452210E-1,-2.373680115E0,4.259224236E-1,1.023888779E1
2.605452210E-1,-2.416750908E0,8.949156404E-1,1.059063339E1
2.705452210E-1,-2.373680115E0,1.241874933E0,1.083470058E1
2.805452210E-1,-2.423929453E0,1.332802176E0,1.056431198E1
2.905452210E-1,-2.423929453E0,1.332802176E0,1.056431198E1
3.005452210E-1,-2.555534601E0,1.804188251E0,1.001156998E1
3.105452210E-1,-2.311466694E0,1.835294962E0,9.777072906E0
3.205452210E-1,-2.086541414E0,1.847259045E0,9.607182503E0
3.305452210E-1,-1.959721804E0,1.718046665E0,9.549755096E0
3.405452210E-1,-1.942971945E0,1.514656782E0,9.446864128E0
3.505452210E-1,-1.804188251E0,1.469193101E0,9.521040916E0
3.605452210E-1,-1.363908887E0,1.856830359E0,9.178867340E0
3.705452210E-1,-1.112662554E0,2.050648928E0,8.953942299E0
3.805452210E-1,-9.499505758E-1,2.165504456E0,8.772088051E0
3.905452210E-1,-9.858429432E-1,2.194218397E0,8.772088051E0
4.005452210E-1,-1.215553880E0,2.196611166E0,8.994620323E0
4.105452210E-1,-1.509871125E0,2.179861546E0,9.269794464E0
4.205452210E-1,-1.847259045E0,2.196611166E0,9.384650230E0
4.305452210E-1,-1.847259045E0,2.196611166E0,9.384650230E0
4.405452210E-1,-1.847259045E0,2.196611166E0,9.384650230E0
4.505452210E-1,-1.847259045E0,2.196611166E0,9.384650230E0
4.605452210E-1,-1.847259045E0,2.196611166E0,9.384650230E0
4.705452210E-1,-1.847259045E0,2.196611166E0,9.384650230E0
4.805452210E-1,-2.021935225E0,1.447657704E0,8.788837433E0
4.905452210E-1,-2.014756680E0,1.454836130E0,8.740981102E0
5.005452210E-1,-2.014756680E0,1.454836130E0,8.740981102E0
5.105452210E-1,-2.014756680E0,1.454836130E0,8.740981102E0
5.205452210E-1,-2.014756680E0,1.454836130E0,8.740981102E0
5.305452210E-1,-2.014756680E0,1.454836130E0,8.740981102E0
5.405452210E-1,-1.715653777E0,1.038485050E0,8.135597229E0
5.505452210E-1,-1.691725612E0,8.925228715E-1,8.176275253E0
5.605452210E-1,-1.531406522E0,7.010970116E-1,8.640482903E0
5.705452210E-1,-1.531406522E0,7.010970116E-1,8.640482903E0
5.805452210E-1,-1.531406522E0,7.010970116E-1,8.640482903E0
5.905452210E-1,-1.184447169E0,-1.387837082E-1,1.125105190E1
6.005452210E-1,-1.313659668E0,-2.560320199E-1,1.121037388E1
6.105452210E-1,-1.521835208E0,-4.019941986E-1,1.124387360E1
6.205452210E-1,-1.643869162E0,-4.857429862E-1,1.132762241E1
6.305452210E-1,-1.775474429E0,-5.599204898E-1,1.120558834E1
6.405452210E-1,-1.775474429E0,-5.599204898E-1,1.120558834E1
6.505452210E-1,-1.775474429E0,-5.599204898E-1,1.120558834E1
6.605452210E-1,-1.177268744E0,-9.308080077E-1,8.951549530E0
6.705452210E-1,-8.638089895E-1,-8.901300430E-1,9.255437851E0
6.805452210E-1,-1.603191197E-1,-8.063812256E-1,9.611968994E0
6.905452210E-1,3.684946895E-1,-7.992027402E-1,9.659825325E0
7.005452210E-1,7.537391186E-1,-9.451649189E-1,9.595218658E0
7.105452210E-1,1.524227977E0,-1.804188251E0,1.002353382E1
7.205452210E-1,1.584048629E0,-2.266003132E0,1.046620655E1
7.305452210E-1,1.418943882E0,-2.593819857E0,1.026760197E1
7.405452210E-1,1.237089276E0,-2.689532757E0,9.640682220E0
7.505452210E-1,9.690931439E-1,-2.529213428E0,9.178867340E0
7.605452210E-1,1.174875975E0,-2.426322222E0,9.013762474E0
7.705452210E-1,1.404586911E0,-2.306680918E0,9.355937004E0
7.805452210E-1,1.378265858E0,-1.758724689E0,1.051884842E1
7.905452210E-1,1.076770186E0,-1.495514154E0,1.060977554E1
8.005452210E-1,5.407779217E-1,-1.213161111E0,1.032981491E1
8.105452210E-1,5.742774159E-2,-1.088734269E0,9.745966911E0
8.205452210E-1,-4.426721931E-1,-1.093519926E0,9.219545364E0
8.305452210E-1,-9.044869542E-1,-1.155733347E0,8.913264275E0
8.405452210E-1,-1.213161111E0,-1.165304661E0,8.839086533E0
8.505452210E-1,-1.213161111E0,-1.165304661E0,8.839086533E0
8.605452210E-1,-1.213161111E0,-1.165304661E0,8.839086533E0
8.705452210E-1,-1.213161111E0,-1.165304661E0,8.839086533E0
8.805452210E-1,-1.213161111E0,-1.165304661E0,8.839086533E0
8.905452210E-1,-3.613162279E0,3.565305769E-1,7.877171993E0
9.005452210E-1,-2.821137905E0,3.110669553E-1,7.932207108E0
9.105452210E-1,-2.648854733E0,3.684946895E-1,7.846065521E0
9.205452210E-1,-2.648854733E0,3.684946895E-1,7.846065521E0
9.305452210E-1,-2.648854733E0,3.684946895E-1,7.846065521E0
9.405452210E-1,-8.781659007E-1,-1.251446247E0,1.002592659E1
9.505452210E-1,-5.216353536E-1,-1.284945726E0,9.899106979E0
9.605452210E-1,-5.718846321E-1,-1.371087432E0,9.583254814E0
9.705452210E-1,-7.896314859E-1,-1.112662554E0,9.913464546E0
9.805452210E-1,-1.373480201E0,-1.746760458E-1,1.056431198E1
9.905452210E-1,-1.411765337E0,1.505085468E0,1.208136177E1
1.000545221E0,-1.323230863E0,1.342373490E0,1.200957680E1
1.010545221E0,-1.373480201E0,9.595218897E-1,1.134915733E1
1.020545221E0,-1.497906923E0,3.828516304E-1,1.086102200E1
1.030545221E0,-1.749153376E0,1.220339537E-1,1.073180962E1
1.040545221E0,-2.328216314E0,6.939185411E-2,1.081555843E1
1.050545221E0,-2.572284460E0,-1.818545163E-1,1.108833981E1
1.060545221E0,-9.547362328E-1,-1.002592683E0,1.033699417E1
1.070545221E0,-6.460621208E-2,-1.428515077E0,1.032742214E1
1.080545221E0,5.790630579E-1,-1.794616938E0,1.065284634E1
1.090545221E0,8.949156404E-1,-2.088934183E0,1.105723381E1
1.100545221E0,7.250252366E-1,-2.019542217E0,1.075573826E1
1.110545221E0,-3.110669367E-2,-1.356730461E0,9.611968994E0
1.120545221E0,-9.284151793E-1,-3.373879790E-1,7.853243828E0
1.130545221E0,-1.201196909E0,9.978070259E-1,4.874179840E0
1.140545221E0,-1.201196909E0,9.978070259E-1,4.874179840E0
1.150545221E0,-1.201196909E0,9.978070259E-1,4.874179840E0
1.160545221E0,-1.201196909E0,9.978070259E-1,4.874179840E0
1.170545221E0,-6.149554253E-1,1.938186288E0,7.288537979E0
1.180545221E0,-6.580262184E-1,1.730010748E0,9.145368576E0
1.190545221E0,-7.992027402E-1,1.397408366E0,1.054995537E1
1.200545221E0,-7.992027402E-1,1.397408366E0,1.054995537E1
1.210545221E0,-7.992027402E-1,1.397408366E0,1.054995537E1
1.220545221E0,-7.992027402E-1,1.397408366E0,1.054995537E1
1.230545221E0,5.790630579E-1,1.138983607E0,9.951749802E0
1.240545221E0,7.633104324E-1,1.299302697E0,9.434899330E0
1.250545221E0,6.939185858E-1,1.318445325E0,9.418149948E0
1.260545221E0,2.751746178E-1,1.414158225E0,9.707681656E0
1.270545221E0,2.751746178E-1,1.414158225E0,9.707681656E0
1.280545221E0,2.751746178E-1,1.414158225E0,9.707681656E0
1.290545221E0,2.344966233E-1,1.146162033E0,1.044227791E1
1.300545221E0,1.076770201E-1,1.387837172E0,1.036570740E1
1.310545221E0,8.614161611E-2,1.603191137E0,1.020060253E1
1.320545221E0,1.483550072E-1,1.660618901E0,9.858428955E0
1.330545221E0,4.354937077E-1,1.440479279E0,9.379864693E0
1.340545221E0,4.354937077E-1,1.440479279E0,9.379864693E0
1.350545221E0,6.053841114E-1,2.012363911E0,8.391629219E0
1.360545221E0,6.364908218E-1,1.923829436E0,8.295916557E0
1.370545221E0,5.551348329E-1,2.148754835E0,8.358129501E0
1.380545221E0,5.623133183E-1,2.318645239E0,8.551948547E0
1.390545221E0,5.982056856E-1,2.342573404E0,8.650053978E0
1.400545221E0,5.718846321E-1,2.354537487E0,8.700303078E0
1.410545221E0,4.019941986E-1,2.361716032E0,8.499305725E0
1.420545221E0,3.565305769E-1,2.378465652E0,8.197810173E0
1.430545221E0,2.871387303E-1,2.378465652E0,7.963313580E0
1.440545221E0,1.962114573E-1,2.397608280E0,7.996813297E0
1.450545221E0,2.153540403E-2,2.481357098E0,8.140382767E0
1.460545221E0,-1.363908947E-1,2.579462767E0,8.140382767E0
1.470545221E0,-1.339980662E-1,2.682354212E0,8.063812256E0
1.480545221E0,5.862415433E-1,2.311466694E0,8.370093346E0
1.490545221E0,9.092726111E-1,2.079362869E0,8.836693764E0
1.500545221E0,1.194018483E0,1.828116536E0,9.099904060E0
1.510545221E0,1.423729420E0,1.476371527E0,9.202795982E0
1.520545221E0,1.485942841E0,1.136590719E0,9.121439934E0
1.530545221E0,1.289731383E0,1.009771109E0,8.982656479E0
1.540545221E0,8.542376757E-1,1.146162033E0,8.968298912E0
1.550545221E0,8.542376757E-1,1.146162033E0,8.968298912E0
1.560545221E0,8.542376757E-1,1.146162033E0,8.968298912E0
1.570545221E0,8.542376757E-1,1.146162033E0,8.968298912E0
1.580545221E0,8.542376757E-1,1.146162033E0,8.968298912E0
1.590545221E0,8.542376757E-1,1.146162033E0,8.968298912E0
1.600545221E0,-5.431707501E-1,2.584248543E0,8.472985268E0
1.610545221E0,-3.086741269E-1,2.557927370E0,8.616554260E0
1.620545221E0,-3.086741269E-1,2.557927370E0,8.616554260E0
1.630545221E0,-3.086741269E-1,2.557927370E0,8.616554260E0
1.640545221E0,-3.086741269E-1,2.557927370E0,8.616554260E0
1.650545221E0,1.651047617E-1,1.883151412E0,9.365508080E0
1.660545221E0,1.962114573E-1,1.713261008E0,9.253045082E0
1.670545221E0,1.866401732E-1,1.588834286E0,9.298508644E0
1.680545221E0,2.033899277E-1,1.672582984E0,9.293723106E0
1.690545221E0,2.033899277E-1,1.672582984E0,9.293723106E0
1.700545221E0,9.092725813E-2,2.431107759E0,9.382257462E0
1.710545221E0,-1.220339537E-1,2.701496840E0,9.399007797E0
1.720545221E0,-2.392822653E-1,2.833101988E0,9.339186668E0
1.730545221E0,-2.344966233E-1,2.730210543E0,9.238688469E0
1.740545221E0,3.302095234E-1,2.191825628E0,9.186046600E0
1.750545221E0,1.050449133E0,1.574477315E0,9.193224907E0
1.760545221E0,1.569691658E0,9.523434043E-1,9.487542152E0
1.770545221E0,1.500299811E0,9.954141974E-1,9.956535339E0
1.780545221E0,9.379864931E-1,1.313659668E0,1.068634605E1
1.790545221E0,3.182454109E-1,1.624726534E0,1.114337540E1
1.800545221E0,4.307080805E-2,1.619940877E0,1.121755219E1
1.810545221E0,1.842473447E-1,1.337587833E0,1.088734341E1
1.820545221E0,3.278166950E-1,1.237089276E0,1.059302616E1
1.830545221E0,5.479564071E-1,1.308874011E0,1.055474091E1
1.840545221E0,8.231309652E-1,1.399801254E0,1.103330517E1
1.850545221E0,8.446664214E-1,1.622333765E0,1.159083271E1
1.860545221E0,8.015955687E-1,1.933400750E0,1.187797165E1
1.870545221E0,7.992027402E-1,2.141576290E0,1.189232826E1
1.880545221E0,7.345965505E-1,2.227717876E0,1.166501045E1
1.890545221E0,7.465606928E-1,2.124826431E0,1.120080280E1
1.900545221E0,7.657032609E-1,1.674975872E0,1.033938694E1
1.910545221E0,7.130611539E-1,1.579262972E0,1.007617569E1
1.920545221E0,5.670989752E-1,1.610369682E0,9.932606697E0
1.930545221E0,5.670989752E-1,1.610369682E0,9.932606697E0
1.940545221E0,2.751746178E-1,1.751546144E0,9.700503349E0
1.940545221E0,2.751746178E-1,1.751546144E0,9.700503349E0
1.960545221E0,-4.019941986E-1,1.971685886E0,9.875179291E0
1.970545221E0,-4.019941986E-1,1.971685886E0,9.875179291E0
1.980545221E0,-4.019941986E-1,1.971685886E0,9.875179291E0
1.990545221E0,-4.019941986E-1,1.971685886E0,9.875179291E0
2.000545221E0,3.900300860E-1,1.361516118E0,1.011685371E1
2.010545221E0,4.211367965E-1,1.323230863E0,1.030588722E1
2.020545221E0,3.756731451E-1,1.416550994E0,1.045902824E1
2.030545221E0,2.799602449E-1,1.440479279E0,1.029392338E1
2.040545221E0,2.799602449E-1,1.440479279E0,1.029392338E1
2.050545221E0,2.799602449E-1,1.440479279E0,1.029392338E1
2.060545221E0,-1.339980662E-1,1.828116536E0,8.685946465E0
2.070545221E0,-1.818545163E-1,1.840080619E0,8.563912392E0
2.080545221E0,-9.332008660E-2,1.926222205E0,8.559126854E0
2.090545221E0,5.024927482E-2,1.921436548E0,8.501698494E0
2.100545221E0,1.387837082E-1,1.959721804E0,8.403593063E0
2.110545221E0,1.387837082E-1,1.959721804E0,8.403593063E0
2.120545221E0,1.387837082E-1,1.959721804E0,8.403593063E0
2.130545221E0,-8.135596663E-2,1.598405480E0,8.140382767E0
2.140545221E0,-2.105683982E-1,1.543370605E0,8.181060791E0
2.150545221E0,-3.421736360E-1,1.490728498E0,8.295916557E0
2.160545221E0,-3.804588020E-1,1.450050473E0,8.425128937E0
2.170545221E0,-4.570291340E-1,1.397408366E0,8.623732567E0
2.180545221E0,-5.982056856E-1,1.416550994E0,9.399007797E0
2.190545221E0,-6.029912829E-1,1.433300734E0,9.681360245E0
2.200545221E0,-6.029912829E-1,1.519442320E0,9.812965393E0
2.210545221E0,-4.857429862E-1,1.555334687E0,9.781859398E0
2.220545221E0,-3.421736360E-1,1.686939955E0,9.719645500E0
2.230545221E0,-2.943171859E-1,1.899901152E0,9.597611427E0
2.240545221E0,-2.560320199E-1,2.076970100E0,9.406186104E0
2.250545221E0,-2.919243574E-1,2.155933142E0,9.310472488E0
2.260545221E0,-5.000999570E-1,2.091326952E0,9.312865257E0
2.270545221E0,-7.393822074E-1,2.122433662E0,9.473184586E0
2.280545221E0,-8.638089895E-1,2.258824587E0,9.544969559E0
2.290545221E0,-1.110269666E0,2.318645239E0,9.410971642E0
2.300545221E0,-1.237089276E0,2.411965132E0,9.298508644E0
2.310545221E0,-1.373480201E0,2.493321180E0,9.190832138E0
2.320545221E0,-1.316052437E0,2.672782898E0,9.020941734E0
2.330545221E0,-1.076770186E0,2.598605394E0,8.987442017E0
2.340545221E0,-7.680960894E-1,2.409572363E0,8.949156761E0
2.350545221E0,-4.666004181E-1,2.179861546E0,9.131011009E0
2.360545221E0,-2.392822653E-1,2.014756680E0,9.602396965E0
2.370545221E0,-5.264209956E-2,2.050648928E0,1.025803089E1
2.380545221E0,-3.038884699E-1,1.954936147E0,1.065763187E1
2.390545221E0,-3.038884699E-1,1.954936147E0,1.065763187E1
2.400545221E0,-3.038884699E-1,1.954936147E0,1.065763187E1
2.410545221E0,-3.038884699E-1,1.954936147E0,1.065763187E1
2.420545221E0,-3.038884699E-1,1.954936147E0,1.065763187E1
2.430545221E0,-1.414158225E0,1.806581140E0,9.702896118E0
2.440545221E0,-1.134197950E0,1.679761529E0,9.513862610E0
2.450545221E0,-8.709874153E-1,1.569691658E0,9.537791252E0
2.460545221E0,-8.709874153E-1,1.569691658E0,9.537791252E0
2.470545221E0,-8.709874153E-1,1.569691658E0,9.537791252E0
2.480545221E0,-1.584048629E0,2.033899307E0,9.848857880E0
2.490545221E0,-1.500299811E0,1.840080619E0,9.719645500E0
2.500545221E0,-1.170090318E0,1.514656782E0,9.504291534E0
2.510545221E0,-7.130611539E-1,1.237089276E0,9.339186668E0
2.520545221E0,-1.962114573E-1,1.067198873E0,9.269794464E0
2.530545221E0,-1.962114573E-1,1.067198873E0,9.269794464E0
2.540545221E0,-1.962114573E-1,1.067198873E0,9.269794464E0
2.550545221E0,-1.962114573E-1,1.067198873E0,9.269794464E0
2.560545221E0,-6.412764788E-1,2.072184324E0,9.420542717E0
2.570545221E0,-8.135597110E-1,2.175075769E0,8.968298912E0
2.580545221E0,-5.982056856E-1,2.127219439E0,8.276773453E0
2.590545221E0,1.411765367E-1,1.832902193E0,7.743174076E0
2.600545221E0,1.411765367E-1,1.832902193E0,7.743174076E0
2.610545221E0,1.083948612E0,1.354337573E0,9.588040352E0
2.620545221E0,3.780659735E-1,1.428515077E0,1.046142101E1
2.630545221E0,-4.474578202E-1,1.464407444E0,1.078205872E1
2.640545221E0,-1.052842021E0,1.325623751E0,1.064806080E1
2.650545221E0,-1.024128079E0,9.332008362E-1,1.009292603E1
2.660545221E0,-6.628118753E-1,6.388836503E-1,9.542576790E0
2.670545221E0,-3.038884699E-1,1.091127157E0,8.697910309E0
2.680545221E0,1.004985496E-1,1.282552958E0,8.434700012E0
2.690545221E0,6.388836503E-1,1.339980721E0,8.616554260E0
2.700545221E0,1.004985452E0,1.406979680E0,9.164510727E0
2.710545221E0,9.714859724E-1,1.536192179E0,9.604789734E0
2.720545221E0,6.556333899E-1,1.672582984E0,9.798608780E0
2.730545221E0,1.962114573E-1,1.794616938E0,9.968499184E0
2.740545221E0,1.962114573E-1,1.794616938E0,9.968499184E0
2.750545221E0,1.962114573E-1,1.794616938E0,9.968499184E0
2.760545221E0,4.522434771E-1,8.757730722E-1,9.626325607E0
2.770545221E0,4.522434771E-1,8.757730722E-1,9.626325607E0
2.780545221E0,3.349951804E-1,9.044869542E-1,9.903892517E0
2.790545221E0,7.657032460E-2,1.203589797E0,9.901499748E0
2.800545221E0,-1.507478207E-1,1.454836130E0,9.580862045E0
2.810545221E0,-1.507478207E-1,1.454836130E0,9.580862045E0
2.820545221E0,-1.507478207E-1,1.454836130E0,9.580862045E0
2.830545221E0,4.570291340E-1,1.667797327E0,9.145368576E0
2.840545221E0,9.212366939E-1,1.629512191E0,9.497113228E0
2.850545221E0,1.040877819E0,1.689332843E0,1.005703354E1
2.860545221E0,9.523434043E-1,1.763510346E0,1.051167011E1
2.870545221E0,5.551348329E-1,1.789831281E0,1.074616623E1
2.880545221E0,5.551348329E-1,1.789831281E0,1.074616623E1
2.890545221E0,5.551348329E-1,1.789831281E0,1.074616623E1
2.900545221E0,3.828516230E-2,6.675975323E-1,1.144008541E1
2.910545221E0,-1.076770201E-1,5.000999570E-1,1.158604717E1
2.920545221E0,-1.411765367E-1,3.445664644E-1,1.155015469E1
2.930545221E0,-3.182454109E-1,4.546363056E-1,1.149272728E1
2.940545221E0,-6.652047038E-1,9.475577474E-1,1.123669529E1
2.950545221E0,-2.009970993E-1,1.708475351E0,1.041117096E1
2.960545221E0,1.196411345E-2,2.029113531E0,9.796216011E0
2.970545221E0,6.340979934E-1,1.923829436E0,9.020941734E0
2.980545221E0,1.208375454E0,1.749153376E0,8.798408508E0
2.990545221E0,1.294517040E0,1.777867198E0,9.200403214E0
3.000545221E0,1.160519004E0,1.722832322E0,9.611968994E0
3.010545221E0,8.781659007E-1,1.617548108E0,9.726823807E0
3.020545221E0,-2.679961324E-1,1.797009826E0,9.205188751E0
3.030545221E0,-8.398807645E-1,1.952543259E0,8.812766075E0
3.040545221E0,-1.002592683E0,1.966900229E0,8.444271088E0
3.050545221E0,-1.002592683E0,1.966900229E0,8.444271088E0
3.060545221E0,-1.292124242E-1,1.622333765E0,8.293522835E0
3.070545221E0,2.344966233E-1,1.488335729E0,8.523234367E0
3.080545221E0,3.469592929E-1,1.402194023E0,8.834300995E0
3.090545221E0,3.469592929E-1,1.402194023E0,8.834300995E0
3.100545221E0,3.469592929E-1,1.402194023E0,8.834300995E0
3.110545221E0,3.469592929E-1,1.402194023E0,8.834300995E0
3.120545221E0,-1.182054400E0,1.304088354E0,1.006899738E1
3.130545221E0,-9.858429432E-1,1.122233868E0,9.597611427E0
3.140545221E0,-7.561319470E-1,1.088734269E0,9.080761909E0
3.150545221E0,-7.561319470E-1,1.088734269E0,9.080761909E0
3.160545221E0,-7.561319470E-1,1.088734269E0,9.080761909E0
3.170545221E0,-7.561319470E-1,1.088734269E0,9.080761909E0
3.180545221E0,2.321037948E-1,1.383051515E0,8.437092781E0
3.190545221E0,7.657032460E-2,1.495514154E0,8.920442581E0
3.200545221E0,-2.871387079E-2,1.519442320E0,9.205188751E0
3.210545221E0,-7.896314561E-2,1.426122308E0,9.221938133E0
3.220545221E0,-7.896314561E-2,1.426122308E0,9.221938133E0
3.230545221E0,-7.896314561E-2,1.426122308E0,9.221938133E0
3.240545221E0,-7.896314561E-2,1.426122308E0,9.221938133E0
3.250545221E0,-2.464607358E-1,7.992027402E-1,8.240880966E0
3.260545221E0,-4.091726840E-1,9.284151793E-1,8.693124771E0
3.270545221E0,-4.091726840E-1,9.284151793E-1,8.693124771E0
3.280545221E0,-1.036092162E0,1.466800332E0,9.461220741E0
3.290545221E0,-1.655833244E0,1.871187329E0,9.523433685E0
3.300545221E0,-1.789831281E0,1.825723648E0,9.420542717E0
3.310545221E0,-1.629512191E0,1.651047587E0,9.253045082E0
3.320545221E0,-1.421336651E0,1.576870084E0,9.008976936E0
3.330545221E0,-1.282552958E0,1.674975872E0,8.846264839E0
3.340545221E0,-1.339980721E0,1.921436548E0,8.975478172E0
3.350545221E0,-1.402194023E0,2.167897224E0,9.257830620E0
3.360545221E0,-8.207381964E-1,1.842473388E0,9.889535904E0
3.370545221E0,-1.019342422E0,1.942971945E0,1.010967541E1
3.380545221E0,-1.411765337E0,2.017149448E0,1.016710377E1
3.390545221E0,-1.799402595E0,2.045863390E0,1.015992451E1
3.400545221E0,-1.799402595E0,2.045863390E0,1.015992451E1
3.410545221E0,-2.143969059E0,2.000399828E0,9.738788605E0
3.420545221E0,-1.935793519E0,2.021935225E0,9.511469841E0
3.430545221E0,-1.935793519E0,2.021935225E0,9.511469841E0
3.440545221E0,-1.416550994E0,2.292324066E0,9.212367058E0
3.450545221E0,-1.182054400E0,2.388036966E0,9.231510162E0
3.460545221E0,-1.048056364E0,2.469393015E0,9.276973724E0
3.470545221E0,-8.494520187E-1,2.476571321E0,9.312865257E0
3.480545221E0,-6.412764788E-1,2.354537487E0,9.324830055E0
3.490545221E0,-6.412764788E-1,2.354537487E0,9.324830055E0
3.500545221E0,-6.412764788E-1,2.354537487E0,9.324830055E0
3.510545221E0,-6.412764788E-1,2.354537487E0,9.324830055E0
3.520545221E0,-6.412764788E-1,2.354537487E0,9.324830055E0
3.530545221E0,-6.412764788E-1,2.354537487E0,9.324830055E0
3.540545221E0,-1.411765337E0,1.765903115E0,9.647860527E0
3.550545221E0,-1.457229018E0,1.746760488E0,9.645467758E0
3.560545221E0,-1.375872970E0,1.708475351E0,9.643074989E0
3.570545221E0,-1.375872970E0,1.708475351E0,9.643074989E0
3.580545221E0,-1.375872970E0,1.708475351E0,9.643074989E0
3.590545221E0,-1.536192179E0,2.285145521E0,8.834300995E0
3.600545221E0,-1.536192179E0,2.404786825E0,8.673981667E0
3.610545221E0,-1.421336651E0,2.500499725E0,8.578269005E0
3.620545221E0,-1.373480201E0,2.689532757E0,8.511270523E0
3.630545221E0,-1.445264935E0,2.940778971E0,8.532805443E0
3.640545221E0,-1.445264935E0,2.940778971E0,8.532805443E0
3.650545221E0,-1.445264935E0,2.940778971E0,8.532805443E0
3.660545221E0,-7.250252366E-1,2.818745136E0,9.305686951E0
3.670545221E0,-7.633104324E-1,2.727817774E0,9.970891953E0
3.680545221E0,-9.308080077E-1,2.574677229E0,1.073659515E1
3.690545221E0,-1.038485050E0,2.275574446E0,1.130130100E1
3.700545221E0,-1.150947690E0,1.899901152E0,1.157886887E1
3.710545221E0,-1.914258122E0,1.773081541E0,1.124865913E1
3.720545221E0,-2.280359983E0,1.926222205E0,1.077009487E1
3.730545221E0,-2.170290232E0,1.983649969E0,1.014317513E1
3.740545221E0,-1.655833244E0,1.840080619E0,9.559326172E0
3.750545221E0,-8.901300430E-1,1.603191137E0,9.159725189E0
3.760545221E0,-3.182454109E-1,1.524227977E0,8.975478172E0
3.770545221E0,-1.148554832E-1,1.761117458E0,8.882157326E0
3.780545221E0,-1.148554832E-1,1.761117458E0,8.882157326E0
3.790545221E0,-5.910272002E-1,2.153540373E0,8.477770805E0
3.800545221E0,-8.255237937E-1,2.151147604E0,8.044670105E0
3.810545221E0,-9.020941257E-1,1.983649969E0,7.704888821E0
3.820545221E0,-6.915257573E-1,1.727617979E0,7.606783390E0
3.830545221E0,-3.996013701E-1,1.600798368E0,7.570890903E0
3.840545221E0,-1.411765367E-1,1.564906001E0,7.609176159E0
3.850545221E0,2.009970993E-1,1.679761529E0,8.219346046E0
3.860545221E0,-6.460621208E-2,1.868794441E0,8.616554260E0
3.870545221E0,-5.264210105E-1,2.127219439E0,9.052047729E0
3.880545221E0,-9.116654396E-1,2.299502611E0,9.391828537E0
3.890545221E0,-1.057627559E0,2.337787628E0,9.530612946E0
3.900545221E0,-1.055234790E0,2.349751949E0,9.444471359E0
3.910545221E0,-9.379864931E-1,2.433500528E0,9.140582085E0
3.920545221E0,-2.943171859E-1,2.572284460E0,8.702695847E0
3.930545221E0,-2.775674164E-1,2.785245657E0,8.846264839E0
3.940545221E0,-3.373879790E-1,2.993421078E0,9.028120041E0
3.950545221E0,-3.996013701E-1,2.952743053E0,8.975478172E0
3.960545221E0,-3.756731451E-1,2.830709219E0,8.858229637E0
3.970545221E0,-3.134597540E-1,2.536391973E0,8.992227554E0
3.980545221E0,-3.589234054E-1,2.254039049E0,9.430113792E0
3.990545221E0,-9.164510965E-1,2.172683001E0,1.018624592E1
4.000545221E0,-9.164510965E-1,2.172683001E0,1.018624592E1
4.010545221E0,-1.253839016E0,2.337787628E0,1.031785107E1
4.020545221E0,-1.253839016E0,2.337787628E0,1.031785107E1
4.030545221E0,-1.253839016E0,2.337787628E0,1.031785107E1
4.040545221E0,-1.986042857E-1,2.565105915E0,9.638289452E0
4.050545221E0,4.570291340E-1,2.175075769E0,8.745766640E0
4.060545221E0,4.570291340E-1,2.175075769E0,8.745766640E0
4.070545221E0,4.570291340E-1,2.175075769E0,8.745766640E0
4.080545221E0,7.944171429E-1,3.273381472E0,1.036810017E1
4.090545221E0,1.098305583E0,3.270988464E0,1.044227791E1
4.100545221E0,1.423729420E0,2.945564747E0,1.004506969E1
4.110545221E0,1.509871125E0,2.304288149E0,9.533005714E0
4.120545221E0,1.150947690E0,1.653440475E0,9.104690552E0
4.130545221E0,1.150947690E0,1.653440475E0,9.104690552E0
4.140545221E0,1.150947690E0,1.653440475E0,9.104690552E0
4.150545221E0,1.150947690E0,1.653440475E0,9.104690552E0
4.160545221E0,9.571290761E-2,2.033899307E0,8.839086533E0
4.170545221E0,6.484549642E-1,1.974078655E0,9.095118523E0
4.180545221E0,1.107876897E0,1.916650891E0,9.257830620E0
4.190545221E0,1.406979680E0,1.928615093E0,9.434899330E0
4.200545221E0,1.406979680E0,1.928615093E0,9.434899330E0
4.210545221E0,1.406979680E0,1.928615093E0,9.434899330E0
4.220545221E0,1.406979680E0,1.928615093E0,9.434899330E0
4.230545221E0,1.406979680E0,1.928615093E0,9.434899330E0
4.240545221E0,4.307080805E-1,1.928615093E0,9.628718376E0
4.250545221E0,2.344966233E-1,1.873580098E0,9.556933403E0
4.260545221E0,-9.571290575E-3,1.899901152E0,9.597611427E0
4.270545221E0,-2.679961324E-1,2.019542217E0,9.789037704E0
4.280545221E0,-2.679961324E-1,2.019542217E0,9.789037704E0
4.290545221E0,-1.866401732E-1,2.462214470E0,9.999606133E0
4.300545221E0,-1.914258115E-2,2.639283419E0,9.767501831E0
4.310545221E0,1.076770201E-1,2.801995277E0,9.638289452E0
4.320545221E0,4.426721931E-1,2.801995277E0,9.504291534E0
4.330545221E0,1.043270707E0,2.435893536E0,9.487542152E0
4.340545221E0,1.524227977E0,1.756331801E0,9.415757179E0
4.350545221E0,9.906286001E-1,2.122433662E0,9.808179855E0
4.360545221E0,4.019941986E-1,2.548356056E0,9.901499748E0
4.370545221E0,-1.555334777E-1,2.720639229E0,1.037527943E1
4.380545221E0,-2.105683982E-1,2.438286304E0,1.071266651E1
4.390545221E0,9.571290761E-2,1.792224169E0,1.060499001E1
4.400545221E0,2.009970993E-1,1.473978758E0,1.047577763E1
4.410545221E0,2.009970993E-1,1.473978758E0,1.047577763E1
4.420545221E0,2.009970993E-1,1.473978758E0,1.047577763E1
4.430545221E0,-1.292124242E-1,1.935793519E0,9.595218658E0
4.440545221E0,-1.292124242E-1,1.935793519E0,9.595218658E0
4.450545221E0,-4.474578202E-1,2.383251429E0,9.042476654E0
4.460545221E0,-4.953143001E-1,2.455035925E0,8.781659126E0
4.470545221E0,-4.067798555E-1,2.335394859E0,8.556734085E0
4.480545221E0,-4.067798555E-1,2.335394859E0,8.556734085E0
4.490545221E0,-4.067798555E-1,2.335394859E0,8.556734085E0
4.500545221E0,-4.067798555E-1,2.335394859E0,8.556734085E0
4.510545221E0,-1.722832322E-1,2.124826431E0,9.217152596E0
4.520545221E0,-1.339980662E-1,2.285145521E0,9.394221306E0
4.530545221E0,-5.024927482E-2,2.368894339E0,9.461220741E0
4.540545221E0,0.000000000E0,2.459821701E0,9.647860527E0
4.550545221E0,0.000000000E0,2.459821701E0,9.647860527E0
4.560545221E0,0.000000000E0,2.459821701E0,9.647860527E0
4.570545221E0,2.201396823E-1,1.536192179E0,9.609575272E0
4.580545221E0,2.201396823E-1,1.536192179E0,9.609575272E0
4.590545221E0,1.818545163E-1,1.256231904E0,9.614361763E0
4.600545221E0,-1.268195957E-1,1.435693622E0,9.707681656E0
4.610545221E0,-2.512463629E-1,1.517049551E0,9.851250648E0
4.620545221E0,-2.321037948E-1,1.701296926E0,1.023888779E1
4.630545221E0,-1.220339537E-1,1.746760488E0,1.031785107E1
4.640545221E0,2.871387079E-2,1.741974831E0,1.012164021E1
4.650545221E0,-2.392822690E-2,1.806581140E0,9.987641335E0
4.660545221E0,-9.332008660E-2,1.835294962E0,9.712467194E0
4.670545221E0,-1.866401732E-1,1.835294962E0,9.454042435E0
4.680545221E0,-3.445664644E-1,1.864008784E0,9.090332985E0
4.690545221E0,-7.872386575E-1,2.129612207E0,8.434700012E0
4.700545221E0,-1.060020447E0,2.323430777E0,8.233702660E0
4.710545221E0,-1.060020447E0,2.323430777E0,8.233702660E0
4.720545221E0,-1.060020447E0,2.323430777E0,8.233702660E0
4.730545221E0,-1.060020447E0,2.323430777E0,8.233702660E0
4.740545221E0,-6.029912829E-1,2.282752752E0,9.446864128E0
4.750545221E0,-4.618147612E-1,2.467000246E0,9.451649666E0
4.760545221E0,-4.618147612E-1,2.467000246E0,9.451649666E0
4.770545221E0,-4.618147612E-1,2.467000246E0,9.451649666E0
4.780545221E0,-4.618147612E-1,2.467000246E0,9.451649666E0
4.790545221E0,-6.699903607E-1,2.057827473E0,8.788837433E0
4.800545221E0,-5.694918036E-1,2.335394859E0,9.133403778E0
4.810545221E0,-5.694918036E-1,2.335394859E0,9.133403778E0
4.820545221E0,-3.254238665E-1,3.000599623E0,9.844072342E0
4.830545221E0,-3.254238665E-1,3.000599623E0,9.844072342E0
4.840545221E0,-3.254238665E-1,3.000599623E0,9.844072342E0
4.850545221E0,-3.254238665E-1,3.000599623E0,9.844072342E0
4.860545221E0,-1.842473388E0,1.741974831E0,8.934800148E0
4.870545221E0,-2.227717876E0,2.062613010E0,9.332008362E0
4.880545221E0,-2.096112728E0,2.263610125E0,9.638289452E0
4.890545221E0,-1.574477315E0,2.182254314E0,9.963713646E0
4.900545221E0,-1.574477315E0,2.182254314E0,9.963713646E0
4.910545221E0,-3.373879790E-1,1.763510346E0,1.042552853E1
4.920545221E0,-2.919243574E-1,1.940579176E0,1.047817039E1
4.930545221E0,-2.871387079E-2,1.978864312E0,1.060020447E1
4.940545221E0,4.259224236E-1,1.770688772E0,1.071506023E1
4.950545221E0,6.723831892E-1,1.593619823E0,1.080838013E1
4.960545221E0,6.077769399E-1,1.636690736E0,1.079162979E1
4.970545221E0,1.028913707E-1,1.792224169E0,1.051645565E1
4.980545221E0,-3.014956415E-1,1.931007862E0,1.030349445E1
4.990545221E0,-5.407779217E-1,1.950150490E0,1.015274620E1
5.000545221E0,-5.670989752E-1,1.880758643E0,9.994820595E0
5.010545221E0,-4.331009090E-1,1.835294962E0,9.891928673E0
5.020545221E0,-1.770688742E-1,1.780260086E0,9.745966911E0
5.030545221E0,7.178468257E-2,1.741974831E0,9.521040916E0
5.040545221E0,3.493520916E-1,1.624726534E0,9.174081802E0
5.050545221E0,3.278166950E-1,1.629512191E0,9.272188187E0
5.060545221E0,1.603191197E-1,1.708475351E0,9.468399048E0
5.070545221E0,7.178467698E-3,1.832902193E0,9.346364975E0
5.080545221E0,-1.842473447E-1,1.904686809E0,8.788837433E0
5.090545221E0,-2.512463629E-1,1.828116536E0,8.343772888E0
5.100545221E0,-3.278166950E-1,1.473978758E0,6.754938126E0
5.110545221E0,-5.240281820E-1,1.557727575E0,8.149953842E0
5.120545221E0,-3.804588020E-1,2.146361828E0,7.874779224E0
5.130545221E0,-2.416750938E-1,2.605783939E0,7.810173035E0
5.140545221E0,-3.110669367E-2,2.845066071E0,7.920242786E0
5.150545221E0,1.722832322E-1,2.974278450E0,7.992027760E0
5.160545221E0,3.206382394E-1,2.940778971E0,8.133204460E0
5.170545221E0,3.637090325E-1,2.880958557E0,8.451449394E0
5.180545221E0,-4.785645381E-2,2.471785784E0,9.461220741E0
5.190545221E0,-1.363908947E-1,2.251646042E0,9.762716293E0
5.200545221E0,-1.220339537E-1,2.172683001E0,9.808179855E0
5.210545221E0,-1.292124242E-1,2.352144718E0,9.753145218E0
5.220545221E0,-5.312066078E-1,2.878565550E0,9.678967476E0
5.230545221E0,-7.537391186E-1,3.306880951E0,9.068798065E0
5.240545221E0,-6.149554253E-1,3.491128206E0,8.341380119E0
5.250545221E0,6.819544435E-1,2.871387243E0,9.523433685E0
5.260545221E0,1.196411371E0,2.194218397E0,1.094955635E1
5.270545221E0,9.260223508E-1,1.804188251E0,1.182772255E1
5.280545221E0,4.354937077E-1,1.483550072E0,1.190429306E1
5.290545221E0,-2.392822690E-2,1.287338614E0,1.147597694E1
5.300545221E0,-1.052841991E-1,1.045663476E0,1.060977554E1
5.310545221E0,-2.703889608E-1,1.189232826E0,9.765109062E0
5.320545221E0,-2.703889608E-1,1.189232826E0,9.765109062E0
5.330545221E0,-2.703889608E-1,1.189232826E0,9.765109062E0
5.340545221E0,-2.703889608E-1,1.189232826E0,9.765109062E0
5.350545221E0,-3.278166950E-1,3.048455954E0,9.872786522E0
5.360545221E0,2.919243574E-1,2.471785784E0,9.674181938E0
5.370545221E0,5.670989752E-1,2.084148407E0,9.375079155E0
5.380545221E0,6.580262184E-1,1.875972986E0,8.999405861E0
5.390545221E0,6.580262184E-1,1.875972986E0,8.999405861E0
5.400545221E0,6.580262184E-1,1.875972986E0,8.999405861E0
5.410545221E0,6.580262184E-1,1.875972986E0,8.999405861E0
5.420545221E0,-4.809573591E-1,2.538784742E0,9.793823242E0
5.430545221E0,-8.111668825E-1,2.526820660E0,1.007617569E1
5.440545221E0,-1.031306505E0,2.447857618E0,1.040159988E1
5.450545221E0,-1.064806104E0,2.301895380E0,1.055713367E1
5.460545221E0,-1.064806104E0,2.301895380E0,1.055713367E1
5.470545221E0,-1.064806104E0,2.301895380E0,1.055713367E1
5.480545221E0,-4.546362907E-2,1.942971945E0,9.288937569E0
5.490545221E0,1.866401732E-1,2.031506538E0,8.867800713E0
5.500545221E0,-1.914258115E-2,2.352144718E0,9.013762474E0
5.510545221E0,-3.996013701E-1,2.687139750E0,9.145368576E0
5.520545221E0,-5.647061467E-1,2.988635540E0,8.851051331E0
5.530545221E0,-6.436693072E-1,3.512663603E0,8.456234932E0
5.540545221E0,-5.431707501E-1,3.821337700E0,8.286344528E0
5.550545221E0,-5.455635786E-1,3.572484255E0,8.044670105E0
5.560545221E0,-4.546363056E-1,3.268595695E0,8.303094864E0
5.570545221E0,-6.532405615E-1,2.924029350E0,8.606983185E0
5.580545221E0,-8.757730722E-1,2.624926329E0,8.961120605E0
5.590545221E0,-1.052842021E0,2.481357098E0,9.300901413E0
5.600545221E0,-1.194018483E0,2.455035925E0,9.662218094E0
5.610545221E0,-9.499505758E-1,2.244467735E0,9.803394318E0
5.620545221E0,-6.867401004E-1,2.249253273E0,9.875179291E0
5.630545221E0,-4.450650215E-1,2.337787628E0,9.875179291E0
5.640545221E0,-3.421736360E-1,2.416750908E0,9.710074425E0
5.650545221E0,-3.517449200E-1,2.478964329E0,9.387042999E0
5.660545221E0,-4.905286431E-1,2.612962246E0,9.059226990E0
5.670545221E0,-5.862415433E-1,2.876172781E0,8.334200859E0
5.680545221E0,-4.929214716E-1,2.876172781E0,8.118846893E0
5.690545221E0,-5.670989752E-1,2.790031195E0,8.161917686E0
5.700545221E0,-7.872386575E-1,2.639283419E0,8.484949112E0
5.710545221E0,-1.196411371E0,2.557927370E0,9.150154114E0
5.720545221E0,-1.622333765E0,2.423929453E0,9.745966911E0
5.730545221E0,-1.859223247E0,2.184647083E0,1.011446095E1
5.740545221E0,-1.859223247E0,2.184647083E0,1.011446095E1
5.750545221E0,-9.906286001E-1,1.689332843E0,9.559326172E0
5.760545221E0,-8.542376757E-1,1.926222205E0,9.760323524E0
5.770545221E0,-8.542376757E-1,1.926222205E0,9.760323524E0
5.780545221E0,2.153540403E-2,2.098505497E0,9.279366493E0
5.790545221E0,2.057827413E-1,2.421536446E0,8.949156761E0
5.800545221E0,2.991028428E-1,2.912065268E0,8.997013092E0
5.810545221E0,2.991028428E-1,2.912065268E0,8.997013092E0
5.820545221E0,2.991028428E-1,2.912065268E0,8.997013092E0
5.830545221E0,9.571290612E-1,2.206182480E0,8.568697929E0
5.840545221E0,6.795616150E-1,2.136790514E0,8.451449394E0
5.850545221E0,5.383850932E-1,2.115255117E0,8.606983185E0
5.860545221E0,3.828516304E-1,2.108076811E0,8.901300430E0
5.870545221E0,1.938186288E-1,2.081755638E0,9.265008926E0
5.880545221E0,1.938186288E-1,2.081755638E0,9.265008926E0
5.890545221E0,1.938186288E-1,2.081755638E0,9.265008926E0
5.900545221E0,-5.623133183E-1,2.586641312E0,1.061934662E1
5.910545221E0,-7.728816867E-1,2.596212626E0,1.032502937E1
5.920545221E0,-8.374879360E-1,2.514856577E0,9.966106415E0
5.930545221E0,-9.212366939E-1,2.474178553E0,9.595218658E0
5.940545221E0,-1.103091240E0,2.517249346E0,9.269794464E0
5.950545221E0,-1.313659668E0,2.598605394E0,9.080761909E0
5.960545221E0,-1.239482164E0,2.581855536E0,9.121439934E0
5.970545221E0,-1.162911773E0,2.591426849E0,9.164510727E0
5.980545221E0,-1.194018483E0,2.636890650E0,9.104690552E0
5.990545221E0,-1.217946768E0,2.768495798E0,8.961120605E0
6.000545221E0,-1.177268744E0,2.921636343E0,8.772088051E0
6.010545221E0,-1.083948612E0,2.988635540E0,8.650053978E0
6.020545221E0,-9.978070259E-1,3.132204771E0,8.449056625E0
6.030545221E0,-1.162911773E0,3.208775282E0,8.360522270E0
6.040545221E0,-1.234696507E0,3.187239647E0,8.245666504E0
6.050545221E0,-1.124626637E0,3.091526747E0,8.181060791E0
6.060545221E0,-9.116654396E-1,2.904886723E0,8.200202942E0
6.070545221E0,-8.518448472E-1,2.775674343E0,8.444271088E0
6.080545221E0,-7.513462901E-1,2.644068956E0,8.999405861E0
6.090545221E0,-5.407779217E-1,2.067398787E0,1.039442158E1
6.100545221E0,-8.662018180E-1,1.942971945E0,1.092323494E1
6.110545221E0,-1.196411371E0,1.840080619E0,1.107159042E1
6.120545221E0,-1.387837172E0,1.708475351E0,1.087537861E1
6.130545221E0,-1.191625714E0,1.466800332E0,1.043270683E1
6.140545221E0,-1.038485050E0,1.390229940E0,9.808179855E0
6.150545221E0,-6.699903607E-1,1.392622828E0,9.040083885E0
6.160545221E0,-2.297109663E-1,2.158325911E0,7.424928665E0
6.170545221E0,-2.847459018E-1,2.790031195E0,7.013363361E0
6.180545221E0,-5.264210105E-1,3.299702406E0,7.051648140E0
6.190545221E0,-7.322037220E-1,3.672982693E0,7.293323517E0
6.200545221E0,-1.117448211E0,3.960121393E0,7.463213921E0
6.210545221E0,-1.696511269E0,4.130012035E0,7.850851059E0
6.220545221E0,-1.861616015E0,3.182454109E0,8.616554260E0
6.230545221E0,-1.339980721E0,2.299502611E0,9.154939651E0
6.240545221E0,-1.296909928E0,2.012363911E0,9.918250084E0
6.250545221E0,-1.500299811E0,2.043470621E0,1.061456108E1
6.260545221E0,-1.792224169E0,2.196611166E0,1.125105190E1
6.270545221E0,-1.974078655E0,2.323430777E0,1.146879864E1
6.280545221E0,-2.088934183E0,2.392822742E0,1.082991505E1
6.290545221E0,-2.263610125E0,2.416750908E0,8.958727837E0
6.300545221E0,-1.708475351E0,2.313859463E0,8.116454124E0
6.310545221E0,-1.540977836E0,2.407179594E0,7.580461979E0
6.320545221E0,-1.540977836E0,2.407179594E0,7.580461979E0
6.330545221E0,-1.540977836E0,2.407179594E0,7.580461979E0
6.340545221E0,-1.540977836E0,2.407179594E0,7.580461979E0
6.350545221E0,-1.399801254E0,3.352344513E0,9.025727272E0
6.360545221E0,-1.399801254E0,3.352344513E0,9.025727272E0
6.370545221E0,-1.399801254E0,3.352344513E0,9.025727272E0
6.380545221E0,-1.399801254E0,3.352344513E0,9.025727272E0
6.390545221E0,-1.399801254E0,3.352344513E0,9.025727272E0
6.400545221E0,-1.653440475E0,1.672582984E0,1.121994495E1
6.410545221E0,-1.928615093E0,2.021935225E0,1.140897846E1
6.420545221E0,-1.844866276E0,2.565105915E0,1.135633659E1
6.430545221E0,-1.844866276E0,2.565105915E0,1.135633659E1
6.440545221E0,-1.844866276E0,2.565105915E0,1.135633659E1
6.450545221E0,-1.844866276E0,2.565105915E0,1.135633659E1
6.460545221E0,-1.844866276E0,2.565105915E0,1.135633659E1
6.470545221E0,-1.009771109E0,3.976871252E0,7.712067604E0
6.480545221E0,-9.188438654E-1,4.185046673E0,7.039684296E0
6.490545221E0,-9.140582681E-1,4.292723656E0,6.628118515E0
6.500545221E0,-9.140582681E-1,4.292723656E0,6.628118515E0
6.510545221E0,-9.140582681E-1,4.292723656E0,6.628118515E0
6.520545221E0,-9.140582681E-1,4.292723656E0,6.628118515E0
6.530545221E0,-9.475577474E-1,3.699303865E0,8.453842163E0
6.540545221E0,-8.709874153E-1,3.139383316E0,9.317651749E0
6.550545221E0,-8.733802438E-1,2.667997360E0,1.025563812E1
6.560545221E0,-9.906286001E-1,2.340180635E0,1.098066330E1
6.570545221E0,-9.906286001E-1,2.340180635E0,1.098066330E1
6.580545221E0,-9.906286001E-1,2.340180635E0,1.098066330E1
6.590545221E0,-1.643869162E0,2.821137905E0,1.026520920E1
6.600545221E0,-1.454836130E0,3.046063185E0,9.657432556E0
6.610545221E0,-1.112662554E0,3.132204771E0,8.867800713E0
6.620545221E0,-6.604190469E-1,3.187239647E0,8.109275818E0
6.630545221E0,-2.057827413E-1,3.349951744E0,7.546962738E0
6.640545221E0,-2.057827413E-1,3.349951744E0,7.546962738E0
6.650545221E0,-1.292124242E-1,3.022135019E0,7.951349735E0
6.660545221E0,-7.752745152E-1,2.797209740E0,8.841479301E0
6.670545221E0,-1.406979680E0,2.639283419E0,9.762716293E0
6.680545221E0,-1.890329838E0,2.455035925E0,1.047577763E1
6.690545221E0,-2.105684042E0,2.304288149E0,1.076291656E1
6.700545221E0,-2.359323025E0,2.440679073E0,1.077009487E1
6.710545221E0,-2.359323025E0,2.440679073E0,1.077009487E1
6.720545221E0,-2.359323025E0,2.440679073E0,1.077009487E1
6.720545221E0,-2.033899307E0,3.014956474E0,9.908679008E0
6.740545221E0,-1.201196909E0,2.837887764E0,9.202795982E0
6.750545221E0,-1.284945726E0,3.019742250E0,8.791230202E0
6.760545221E0,-1.447657704E0,3.139383316E0,8.690732002E0
6.770545221E0,-1.495514154E0,3.187239647E0,8.872586250E0
6.780545221E0,-1.067198873E0,3.237488985E0,8.970691681E0
6.790545221E0,-1.069591761E0,3.306880951E0,8.319844246E0
6.800545221E0,-1.593619823E0,3.438486099E0,7.762316704E0
6.810545221E0,-1.902294040E0,3.486342669E0,7.149754047E0
6.820545221E0,-1.521835208E0,3.369094372E0,6.735795975E0
6.830545221E0,-1.115055323E0,2.916850805E0,6.506084919E0
6.840545221E0,-1.031306505E0,3.096312523E0,6.853044033E0
6.850545221E0,-2.146361828E0,3.747160196E0,9.619147301E0
6.860545221E0,-2.438286304E0,3.165704250E0,1.123669529E1
6.870545221E0,-2.483749866E0,2.256431818E0,1.203829098E1
6.880545221E0,-2.177468538E0,1.667797327E0,1.171765232E1
6.890545221E0,-2.177468538E0,1.667797327E0,1.171765232E1
6.900545221E0,-1.112662554E0,1.272981644E0,1.058584690E1
6.910545221E0,-1.502692580E0,1.691725612E0,1.041117096E1
6.920545221E0,-1.502692580E0,1.691725612E0,1.041117096E1
6.930545221E0,-1.502692580E0,1.691725612E0,1.041117096E1
6.940545221E0,-1.502692580E0,1.691725612E0,1.041117096E1
6.950545221E0,-1.502692580E0,1.691725612E0,1.041117096E1
6.960545221E0,-1.529013634E0,2.069791555E0,9.190832138E0
6.970545221E0,-1.354337573E0,1.993221283E0,8.717052460E0
6.980545221E0,-1.002592683E0,2.091326952E0,8.166703224E0
6.990545221E0,-1.002592683E0,2.091326952E0,8.166703224E0
7.000545221E0,-1.002592683E0,2.091326952E0,8.166703224E0
7.010545221E0,-1.002592683E0,2.091326952E0,8.166703224E0
7.020545221E0,-2.423929453E0,2.507678032E0,8.518448830E0
7.030545221E0,-2.967100143E0,1.519442320E0,9.040083885E0
7.040545221E0,-3.110669374E0,9.906286001E-1,9.334401131E0
7.050545221E0,-3.029313564E0,9.236295223E-1,9.439684868E0
7.060545221E0,-3.029313564E0,9.236295223E-1,9.439684868E0
7.070545221E0,-3.029313564E0,9.236295223E-1,9.439684868E0
7.080545221E0,-3.029313564E0,9.236295223E-1,9.439684868E0
7.090545221E0,-2.316252232E0,2.988635540E0,8.130811691E0
7.100545221E0,-2.861815929E0,3.091526747E0,7.965706348E0
7.110545221E0,-4.213760853E0,3.046063185E0,7.769495010E0
7.120545221E0,-5.929414749E0,2.878565550E0,7.618747234E0
7.130545221E0,-5.929414749E0,2.878565550E0,7.618747234E0
7.140545221E0,-5.929414749E0,2.878565550E0,7.618747234E0
7.150545221E0,-4.359723091E0,1.557727575E0,8.630910873E0
7.160545221E0,-4.508078098E0,1.672582984E0,8.556734085E0
7.170545221E0,-4.754538536E0,1.409372568E0,8.544769287E0
7.180545221E0,-4.996213913E0,1.270588875E0,8.535198212E0
7.190545221E0,-5.056034088E0,1.227517962E0,8.403593063E0
7.200545221E0,-5.056034088E0,1.227517962E0,8.403593063E0
7.210545221E0,-3.474378586E0,1.689332843E0,9.635896683E0
7.220545221E0,-2.538784742E0,1.636690736E0,1.046142101E1
7.230545221E0,-2.811566591E0,1.521835208E0,1.020299530E1
7.240545221E0,-3.383451223E0,1.359123230E0,9.387042999E0
7.250545221E0,-4.036691666E0,1.538584948E0,8.453842163E0
7.260545221E0,-4.409972191E0,1.775474429E0,7.740781307E0
7.270545221E0,-4.433900356E0,2.103291035E0,6.762116909E0
7.280545221E0,-4.433900356E0,2.103291035E0,6.762116909E0
7.290545221E0,-4.433900356E0,2.103291035E0,6.762116909E0
7.300545221E0,-4.433900356E0,2.103291035E0,6.762116909E0
7.310545221E0,-4.299902439E0,1.464407444E0,8.035098076E0
7.320545221E0,-4.613361835E0,1.311266780E0,9.008976936E0
7.330545221E0,-4.654039860E0,1.378265858E0,9.616754532E0
7.340545221E0,-4.457828522E0,1.550549030E0,9.052047729E0
7.350545221E0,-4.371686935E0,1.447657704E0,8.726624489E0
7.360545221E0,-4.331008911E0,1.375872970E0,8.525627136E0
7.370545221E0,-4.285545349E0,1.438086390E0,8.348558426E0
7.380545221E0,-4.043870449E0,1.540977836E0,8.257631302E0
7.390545221E0,-3.663411379E0,1.679761529E0,8.035098076E0
7.400545221E0,-3.586841106E0,1.823330879E0,7.898707390E0
7.410545221E0,-4.462614059E0,1.899901152E0,9.552147865E0
7.420545221E0,-5.297709465E0,1.911865234E0,1.073420238E1
7.430545221E0,-6.336194515E0,1.887937069E0,1.150469112E1
7.440545221E0,-6.338587284E0,1.395015597E0,1.166979599E1
7.450545221E0,-5.046463013E0,8.087740541E-1,1.111226845E1
7.460545221E0,-3.529413462E0,5.407779217E-1,1.039681435E1
7.470545221E0,-2.306680918E0,5.359922647E-1,9.719645500E0
7.480545221E0,-2.306680918E0,5.359922647E-1,9.719645500E0
7.490545221E0,-2.306680918E0,5.359922647E-1,9.719645500E0
7.500545221E0,-2.306680918E0,5.359922647E-1,9.719645500E0
7.510545221E0,-2.306680918E0,5.359922647E-1,9.719645500E0
7.520545221E0,-2.208575249E0,1.610369682E0,7.896314621E0
7.530545221E0,-2.931207657E0,2.000399828E0,8.437092781E0
7.540545221E0,-3.328416348E0,1.995614052E0,8.953942299E0
7.550545221E0,-3.328416348E0,1.995614052E0,8.953942299E0
7.560545221E0,-3.328416348E0,1.995614052E0,8.953942299E0
7.570545221E0,-3.328416348E0,1.995614052E0,8.953942299E0
7.580545221E0,-1.067198873E0,2.754138947E0,8.487341881E0
7.590545221E0,-8.135597110E-1,2.469393015E0,8.441878319E0
7.600545221E0,-9.858429432E-1,2.175075769E0,8.317451477E0
7.610545221E0,-1.361516118E0,1.854437590E0,8.303094864E0
7.620545221E0,-1.361516118E0,1.854437590E0,8.303094864E0
7.630545221E0,-2.373680115E0,1.981257200E0,9.061619759E0
7.640545221E0,-2.146361828E0,2.230110645E0,8.934800148E0
7.650545221E0,-1.071984529E0,2.196611166E0,7.791030407E0
7.660545221E0,4.689932466E-1,1.567298889E0,6.477370739E0
7.670545221E0,5.814558864E-1,1.950150490E0,5.826523304E0
7.680545221E0,-6.867401004E-1,2.967100143E0,7.731209755E0
7.690545221E0,-6.867401004E-1,2.967100143E0,7.731209755E0
7.700545221E0,-2.986242771E0,2.636890650E0,8.480163574E0
7.710545221E0,-3.206382275E0,1.950150490E0,8.941978455E0
7.720545221E0,-2.701496840E0,9.236295223E-1,9.370293617E0
7.730545221E0,-2.122433662E0,2.321037948E-1,9.370293617E0
7.740545221E0,-1.667797327E0,1.842473447E-1,9.114261627E0
7.750545221E0,-1.258624673E0,5.144568682E-1,8.884550095E0
7.760545221E0,-9.571290612E-1,1.576870084E0,8.664410591E0
7.770545221E0,-1.040877819E0,2.215753794E0,8.721838951E0
7.780545221E0,-1.069591761E0,2.447857618E0,9.030512810E0
7.790545221E0,-1.462014675E0,2.325823545E0,9.657432556E0
7.800545221E0,-1.998006940E0,1.852044702E0,9.891928673E0
7.810545221E0,-2.646461725E0,1.292124271E0,1.004746246E1
7.820545221E0,-3.763910055E0,1.189232826E0,1.012164021E1
7.830545221E0,-3.897907972E0,6.652047038E-1,1.032981491E1
7.840545221E0,-3.665804386E0,6.771687865E-1,1.021974564E1
7.850545221E0,-2.995813847E0,7.633104324E-1,1.018385315E1
7.860545221E0,-2.256431818E0,1.069591761E0,1.013599682E1
7.870545221E0,-1.701296926E0,1.500299811E0,1.039681435E1
7.880545221E0,-1.600798368E0,1.844866276E0,1.068873882E1
7.890545221E0,-1.835294962E0,1.902294040E0,1.071027374E1
7.900545221E0,-2.770888567E0,1.598405480E0,9.978070259E0
7.910545221E0,-2.998206854E0,1.423729420E0,9.427721024E0
7.920545221E0,-3.002992392E0,1.344766378E0,9.102297783E0
7.930545221E0,-2.644068956E0,1.287338614E0,8.750552177E0
7.940545221E0,-2.864208698E0,1.387837172E0,8.382058144E0
7.950545221E0,-3.321237803E0,1.878365755E0,8.207381248E0
7.960545221E0,-3.349951744E0,2.258824587E0,8.044670105E0
7.970545221E0,-3.081955671E0,1.679761529E0,8.549555779E0
7.980545221E0,-2.959921598E0,7.944171429E-1,9.430113792E0
7.990545221E0,-3.194418192E0,2.392822644E-3,1.046859932E1
8.000545221E0,-3.969692707E0,-2.057827413E-1,1.143529987E1
8.010545221E0,-4.567898273E0,-5.264210105E-1,1.187557888E1
8.020545221E0,-4.823930264E0,-8.303094506E-1,1.176550865E1
8.030545221E0,-4.816751957E0,-1.019342422E0,1.112901783E1
8.040545221E0,-3.979264021E0,-9.714859724E-1,9.511469841E0
8.050545221E0,-3.534198999E0,-5.048855543E-1,8.796015739E0
8.060545221E0,-3.318845034E0,1.531406492E-1,8.367700577E0
8.070545221E0,-3.196810961E0,6.963114142E-1,8.145168304E0
8.080545221E0,-3.136990547E0,9.858429432E-1,8.135597229E0
8.090545221E0,-2.950350285E0,1.110269666E0,8.226524353E0
8.100545221E0,-2.684746981E0,1.009771109E0,8.044670105E0
8.110545221E0,-2.684746981E0,1.009771109E0,8.044670105E0
8.120545221E0,-2.684746981E0,1.009771109E0,8.044670105E0
8.130545221E0,-2.684746981E0,1.009771109E0,8.044670105E0
8.140545221E0,-2.684746981E0,1.009771109E0,8.044670105E0
8.150545221E0,-2.758924484E0,2.632105052E-1,7.834101200E0
8.160545221E0,-3.074777126E0,7.896314561E-2,8.606983185E0
8.170545221E0,-3.436093330E0,-1.220339537E-1,9.214759827E0
8.180545221E0,-3.436093330E0,-1.220339537E-1,9.214759827E0
8.190545221E0,-3.436093330E0,-1.220339537E-1,9.214759827E0
8.200545221E0,-4.563112736E0,-1.531406492E-1,8.968298912E0
8.210545221E0,-4.563112736E0,-1.531406492E-1,8.968298912E0
8.220545221E0,-4.053441525E0,-2.009970993E-1,8.860622406E0
8.230545221E0,-3.737588882E0,-2.392822653E-1,8.865407944E0
8.240545221E0,-3.632304668E0,-1.148554832E-1,8.724231720E0
8.250545221E0,-3.632304668E0,-1.148554832E-1,8.724231720E0
8.260545221E0,-3.998406649E0,4.881358147E-1,8.346165657E0
8.270545221E0,-3.797409534E0,1.363908947E-1,8.745766640E0
8.280545221E0,-3.629911900E0,-1.818545163E-1,9.274580956E0
8.290545221E0,-3.560520172E0,-3.780659735E-1,9.829715729E0
8.300545221E0,-3.524627686E0,-4.163511395E-1,1.042792130E1
8.310545221E0,-3.314059258E0,-4.881358147E-1,1.096152020E1
8.320545221E0,-3.022135019E0,-5.312066078E-1,1.138265705E1
8.330545221E0,-3.026920557E0,-4.881358147E-1,1.158843994E1
8.340545221E0,-3.302095175E0,-3.517449200E-1,1.185165024E1
8.350545221E0,-3.562912941E0,-1.555334777E-1,1.211246777E1
8.360545221E0,-3.713660717E0,-6.460621208E-2,1.218185997E1
8.370545221E0,-3.591626883E0,-1.028913707E-1,1.184207916E1
8.380545221E0,-3.328416348E0,-1.244267747E-1,1.134197903E1
8.390545221E0,-3.247060299E0,2.321037948E-1,1.048774147E1
8.400545221E0,-3.278167009E0,5.168496966E-1,9.978070259E0
8.410545221E0,-3.177668571E0,8.805587292E-1,9.418149948E0
8.420545221E0,-2.988635540E0,1.253839016E0,8.898907661E0
8.430545221E0,-2.847458839E0,1.562513232E0,8.595019341E0
8.440545221E0,-2.797209740E0,1.758724689E0,8.652446747E0
8.450545221E0,-2.859423161E0,1.806581140E0,8.994620323E0
8.460545221E0,-3.077169895E0,1.497906923E0,9.954142570E0
8.470545221E0,-3.017349243E0,1.289731383E0,1.028674412E1
8.480545221E0,-2.830709219E0,1.057627559E0,1.042313576E1
8.490545221E0,-2.557927370E0,8.159525394E-1,1.038963604E1
8.500545221E0,-2.196611166E0,5.838487148E-1,1.023170948E1
8.510545221E0,-1.792224169E0,3.756731451E-1,1.015992451E1
8.520545221E0,-1.454836130E0,2.009970993E-1,1.017428207E1
8.530545221E0,-1.205982566E0,1.842473447E-1,1.006181908E1
8.540545221E0,-1.296909928E0,4.354937077E-1,9.695717812E0
8.550545221E0,-1.368694544E0,7.130611539E-1,9.387042999E0
8.560545221E0,-1.265803218E0,8.590233326E-1,9.219545364E0
8.570545221E0,-9.643075466E-1,8.853443861E-1,9.140582085E0
8.580545221E0,-7.058826685E-1,9.978070259E-1,9.233902931E0
8.590545221E0,-5.503492355E-1,1.194018483E0,9.389435768E0
8.600545221E0,-3.924229145E-1,1.387837172E0,9.592825890E0
8.610545221E0,-3.732803464E-1,1.387837172E0,9.573683739E0
8.620545221E0,-4.378865361E-1,1.318445325E0,9.499505997E0
8.630545221E0,-5.670989752E-1,1.203589797E0,9.293723106E0
8.640545221E0,-7.417750359E-1,1.136590719E0,9.018548965E0
8.650545221E0,-8.255237937E-1,1.220339537E0,8.810373306E0
8.660545221E0,-8.542376757E-1,1.411765337E0,8.638090134E0
8.670545221E0,-6.269195080E-1,1.952543259E0,8.482556343E0
8.680545221E0,-6.269195080E-1,1.952543259E0,8.482556343E0
8.690545221E0,-6.269195080E-1,1.952543259E0,8.482556343E0
8.700545221E0,-6.269195080E-1,1.952543259E0,8.482556343E0
8.710545221E0,-2.177468538E-1,2.794816732E0,8.015955925E0
8.720545221E0,-1.842473447E-1,2.782852650E0,7.944170952E0
8.730545221E0,-2.225325108E-1,2.799602509E0,8.056633949E0
8.740545221E0,-2.225325108E-1,2.799602509E0,8.056633949E0
8.750545221E0,-2.225325108E-1,2.799602509E0,8.056633949E0
8.760545221E0,-2.225325108E-1,2.799602509E0,8.056633949E0
8.770545221E0,-2.177468538E-1,2.289931297E0,9.367900848E0
8.780545221E0,-2.751746178E-1,2.158325911E0,9.525827408E0
8.790545221E0,-3.086741269E-1,2.062613010E0,9.614361763E0
8.800545221E0,-2.297109663E-1,1.978864312E0,9.659825325E0
8.810545221E0,-2.297109663E-1,1.978864312E0,9.659825325E0
8.820545221E0,-2.297109663E-1,1.978864312E0,9.659825325E0
8.830545221E0,1.196411345E-2,2.349751949E0,9.370293617E0
8.840545221E0,4.546362907E-2,2.474178553E0,9.198010445E0
8.850545221E0,9.092725813E-2,2.612962246E0,9.114261627E0
8.860545221E0,1.722832322E-1,2.696711063E0,8.982656479E0
8.870545221E0,2.679961324E-1,2.682354212E0,8.762516975E0
8.880545221E0,2.392822653E-1,2.651247501E0,8.700303078E0
8.890545221E0,7.896314561E-2,2.713460922E0,8.793622971E0
8.900545221E0,7.896314561E-2,2.713460922E0,8.793622971E0
8.910545221E0,-7.178468257E-2,2.701496840E0,8.767302513E0
8.920545221E0,1.674975827E-2,2.608176708E0,8.882157326E0
8.930545221E0,1.004985496E-1,2.545963287E0,9.016156197E0
8.940545221E0,1.842473447E-1,2.543570518E0,9.142974854E0
8.950545221E0,5.599204898E-1,2.488535643E0,9.576076508E0
8.960545221E0,6.293123364E-1,2.462214470E0,9.853643417E0
8.970545221E0,6.699903607E-1,2.404786825E0,9.992427826E0
8.980545221E0,6.819544435E-1,2.376072884E0,1.004985523E1
8.990545221E0,6.053841114E-1,2.344966173E0,9.932606697E0
9.000545221E0,3.206382394E-1,2.388036966E0,9.662218094E0
9.010545221E0,3.349951655E-2,2.462214470E0,9.329615593E0
9.020545221E0,-2.225325108E-1,2.723032236E0,8.621339798E0
9.030545221E0,-2.871387079E-2,2.778067112E0,8.176275253E0
9.040545221E0,1.555334777E-1,2.833101988E0,7.850851059E0
9.050545221E0,2.129612118E-1,2.971885681E0,7.707281590E0
9.060545221E0,1.507478207E-1,3.074777126E0,7.757531166E0
9.070545221E0,1.244267747E-1,3.029313564E0,8.030312538E0
9.080545221E0,2.033899277E-1,2.823530674E0,8.453842163E0
9.090545221E0,2.033899277E-1,2.823530674E0,8.453842163E0
9.100545221E0,2.033899277E-1,2.823530674E0,8.453842163E0
9.110545221E0,2.033899277E-1,2.823530674E0,8.453842163E0
9.120545221E0,-1.033699393E0,2.287538528E0,1.010728264E1
9.130545221E0,-1.177268744E0,2.395215511E0,9.954142570E0
9.140545221E0,-1.124626637E0,2.533999205E0,9.655039787E0
9.150545221E0,-9.427721500E-1,2.725425005E0,9.250652313E0
9.160545221E0,-9.427721500E-1,2.725425005E0,9.250652313E0
9.170545221E0,-9.427721500E-1,2.725425005E0,9.250652313E0
9.180545221E0,-5.742774159E-2,2.830709219E0,8.288737297E0
9.190545221E0,-2.751746178E-1,2.828316450E0,8.166703224E0
9.200545221E0,-4.785645306E-1,2.754138947E0,8.417949677E0
9.210545221E0,-5.623133183E-1,2.579462767E0,9.030512810E0
9.220545221E0,-5.886343718E-1,2.333002090E0,9.621540070E0
9.230545221E0,-5.886343718E-1,2.333002090E0,9.621540070E0
9.240545221E0,-1.201196909E0,1.938186288E0,9.351150513E0
9.250545221E0,-1.057627559E0,1.792224169E0,9.078369141E0
9.260545221E0,-7.704889178E-1,1.648654819E0,8.882157326E0
9.270545221E0,-4.666004181E-1,1.598405480E0,8.822337151E0
9.280545221E0,-3.373879790E-1,1.739582062E0,8.676374435E0
9.290545221E0,-3.373879790E-1,1.739582062E0,8.676374435E0
9.300545221E0,-3.373879790E-1,1.739582062E0,8.676374435E0
9.310545221E0,-6.675975323E-1,2.132004976E0,8.573483467E0
9.320545221E0,-9.332008362E-1,2.103291035E0,8.695517540E0
9.330545221E0,-1.081555843E0,1.995614052E0,8.678768158E0
9.340545221E0,-1.122233868E0,1.837687731E0,8.618947029E0
9.350545221E0,-1.079162955E0,1.730010748E0,8.767302513E0
9.360545221E0,-1.105484009E0,1.698904037E0,9.748359680E0
9.370545221E0,-1.213161111E0,1.696511269E0,1.017428207E1
9.380545221E0,-1.385444283E0,1.694118381E0,1.026520920E1
9.390545221E0,-1.457229018E0,1.627119422E0,1.014317513E1
9.400545221E0,-1.404586911E0,1.512263894E0,9.987641335E0
9.410545221E0,-1.253839016E0,1.342373490E0,9.851250648E0
9.420545221E0,-1.119840980E0,1.225125194E0,9.801001549E0
9.430545221E0,-7.848458290E-1,9.858429432E-1,9.805787086E0
9.430545221E0,-7.848458290E-1,9.858429432E-1,9.805787086E0
9.450545221E0,-8.039883971E-1,1.016949654E0,9.513862610E0
9.460545221E0,-1.105484009E0,1.009771109E0,9.195617676E0
9.470545221E0,-1.579262972E0,9.427721500E-1,9.241081238E0
9.480545221E0,-1.959721804E0,6.891329288E-1,9.394221306E0
9.490545221E0,-2.380858421E0,5.216353536E-1,9.676574707E0
9.500545221E0,-3.326023579E0,4.402793646E-1,9.477970123E0
9.510545221E0,-3.357130051E0,4.977070987E-1,9.482755661E0
9.520545221E0,-3.220739365E0,5.216353536E-1,9.516255379E0
9.530545221E0,-3.041277647E0,5.168496966E-1,9.444471359E0
9.540545221E0,-2.945564747E0,5.168496966E-1,9.439684868E0
9.550545221E0,-2.806781054E0,4.187439680E-1,9.446864128E0
9.560545221E0,-2.754138947E0,2.703889608E-1,9.621540070E0
9.570545221E0,-2.699103832E0,6.221338734E-2,1.013599682E1
9.580545221E0,-2.699103832E0,6.221338734E-2,1.013599682E1
9.590545221E0,-2.699103832E0,6.221338734E-2,1.013599682E1
9.600545221E0,-2.699103832E0,6.221338734E-2,1.013599682E1
9.610545221E0,-2.699103832E0,6.221338734E-2,1.013599682E1
9.620545221E0,-3.007778168E0,-2.009970993E-1,1.010010433E1
9.630545221E0,-3.110669374E0,-1.890329868E-1,9.999606133E0
9.640545221E0,-3.110669374E0,-1.890329868E-1,9.999606133E0
9.650545221E0,-3.110669374E0,-1.890329868E-1,9.999606133E0
9.660545221E0,-3.110669374E0,-1.890329868E-1,9.999606133E0
9.670545221E0,-3.110669374E0,-1.890329868E-1,9.999606133E0
9.680545221E0,-3.110669374E0,-1.890329868E-1,9.999606133E0
9.690545221E0,-2.447857618E0,2.177468538E-1,9.578469276E0
9.700545221E0,-2.426322222E0,3.302095234E-1,9.360722542E0
9.710545221E0,-2.426322222E0,3.302095234E-1,9.360722542E0
9.720545221E0,-2.426322222E0,3.302095234E-1,9.360722542E0
9.730545221E0,-1.959721804E0,1.028913707E-1,8.858229637E0
9.740545221E0,-1.806581140E0,-9.332008660E-2,9.142974854E0
9.750545221E0,-1.964507341E0,-2.967100143E-1,9.513862610E0
9.760545221E0,-2.349751949E0,-4.019941986E-1,9.860821724E0
9.770545221E0,-2.514856577E0,-4.618147612E-1,1.004746246E1
9.780545221E0,-2.514856577E0,-4.618147612E-1,1.004746246E1
9.790545221E0,-2.514856577E0,-4.618147612E-1,1.004746246E1
9.800545221E0,-2.514856577E0,-4.618147612E-1,1.004746246E1
9.810545221E0,-2.318645239E0,1.028913707E-1,1.017428207E1
9.820545221E0,-2.462214470E0,2.368894368E-1,1.011446095E1
9.830545221E0,-2.584248543E0,2.823530734E-1,1.009531879E1
9.840545221E0,-2.388036966E0,1.220339537E-1,1.000917721E1
9.850545221E0,-2.388036966E0,1.220339537E-1,1.000917721E1
9.860545221E0,-1.856830359E0,-8.446664214E-1,1.021974564E1
9.870545221E0,-2.050648928E0,-9.930213690E-1,1.041835022E1
9.880545221E0,-2.335394859E0,-1.196411371E0,1.043031406E1
9.890545221E0,-2.256431818E0,-1.337587833E0,1.021496010E1
9.900545221E0,-1.947757602E0,-1.328016520E0,9.839286804E0
9.910545221E0,-1.646261930E0,-1.225125194E0,9.355937004E0
9.920545221E0,-1.167697430E0,-1.117448211E0,8.650053978E0
9.930545221E0,-1.088734269E0,-1.153340459E0,8.516056061E0
9.940545221E0,-1.160519004E0,-1.081555843E0,8.374878883E0
9.950545221E0,-1.418943882E0,-9.523434043E-1,8.286344528E0
9.960545221E0,-1.698904037E0,-8.590233326E-1,8.202595711E0
9.970545221E0,-1.808973908E0,-8.015955687E-1,7.932207108E0
9.980545221E0,-1.691725612E0,-7.657032609E-1,7.518248558E0
9.990545221E0,-1.445264935E0,-1.081555843E0,6.876972198E0
1.000054522E1,-1.349551916E0,-1.244267821E0,6.994220734E0
1.001054522E1,-1.318445325E0,-1.320838094E0,7.367500782E0
1.002054522E1,-1.359123230E0,-1.373480201E0,7.972885132E0
1.003054522E1,-1.261017561E0,-1.447657704E0,8.489734650E0
1.004054522E1,-1.016949654E0,-1.572084427E0,8.836693764E0
1.005054522E1,-9.619147182E-1,-1.466800332E0,8.836693764E0
1.006054522E1,-1.488335729E0,-5.024927258E-1,8.898907661E0
1.007054522E1,-1.639083505E0,-2.033899277E-1,9.123832703E0
1.008054522E1,-1.765903115E0,1.196411345E-2,9.391828537E0
1.009054522E1,-1.679761529E0,1.196411327E-1,9.652647018E0
1.010054522E1,-1.366301775E0,5.982056633E-2,9.970891953E0
1.011054522E1,-1.122233868E0,-5.024927482E-2,1.040877819E1
1.012054522E1,-8.518448472E-1,-3.972085714E-1,1.100219822E1
1.013054522E1,-8.805587292E-1,-8.662018180E-1,1.169133186E1
1.014054522E1,-9.403793216E-1,-8.781659007E-1,1.194736385E1
1.015054522E1,-1.107876897E0,-7.010970116E-1,1.170568848E1
1.016054522E1,-1.323230863E0,-5.479564071E-1,1.128215885E1
1.017054522E1,-1.323230863E0,-5.479564071E-1,1.128215885E1
1.018054522E1,-2.074577332E0,-2.416750938E-1,1.079880905E1
1.019054522E1,-2.026720762E0,-4.546363056E-1,1.038485050E1
1.020054522E1,-2.026720762E0,-4.546363056E-1,1.038485050E1
1.021054522E1,-2.026720762E0,-4.546363056E-1,1.038485050E1
1.022054522E1,-2.026720762E0,-4.546363056E-1,1.038485050E1
1.023054522E1,-2.026720762E0,-4.546363056E-1,1.038485050E1
1.024054522E1,-8.255237937E-1,9.882357717E-1,9.018548965E0
1.025054522E1,-1.110269666E0,7.992027402E-1,9.370293617E0
1.026054522E1,-1.110269666E0,7.992027402E-1,9.370293617E0
1.027054522E1,-1.110269666E0,7.992027402E-1,9.370293617E0
1.028054522E1,-1.110269666E0,7.992027402E-1,9.370293617E0
1.029054522E1,-1.110269666E0,7.992027402E-1,9.370293617E0
1.030054522E1,-1.485942841E0,3.134597540E-1,8.853444099E0
1.031054522E1,-1.411765337E0,5.120640397E-1,8.604590416E0
1.032054522E1,-1.423729420E0,7.489534616E-1,8.566305161E0
1.033054522E1,-1.576870084E0,9.403793216E-1,8.755337715E0
1.034054522E1,-1.576870084E0,9.403793216E-1,8.755337715E0
1.035054522E1,-1.576870084E0,9.403793216E-1,8.755337715E0
1.036054522E1,-1.576870084E0,9.403793216E-1,8.755337715E0
1.037054522E1,-1.536192179E0,9.188438654E-1,9.394221306E0
1.038054522E1,-1.280160069E0,1.062413216E0,8.963513374E0
1.039054522E1,-1.076770186E0,1.234696507E0,8.528019905E0
1.040054522E1,-1.052842021E0,1.450050473E0,8.283951759E0
1.041054522E1,-1.265803218E0,1.270588875E0,8.870193481E0
1.042054522E1,-1.404586911E0,8.494520187E-1,9.767501831E0
1.043054522E1,-1.531406522E0,3.876372576E-1,1.081316566E1
1.044054522E1,-1.557727575E0,-4.785645381E-2,1.162911797E1
1.045054522E1,-1.612762451E0,-3.038884699E-1,1.196650600E1
1.046054522E1,-1.804188251E0,-4.331009090E-1,1.192822075E1
1.047054522E1,-1.849651933E0,-4.450650215E-1,1.184925747E1
1.048054522E1,-1.849651933E0,-4.450650215E-1,1.184925747E1
1.049054522E1,-1.605584025E0,-2.392822690E-2,1.089691448E1
1.050054522E1,-1.411765337E0,1.531406492E-1,1.087537861E1
1.051054522E1,-1.306481123E0,4.259224236E-1,1.084187984E1
1.052054522E1,-1.186840057E0,6.293123364E-1,1.081077290E1
1.053054522E1,-1.002592683E0,7.680960894E-1,1.076052380E1
1.054054522E1,-9.044869542E-1,8.590233326E-1,1.049731255E1
1.055054522E1,-7.178468108E-1,8.255237937E-1,1.020299530E1
1.056054522E1,-6.245267391E-1,8.063812256E-1,1.032263660E1
1.057054522E1,-5.575276613E-1,8.733802438E-1,1.041835022E1
1.058054522E1,-4.761717021E-1,9.643075466E-1,1.041117096E1
1.059054522E1,-4.761717021E-1,9.643075466E-1,1.041117096E1
1.060054522E1,-5.527420044E-1,1.160519004E0,1.040877819E1
1.061054522E1,-4.761717021E-1,1.136590719E0,1.003310490E1
1.062054522E1,-4.761717021E-1,1.136590719E0,1.003310490E1
1.063054522E1,-4.761717021E-1,1.136590719E0,1.003310490E1
1.064054522E1,-4.761717021E-1,1.136590719E0,1.003310490E1
1.065054522E1,-4.761717021E-1,1.136590719E0,1.003310490E1
1.066054522E1,-6.101697683E-1,1.785045743E0,8.123632431E0
1.067054522E1,-7.657032609E-1,1.954936147E0,7.913064480E0
1.068054522E1,-8.805587292E-1,2.048256159E0,7.767102242E0
1.069054522E1,-8.805587292E-1,2.048256159E0,7.767102242E0
1.070054522E1,-8.805587292E-1,2.048256159E0,7.767102242E0
1.071054522E1,-8.805587292E-1,2.048256159E0,7.767102242E0
1.072054522E1,-7.944171429E-1,2.127219439E0,7.901100159E0
1.073054522E1,-6.053841114E-1,2.139183521E0,8.193024635E0
1.074054522E1,-4.713860750E-1,2.146361828E0,8.487341881E0
1.075054522E1,-5.072783828E-1,2.165504456E0,8.810373306E0
1.076054522E1,-5.072783828E-1,2.165504456E0,8.810373306E0
1.077054522E1,-5.072783828E-1,2.165504456E0,8.810373306E0
1.078054522E1,-1.038485050E0,1.859223247E0,9.547362328E0
1.079054522E1,-1.229910851E0,1.813759565E0,9.595218658E0
1.080054522E1,-1.404586911E0,1.806581140E0,9.590433121E0
1.081054522E1,-1.469193101E0,1.773081541E0,9.578469276E0
1.082054522E1,-1.433300734E0,1.734796405E0,9.506684303E0
1.083054522E1,-1.433300734E0,1.734796405E0,9.506684303E0
1.084054522E1,-1.430907965E0,1.667797327E0,9.686145782E0
1.085054522E1,-1.430907965E0,1.667797327E0,9.686145782E0
1.086054522E1,-1.488335729E0,1.629512191E0,9.839286804E0
1.087054522E1,-1.507478237E0,1.588834286E0,9.745966911E0
1.088054522E1,-1.545763373E0,1.545763373E0,9.528220177E0
1.089054522E1,-1.507478237E0,1.521835208E0,9.236295700E0
1.090054522E1,-1.167697430E0,1.562513232E0,8.807980537E0
1.091054522E1,-9.308080077E-1,1.639083505E0,8.652446747E0
1.092054522E1,-7.489534616E-1,1.715653777E0,8.590232849E0
1.093054522E1,-6.819544435E-1,1.842473388E0,8.657232285E0
1.094054522E1,-7.058826685E-1,1.947757602E0,8.920442581E0
1.095054522E1,-8.805587292E-1,2.072184324E0,9.262616158E0
1.096054522E1,-1.055234790E0,2.076970100E0,9.410971642E0
1.097054522E1,-1.160519004E0,1.677368641E0,9.315258980E0
1.098054522E1,-1.160519004E0,1.677368641E0,9.315258980E0
1.099054522E1,-9.858429432E-1,1.526620865E0,9.422935486E0
1.100054522E1,-8.590233326E-1,1.674975872E0,9.516255379E0
1.101054522E1,-8.159525394E-1,1.921436548E0,9.607182503E0
1.102054522E1,-7.872386575E-1,2.165504456E0,9.690931320E0
1.103054522E1,-7.106683254E-1,2.292324066E0,9.657432556E0
1.104054522E1,-3.732803464E-1,2.242074728E0,9.530612946E0
1.105054522E1,-5.503492057E-2,2.179861546E0,9.590433121E0
1.106054522E1,2.608176768E-1,2.175075769E0,9.769894600E0
1.107054522E1,4.211367965E-1,2.268395901E0,1.000439167E1
1.108054522E1,5.455635786E-1,2.373680115E0,1.013121128E1
1.109054522E1,6.484549642E-1,2.419143677E0,1.014317513E1
1.110054522E1,7.465606928E-1,2.395215511E0,1.003071213E1
1.111054522E1,7.465606928E-1,2.395215511E0,1.003071213E1
1.112054522E1,7.465606928E-1,2.395215511E0,1.003071213E1
1.113054522E1,7.465606928E-1,2.395215511E0,1.003071213E1
1.114054522E1,9.451649189E-1,2.108076811E0,9.442078590E0
1.115054522E1,6.723831892E-1,2.155933142E0,9.425328255E0
1.116054522E1,4.187439680E-1,2.206182480E0,9.348757744E0
1.117054522E1,3.517449200E-1,2.213361025E0,9.248259544E0
1.118054522E1,3.517449200E-1,2.213361025E0,9.248259544E0
1.119054522E1,3.517449200E-1,2.213361025E0,9.248259544E0
1.120054522E1,9.212366939E-1,2.146361828E0,8.635697365E0
1.121054522E1,1.148554921E0,2.184647083E0,8.621339798E0
1.122054522E1,1.246660590E0,2.313859463E0,8.745766640E0
1.123054522E1,1.261017561E0,2.474178553E0,8.989834785E0
1.124054522E1,1.165304661E0,2.658426046E0,9.142974854E0
1.125054522E1,1.165304661E0,2.658426046E0,9.142974854E0
1.126054522E1,9.164510965E-1,2.656033039E0,8.953942299E0
1.127054522E1,1.095912814E0,2.569891453E0,9.032905579E0
1.128054522E1,1.354337573E0,2.562713146E0,9.154939651E0
1.129054522E1,1.622333765E0,2.622533560E0,9.255437851E0
1.130054522E1,1.904686809E0,2.711068153E0,9.351150513E0
1.131054522E1,2.182254314E0,2.830709219E0,9.518648148E0
1.132054522E1,2.373680115E0,3.005385160E0,9.753145218E0
1.133054522E1,2.373680115E0,3.005385160E0,9.753145218E0
1.134054522E1,2.184647083E0,2.780459881E0,9.530612946E0
1.135054522E1,1.957328916E0,2.603390932E0,9.521040916E0
1.136054522E1,1.777867198E0,2.481357098E0,9.655039787E0
1.137054522E1,1.663011789E0,2.419143677E0,9.805787086E0
1.138054522E1,1.629512191E0,2.407179594E0,9.868000984E0
1.139054522E1,1.615155339E0,2.359323025E0,9.899106979E0
1.140054522E1,1.603191137E0,2.309073925E0,9.844072342E0
1.141054522E1,1.674975872E0,2.249253273E0,9.841679573E0
1.142054522E1,1.773081541E0,2.213361025E0,9.875179291E0
1.143054522E1,1.840080619E0,2.210968018E0,9.994820595E0
1.144054522E1,1.797009826E0,2.263610125E0,1.002592659E1
1.145054522E1,1.612762451E0,2.395215511E0,1.005464077E1
1.146054522E1,1.612762451E0,2.395215511E0,1.005464077E1
1.147054522E1,1.612762451E0,2.395215511E0,1.005464077E1
1.148054522E1,1.612762451E0,2.395215511E0,1.005464077E1
1.149054522E1,8.853443861E-1,2.691925526E0,8.549555779E0
1.150054522E1,7.657032609E-1,2.919243574E0,8.322237015E0
1.151054522E1,8.135597110E-1,3.012563705E0,8.279166222E0
1.152054522E1,9.523434043E-1,3.048455954E0,8.367700577E0
1.153054522E1,9.523434043E-1,3.048455954E0,8.367700577E0
1.154054522E1,1.004985452E0,3.220739365E0,8.484949112E0
1.155054522E1,1.004985452E0,3.220739365E0,8.484949112E0
1.156054522E1,9.834501147E-1,2.971885681E0,8.315058708E0
1.157054522E1,9.236295223E-1,2.742174864E0,8.286344528E0
1.158054522E1,7.968099117E-1,2.589034081E0,8.453842163E0
1.159054522E1,5.790630579E-1,2.560320139E0,8.714659691E0
1.160054522E1,-7.178467698E-3,2.744567633E0,9.174081802E0
1.161054522E1,-1.507478207E-1,2.758924484E0,9.281759262E0
1.162054522E1,-1.507478207E-1,2.684746981E0,9.265008926E0
1.163054522E1,-3.110669367E-2,2.622533560E0,9.126225471E0
1.164054522E1,2.416750938E-1,2.565105915E0,9.044869423E0
1.165054522E1,4.857429862E-1,2.541177750E0,9.030512810E0
1.166054522E1,6.221339107E-1,2.591426849E0,9.071190834E0
1.167054522E1,6.412764788E-1,2.737389088E0,9.032905579E0
1.168054522E1,6.077769399E-1,2.696711063E0,9.040083885E0
1.169054522E1,5.335994363E-1,2.589034081E0,9.145368576E0
1.170054522E1,4.259224236E-1,2.486142635E0,9.303294182E0
1.171054522E1,2.560320199E-1,2.435893536E0,9.461220741E0
1.172054522E1,6.699903309E-2,2.445464849E0,9.643074989E0
1.173054522E1,-4.067798331E-2,2.368894339E0,9.734002113E0
1.174054522E1,4.307080805E-2,2.057827473E0,9.609575272E0
1.175054522E1,1.435693540E-2,2.019542217E0,9.485149384E0
1.176054522E1,-2.871387079E-2,2.031506538E0,9.370293617E0
1.177054522E1,2.392822644E-3,2.057827473E0,9.320044518E0
1.178054522E1,1.004985496E-1,2.084148407E0,9.334401131E0
1.179054522E1,1.220339537E-1,2.182254314E0,9.413364410E0
1.180054522E1,9.810572863E-2,2.299502611E0,9.389435768E0
1.181054522E1,2.392822690E-2,2.404786825E0,9.296115875E0
1.182054522E1,-3.828516230E-2,2.395215511E0,9.267401695E0
1.183054522E1,-4.785645381E-2,2.354537487E0,9.190832138E0
1.184054522E1,-5.742774159E-2,2.342573404E0,9.020941734E0
1.185054522E1,-5.742774159E-2,2.342573404E0,9.020941734E0
1.186054522E1,-2.344966233E-1,2.467000246E0,8.764909744E0
1.187054522E1,-2.344966233E-1,2.467000246E0,8.764909744E0
1.188054522E1,-2.344966233E-1,2.467000246E0,8.764909744E0
1.189054522E1,-2.344966233E-1,2.467000246E0,8.764909744E0
1.190054522E1,-2.344966233E-1,2.467000246E0,8.764909744E0
1.191054522E1,-4.426721931E-1,3.002992392E0,8.638090134E0
1.192054522E1,-4.426721931E-1,3.002992392E0,8.638090134E0
1.193054522E1,-3.014956415E-1,2.761317253E0,8.855836868E0
1.194054522E1,-1.651047617E-1,2.524427891E0,9.102297783E0
1.195054522E1,-1.651047617E-1,2.524427891E0,9.102297783E0
1.196054522E1,-1.651047617E-1,2.524427891E0,9.102297783E0
1.197054522E1,-3.397808075E-1,1.978864312E0,1.002592659E1
1.198054522E1,-6.652047038E-1,1.938186288E0,9.973284721E0
1.199054522E1,-9.643075466E-1,1.942971945E0,9.734002113E0
1.200054522E1,-1.222732425E0,2.005185366E0,9.391828537E0
1.201054522E1,-1.263410330E0,2.093719721E0,9.032905579E0
1.202054522E1,-1.263410330E0,2.093719721E0,9.032905579E0
1.203054522E1,-1.263410330E0,2.093719721E0,9.032905579E0
1.204054522E1,5.790630579E-1,2.165504456E0,9.224330902E0
1.205054522E1,7.657032609E-1,2.139183521E0,9.253045082E0
1.206054522E1,8.733802438E-1,1.938186288E0,9.245866776E0
1.207054522E1,8.446664214E-1,1.691725612E0,9.107083321E0
1.208054522E1,7.202396393E-1,1.435693622E0,8.922835350E0
1.209054522E1,2.009970993E-1,9.834501147E-1,8.286344528E0
1.210054522E1,-2.871387079E-2,9.020941257E-1,8.030312538E0
1.211054522E1,-1.842473447E-1,8.949156404E-1,7.886743546E0
1.212054522E1,-2.440679073E-1,9.690931439E-1,7.834101200E0
1.213054522E1,-2.608176768E-1,1.119840980E0,7.869993687E0
1.214054522E1,-2.273181528E-1,1.354337573E0,8.090133667E0
1.215054522E1,-1.435693651E-1,1.646261930E0,8.389236450E0
1.216054522E1,8.973084688E-1,1.895115495E0,9.260223389E0
1.217054522E1,1.483550072E0,1.840080619E0,9.822537422E0
1.218054522E1,1.820937991E0,1.765903115E0,1.040638542E1
1.219054522E1,1.751546144E0,1.655833244E0,1.075573826E1
1.220054522E1,1.373480201E0,1.495514154E0,1.082034397E1
1.221054522E1,8.135597110E-1,1.330409408E0,1.075095177E1
1.222054522E1,2.344966233E-1,1.074377418E0,1.050449181E1
1.223054522E1,-7.513462901E-1,9.786644578E-1,9.889535904E0
1.224054522E1,-9.714859724E-1,1.127019525E0,9.633503914E0
1.225054522E1,-1.052842021E0,1.368694544E0,9.566504478E0
1.226054522E1,-1.024128079E0,1.612762451E0,9.659825325E0
1.227054522E1,-1.002592683E0,1.947757602E0,9.717252731E0
1.228054522E1,-1.012163997E0,2.270788670E0,9.750752449E0
1.229054522E1,-1.004985452E0,2.476571321E0,9.784252167E0
1.230054522E1,-5.000999570E-1,1.995614052E0,9.841679573E0
1.231054522E1,-2.895315289E-1,1.519442320E0,1.008814049E1
1.232054522E1,-4.474578202E-1,1.117448211E0,1.065284634E1
1.233054522E1,-8.949156404E-1,9.882357717E-1,1.107398319E1
1.234054522E1,-8.949156404E-1,9.882357717E-1,1.107398319E1
1.235054522E1,-8.949156404E-1,9.882357717E-1,1.107398319E1
1.236054522E1,-8.949156404E-1,9.882357717E-1,1.107398319E1
1.237054522E1,-8.949156404E-1,9.882357717E-1,1.107398319E1
1.238054522E1,-8.949156404E-1,9.882357717E-1,1.107398319E1
1.239054522E1,-4.354937077E-1,2.194218397E0,8.721838951E0
1.239054522E1,-4.354937077E-1,2.194218397E0,8.721838951E0
1.241054522E1,5.670989752E-1,1.962114573E0,9.308079720E0
1.242054522E1,9.379864931E-1,1.363908887E0,1.026999474E1
1.243054522E1,9.379864931E-1,1.363908887E0,1.026999474E1
1.244054522E1,9.379864931E-1,1.363908887E0,1.026999474E1
1.245054522E1,3.014956415E-1,-7.417750359E-2,1.156451225E1
1.245054522E1,9.379864931E-1,1.363908887E0,1.026999474E1
1.247054522E1,-1.435693540E-2,-3.780659735E-1,1.074138069E1
1.248054522E1,-8.853443712E-2,-3.708875179E-1,1.031067276E1
1.249054522E1,-2.656033039E-1,-1.028913707E-1,9.868000984E0
1.250054522E1,-2.656033039E-1,-1.028913707E-1,9.868000984E0
1.251054522E1,-2.656033039E-1,-1.028913707E-1,9.868000984E0
1.252054522E1,6.939185411E-2,9.355936646E-1,8.116454124E0
1.253054522E1,3.134597540E-1,1.093519926E0,7.740781307E0
1.254054522E1,5.838487148E-1,1.203589797E0,7.616354465E0
1.255054522E1,7.992027402E-1,1.342373490E0,7.826922894E0
1.256054522E1,8.422735929E-1,1.483550072E0,8.329415321E0
1.257054522E1,8.566305041E-1,1.234696507E0,9.236295700E0
1.258054522E1,8.231309652E-1,1.016949654E0,9.707681656E0
1.259054522E1,6.843472719E-1,8.350951076E-1,1.021735287E1
1.260054522E1,5.958128572E-1,6.963114142E-1,1.065045357E1
1.261054522E1,5.359922647E-1,5.240281820E-1,1.091605663E1
1.262054522E1,4.378865361E-1,3.732803464E-1,1.108116150E1
1.263054522E1,2.440679073E-1,3.565305769E-1,1.120798111E1
1.264054522E1,-1.794617027E-1,5.886343718E-1,1.080598736E1
1.265054522E1,-2.297109663E-1,8.446664214E-1,1.043509960E1
1.266054522E1,-2.368894368E-1,1.172483087E0,1.000439167E1
1.267054522E1,1.196411345E-2,1.421336651E0,9.631111145E0
1.268054522E1,3.158525825E-1,1.682154298E0,9.233902931E0
1.269054522E1,4.570291340E-1,2.081755638E0,8.855836868E0
1.270054522E1,4.809573591E-1,2.483749866E0,8.609375954E0
1.271054522E1,9.451649189E-1,2.543570518E0,8.638090134E0
1.272054522E1,1.332802176E0,2.134397745E0,9.119047165E0
1.273054522E1,1.622333765E0,1.720439434E0,1.005464077E1
1.274054522E1,1.751546144E0,1.313659668E0,1.088734341E1
1.275054522E1,1.710868239E0,8.709874153E-1,1.155254745E1
1.276054522E1,1.493121386E0,3.996013701E-1,1.218425274E1
1.277054522E1,9.379864931E-1,7.178467698E-3,1.241635704E1
1.278054522E1,-5.670989752E-1,-3.684946895E-1,1.148554897E1
1.279054522E1,-1.060020447E0,-5.000999570E-1,1.058345413E1
1.280054522E1,-1.409372568E0,-3.828516304E-1,9.573683739E0
1.281054522E1,-1.409372568E0,-3.828516304E-1,9.573683739E0
1.282054522E1,-1.409372568E0,-3.828516304E-1,9.573683739E0
1.283054522E1,-9.116654396E-1,5.718846321E-1,7.889136314E0
1.284054522E1,-2.033899277E-1,7.776673436E-1,7.889136314E0
1.285054522E1,-2.033899277E-1,7.776673436E-1,7.889136314E0
1.286054522E1,-2.033899277E-1,7.776673436E-1,7.889136314E0
1.287054522E1,-2.033899277E-1,7.776673436E-1,7.889136314E0
1.288054522E1,-2.033899277E-1,7.776673436E-1,7.889136314E0
1.289054522E1,6.675975323E-1,8.111668825E-1,8.391629219E0
1.290054522E1,1.818545163E-1,4.378865361E-1,8.855836868E0
1.291054522E1,-4.091726840E-1,2.464607358E-1,9.186046600E0
1.292054522E1,-4.091726840E-1,2.464607358E-1,9.186046600E0
1.293054522E1,-4.091726840E-1,2.464607358E-1,9.186046600E0
1.294054522E1,-4.091726840E-1,2.464607358E-1,9.186046600E0
1.295054522E1,-2.151147604E0,9.116654396E-1,1.052124119E1
1.296054522E1,-2.072184324E0,1.138983607E0,1.049252701E1
1.297054522E1,-1.964507341E0,1.471585870E0,1.027717304E1
1.298054522E1,-1.689332843E0,1.837687731E0,9.839286804E0
1.299054522E1,-1.689332843E0,1.837687731E0,9.839286804E0
1.300054522E1,-1.689332843E0,1.837687731E0,9.839286804E0
1.301054522E1,2.871387079E-2,1.588834286E0,8.255238533E0
1.302054522E1,1.220339537E-1,9.068797827E-1,9.664610863E0
1.303054522E1,-1.674975902E-1,4.833501875E-1,1.133958626E1
1.304054522E1,-7.250252366E-1,2.536391914E-1,1.262453270E1
1.305054522E1,-1.473978758E0,1.914258152E-1,1.315095329E1
1.306054522E1,-1.473978758E0,1.914258152E-1,1.315095329E1
1.307054522E1,-3.251846075E0,4.067798555E-1,1.124387360E1
1.308054522E1,-3.251846075E0,4.067798555E-1,1.124387360E1
1.309054522E1,-2.148754835E0,1.890329868E-1,8.944371223E0
1.310054522E1,-6.843472719E-1,-1.268195957E-1,8.228917122E0
1.311054522E1,8.015955687E-1,-2.991028428E-1,7.908278942E0
1.312054522E1,1.923829436E0,-6.939185411E-2,7.975277901E0
1.313054522E1,1.923829436E0,-6.939185411E-2,7.975277901E0
1.314054522E1,2.292324066E0,8.039883971E-1,9.410971642E0
1.315054522E1,1.557727575E0,6.245267391E-1,9.903892517E0
1.316054522E1,5.862415433E-1,3.708875179E-1,9.949356079E0
1.317054522E1,-3.230310678E-1,5.024927482E-2,9.841679573E0
1.318054522E1,-9.571290612E-1,-3.565305769E-1,9.482755661E0
1.319054522E1,-1.311266780E0,-6.987041831E-1,8.965906143E0
1.320054522E1,-2.093719721E0,-3.517449200E-1,8.530412674E0
1.321054522E1,-2.093719721E0,-3.517449200E-1,8.530412674E0
1.322054522E1,-2.459821701E0,2.727817893E-1,8.580661774E0
1.323054522E1,-2.263610125E0,4.235295951E-1,8.638090134E0
1.324054522E1,-2.005185366E0,5.551348329E-1,8.719446182E0
1.325054522E1,-1.993221283E0,8.446664214E-1,8.934800148E0
1.326054522E1,-1.974078655E0,1.167697430E0,9.209974289E0
1.327054522E1,-1.349551916E0,1.464407444E0,8.865407944E0
1.328054522E1,-1.464407444E0,1.871187329E0,8.547162056E0
1.329054522E1,-1.653440475E0,1.990828395E0,8.894122124E0
1.330054522E1,-1.519442320E0,1.521835208E0,9.808179855E0
1.331054522E1,-1.186840057E0,9.595218897E-1,1.076770210E1
1.332054522E1,-7.920243144E-1,6.580262184E-1,1.161954689E1
1.333054522E1,-2.751746178E-1,5.120640397E-1,1.246899891E1
1.334054522E1,3.661018610E-1,1.794617027E-1,1.363191032E1
1.335054522E1,4.402793646E-1,-1.746760458E-1,1.372762394E1
1.336054522E1,2.488535494E-1,-4.546363056E-1,1.362712479E1
1.337054522E1,-6.221338734E-2,-6.197410822E-1,1.328495121E1
1.338054522E1,-3.397808075E-1,-7.202396393E-1,1.271785259E1
1.339054522E1,-5.240281820E-1,-8.470591903E-1,1.197846985E1
1.340054522E1,-6.077769399E-1,-9.355936646E-1,1.135633659E1
1.341054522E1,-6.077769399E-1,-9.355936646E-1,1.135633659E1
1.342054522E1,-6.077769399E-1,-9.355936646E-1,1.135633659E1
1.343054522E1,-6.077769399E-1,-9.355936646E-1,1.135633659E1
1.344054522E1,-3.014956415E-1,1.292124242E-1,9.650253296E0
1.345054522E1,-1.914258152E-1,1.627119333E-1,9.217152596E0
1.346054522E1,-1.052841991E-1,2.368894368E-1,8.800801277E0
1.347054522E1,3.349951655E-2,2.177468538E-1,8.269595146E0
1.348054522E1,3.349951655E-2,2.177468538E-1,8.269595146E0
1.349054522E1,3.349951655E-2,2.177468538E-1,8.269595146E0
1.350054522E1,3.349951655E-2,2.177468538E-1,8.269595146E0
1.351054522E1,8.494520187E-1,4.115654826E-1,6.422336102E0
1.352054522E1,6.532405615E-1,6.460621357E-1,6.515655994E0
1.353054522E1,4.498506486E-1,8.135597110E-1,6.778866768E0
1.354054522E1,3.038884699E-1,8.350951076E-1,7.147361279E0
1.355054522E1,2.632105052E-1,4.235295951E-1,7.683353424E0
1.356054522E1,2.703889608E-1,3.014956415E-1,7.994420528E0
1.357054522E1,2.321037948E-1,2.751746178E-1,8.260024071E0
1.358054522E1,2.321037948E-1,2.751746178E-1,8.260024071E0
1.359054522E1,5.934200287E-1,2.943171859E-1,9.049654961E0
1.360054522E1,8.183453679E-1,2.679961324E-1,9.456435204E0
1.361054522E1,9.595218897E-1,1.698904037E-1,9.872786522E0
1.362054522E1,7.848458290E-1,3.589234129E-2,1.102851963E1
1.363054522E1,4.953143001E-1,8.853443712E-2,1.153819084E1
1.364054522E1,1.172483116E-1,2.464607358E-1,1.180857944E1
1.365054522E1,-2.129612118E-1,3.421736360E-1,1.172961617E1
1.366054522E1,-4.043870270E-1,3.373879790E-1,1.137547874E1
1.367054522E1,-4.331009090E-1,3.517449200E-1,1.090887833E1
1.368054522E1,-3.254238665E-1,4.450650215E-1,1.036570740E1
1.369054522E1,4.067798331E-2,8.039883971E-1,9.722038269E0
1.370054522E1,1.890329868E-1,1.048056364E0,9.590433121E0
1.371054522E1,2.847459018E-1,1.220339537E0,9.387042999E0
1.372054522E1,3.469592929E-1,1.320838094E0,9.200403214E0
1.373054522E1,2.703889608E-1,1.349551916E0,9.028120041E0
1.374054522E1,1.172483116E-1,1.232303619E0,8.791230202E0
1.375054522E1,-2.392822690E-2,1.064806104E0,8.571090698E0
1.376054522E1,-2.392822690E-2,1.064806104E0,8.571090698E0
1.377054522E1,-2.392822690E-2,1.064806104E0,8.571090698E0
1.378054522E1,-2.392822690E-2,1.064806104E0,8.571090698E0
1.379054522E1,-2.392822690E-2,1.064806104E0,8.571090698E0
1.380054522E1,1.890329868E-1,1.792224169E0,8.221738815E0
1.381054522E1,4.642075896E-1,1.866401672E0,8.384450912E0
1.382054522E1,5.623133183E-1,1.909472466E0,8.736195564E0
1.383054522E1,5.623133183E-1,1.909472466E0,8.736195564E0
1.384054522E1,5.623133183E-1,1.909472466E0,8.736195564E0
1.385054522E1,5.623133183E-1,1.909472466E0,8.736195564E0
1.386054522E1,-6.077769399E-1,1.232303619E0,1.033699417E1
1.387054522E1,-8.709874153E-1,1.069591761E0,1.070548820E1
1.388054522E1,-1.143769264E0,9.882357717E-1,1.097827053E1
1.389054522E1,-1.344766378E0,9.762716293E-1,1.088973618E1
1.390054522E1,-1.344766378E0,9.762716293E-1,1.088973618E1
1.391054522E1,-1.344766378E0,9.762716293E-1,1.088973618E1
1.392054522E1,-1.162911773E0,1.538584948E0,9.473184586E0
1.393054522E1,-1.031306505E0,1.885544300E0,8.939585686E0
1.394054522E1,-8.733802438E-1,2.136790514E0,8.382058144E0
1.395054522E1,-6.795616150E-1,2.146361828E0,7.936992645E0
1.396054522E1,-3.349951804E-1,1.701296926E0,8.087740898E0
1.397054522E1,-3.349951804E-1,1.701296926E0,8.087740898E0
1.398054522E1,-3.349951804E-1,1.701296926E0,8.087740898E0
1.399054522E1,-4.833501875E-1,3.493520916E-1,1.236850071E1
1.400054522E1,-7.178468108E-1,3.302095234E-1,1.256710434E1
1.401054522E1,-8.303094506E-1,2.512463629E-1,1.228953743E1
1.402054522E1,-5.934200287E-1,2.392822690E-2,1.178704453E1
1.403054522E1,-1.339980662E-1,-1.818545163E-1,1.132522964E1
1.404054522E1,5.503492355E-1,3.828516230E-2,1.050927734E1
1.405054522E1,6.221339107E-1,3.661018610E-1,1.003310490E1
1.406054522E1,6.221339107E-1,3.661018610E-1,1.003310490E1
1.407054522E1,5.599204898E-1,7.824530005E-1,9.107083321E0
1.408054522E1,3.876372576E-1,7.848458290E-1,8.630910873E0
1.409054522E1,2.584248483E-1,5.862415433E-1,8.262416840E0
1.410054522E1,1.555334777E-1,3.828516304E-1,8.039883614E0
1.411054522E1,-5.264209956E-2,3.517449200E-1,7.688138962E0
1.412054522E1,5.982056633E-2,4.283152521E-1,7.482356548E0
1.413054522E1,2.679961324E-1,5.551348329E-1,7.274180889E0
1.414054522E1,4.043870270E-1,8.303094506E-1,7.106683254E0
1.415054522E1,3.326023519E-1,1.172483087E0,7.200003147E0
1.416054522E1,1.220339537E-1,1.502692580E0,7.302894592E0
1.417054522E1,-1.387837082E-1,1.694118381E0,7.353144169E0
1.418054522E1,-9.092726111E-1,1.785045743E0,7.506284714E0
1.419054522E1,-1.430907965E0,1.682154298E0,7.585247993E0
1.420054522E1,-1.935793519E0,1.512263894E0,7.874779224E0
1.421054522E1,-2.330609322E0,1.328016520E0,8.291130066E0
1.422054522E1,-2.617748022E0,1.093519926E0,9.035298347E0
1.423054522E1,-2.763710260E0,8.135597110E-1,9.789037704E0
1.424054522E1,-2.890529871E0,5.670989752E-1,1.038245773E1
1.425054522E1,-2.538784742E0,6.699903309E-2,1.124387360E1
1.426054522E1,-2.031506538E0,-1.698904037E-1,1.133480072E1
1.427054522E1,-1.395015597E0,-3.373879790E-1,1.155733299E1
1.428054522E1,-1.395015597E0,-3.373879790E-1,1.155733299E1
1.429054522E1,-5.527420044E-1,-4.737788737E-1,1.278485107E1
1.430054522E1,-5.479564071E-1,-5.144568682E-1,1.337587833E1
1.431054522E1,-8.231309652E-1,-5.694918036E-1,1.357926846E1
1.432054522E1,-8.231309652E-1,-5.694918036E-1,1.357926846E1
1.433054522E1,-8.231309652E-1,-5.694918036E-1,1.357926846E1
1.434054522E1,-8.231309652E-1,-5.694918036E-1,1.357926846E1
1.435054522E1,-2.110469580E0,-6.125625968E-1,1.135155106E1
1.436054522E1,-2.122433662E0,-3.708875179E-1,1.050209904E1
1.437054522E1,-1.825723648E0,-1.890329868E-1,9.643074989E0
1.438054522E1,-1.282552958E0,1.674975827E-2,8.819944382E0
1.439054522E1,-1.282552958E0,1.674975827E-2,8.819944382E0
1.440054522E1,-1.282552958E0,1.674975827E-2,8.819944382E0
1.441054522E1,-1.282552958E0,1.674975827E-2,8.819944382E0
1.442054522E1,5.862415433E-1,1.797009826E0,7.757531166E0
1.443054522E1,5.862415433E-1,1.797009826E0,7.757531166E0
1.444054522E1,6.388836503E-1,1.880758643E0,8.219346046E0
1.445054522E1,7.010970116E-1,1.603191137E0,8.633303642E0
1.446054522E1,7.010970116E-1,1.603191137E0,8.633303642E0
1.447054522E1,4.546363056E-1,1.117448211E0,1.014556789E1
1.448054522E1,2.297109663E-1,1.045663476E0,1.041356373E1
1.449054522E1,1.914258115E-2,1.038485050E0,1.040159988E1
1.450054522E1,-1.866401732E-1,1.136590719E0,1.018624592E1
1.451054522E1,-2.871387079E-2,1.062413216E0,1.004985523E1
1.452054522E1,3.684946895E-1,9.523434043E-1,1.015274620E1
1.453054522E1,8.518448472E-1,6.388836503E-1,1.068156052E1
1.454054522E1,8.518448472E-1,3.326023519E-1,1.123908806E1
1.455054522E1,7.130611539E-1,-2.871387079E-2,1.185404301E1
1.456054522E1,3.278166950E-1,-2.871387303E-1,1.210050392E1
1.457054522E1,-1.435693651E-1,-5.144568682E-1,1.199282742E1
1.458054522E1,-6.340979934E-1,-6.843472719E-1,1.166261768E1
1.459054522E1,-1.050449133E0,-8.350951076E-1,1.116012478E1
1.460054522E1,-1.485942841E0,-7.944171429E-1,9.657432556E0
1.461054522E1,-1.495514154E0,-4.809573591E-1,9.049654961E0
1.462054522E1,-1.371087432E0,-3.110669367E-2,8.434700012E0
1.463054522E1,-1.026520967E0,3.421736360E-1,7.929814339E0
1.464054522E1,-5.216353536E-1,7.106683254E-1,7.585247993E0
1.465054522E1,-1.651047617E-1,1.328016520E0,7.137789726E0
1.466054522E1,-4.307080805E-2,2.136790514E0,6.597012043E0
1.467054522E1,3.158525825E-1,2.801995277E0,6.139982700E0
1.468054522E1,5.312066078E-1,2.443071842E0,6.613761902E0
1.469054522E1,6.604190469E-1,1.741974831E0,7.412964344E0
1.470054522E1,7.106683254E-1,1.007378340E0,8.444271088E0
1.471054522E1,7.345965505E-1,4.307080805E-1,9.647860527E0
1.472054522E1,7.657032609E-1,-8.374879509E-2,1.081077290E1
1.473054522E1,5.694918036E-1,-4.737788737E-1,1.186840057E1
1.474054522E1,-7.417750359E-1,-5.000999570E-1,1.277049446E1
1.475054522E1,-1.395015597E0,-3.421736360E-1,1.244985580E1
1.476054522E1,-1.682154298E0,-2.775674164E-1,1.177508068E1
1.477054522E1,-1.557727575E0,-2.057827413E-1,1.093041420E1
1.478054522E1,-1.155733347E0,1.196411345E-2,1.020778179E1
1.479054522E1,-7.369893789E-1,3.086741269E-1,9.561718941E0
1.480054522E1,-7.369893789E-1,3.086741269E-1,9.561718941E0
1.481054522E1,-7.369893789E-1,3.086741269E-1,9.561718941E0
1.482054522E1,-7.369893789E-1,3.086741269E-1,9.561718941E0
1.483054522E1,-7.369893789E-1,3.086741269E-1,9.561718941E0
1.484054522E1,4.426721931E-1,1.361516118E0,8.726624489E0
1.485054522E1,3.302095234E-1,1.191625714E0,8.812766075E0
1.486054522E1,2.416750938E-1,1.107876897E0,9.064012527E0
1.487054522E1,1.627119333E-1,1.060020447E0,9.389435768E0
1.488054522E1,1.627119333E-1,1.060020447E0,9.389435768E0
1.489054522E1,-3.996013701E-1,1.098305583E0,9.578469276E0
1.490054522E1,-5.575276613E-1,1.100698471E0,9.413364410E0
1.491054522E1,-6.556333899E-1,1.122233868E0,9.279366493E0
1.492054522E1,-6.771687865E-1,1.148554921E0,9.190832138E0
1.493054522E1,-5.958128572E-1,1.134197950E0,9.183652878E0
1.494054522E1,-4.953143001E-1,1.103091240E0,9.226723671E0
1.495054522E1,-5.120640397E-1,1.141376376E0,9.657432556E0
1.496054522E1,-5.120640397E-1,1.141376376E0,9.657432556E0
1.497054522E1,-7.465606928E-1,9.236295223E-1,1.007617569E1
1.498054522E1,-9.092726111E-1,7.680960894E-1,9.994820595E0
1.499054522E1,-1.014556766E0,5.910272002E-1,9.820143700E0
1.500054522E1,-1.129412293E0,4.642075896E-1,9.683753014E0
1.501054522E1,-1.275374413E0,4.043870270E-1,9.466006279E0
1.502054522E1,-1.500299811E0,3.996013701E-1,9.035298347E0
1.503054522E1,-1.550549030E0,5.072783828E-1,8.872586250E0
1.504054522E1,-1.526620865E0,6.412764788E-1,8.616554260E0
1.505054522E1,-1.445264935E0,7.680960894E-1,8.396414757E0
1.506054522E1,-1.296909928E0,8.255237937E-1,8.319844246E0
1.507054522E1,-1.076770186E0,7.896314859E-1,8.415556908E0
1.508054522E1,-9.284151793E-1,7.417750359E-1,8.573483467E0
1.509054522E1,-1.143769264E0,6.795616150E-1,9.092725754E0
1.510054522E1,-1.347159147E0,5.838487148E-1,9.394221306E0
1.511054522E1,-1.433300734E0,4.091726840E-1,9.719645500E0
1.512054522E1,-1.450050473E0,2.057827413E-1,1.002831936E1
1.513054522E1,-1.359123230E0,5.503492057E-2,1.028913784E1
1.514054522E1,-1.234696507E0,-7.657032460E-2,1.057149029E1
1.515054522E1,-1.172483087E0,-1.818545163E-1,1.089930725E1
1.516054522E1,-1.213161111E0,-3.661018610E-1,1.129412270E1
1.517054522E1,-1.191625714E0,-5.120640397E-1,1.140419292E1
1.518054522E1,-1.222732425E0,-6.293123364E-1,1.145204926E1
1.519054522E1,-1.349551916E0,-6.460621357E-1,1.149033451E1
1.520054522E1,-1.517049551E0,-6.197410822E-1,1.142333508E1
1.521054522E1,-1.624726534E0,-6.029912829E-1,1.106441212E1
1.522054522E1,-1.698904037E0,-5.551348329E-1,1.050688457E1
1.523054522E1,-1.631905079E0,-2.129612118E-1,9.209974289E0
1.524054522E1,-1.447657704E0,-2.392822644E-3,8.489734650E0
1.525054522E1,-1.272981644E0,2.967100143E-1,7.826922894E0
1.526054522E1,-1.036092162E0,6.101697683E-1,7.334001541E0
1.527054522E1,-6.580262184E-1,8.638089895E-1,7.161718369E0
1.528054522E1,-6.580262184E-1,8.638089895E-1,7.161718369E0
1.529054522E1,6.939185411E-2,9.643075466E-1,8.221738815E0
1.530054522E1,6.939185411E-2,9.643075466E-1,8.221738815E0
1.531054522E1,6.939185411E-2,9.643075466E-1,8.221738815E0
1.532054522E1,6.939185411E-2,9.643075466E-1,8.221738815E0
1.533054522E1,6.939185411E-2,9.643075466E-1,8.221738815E0
1.534054522E1,-2.512463808E0,-7.800601721E-1,1.078205872E1
1.535054522E1,-3.048455954E0,-6.532405615E-1,1.051645565E1
1.536054522E1,-3.225524902E0,-3.876372576E-1,1.018385315E1
1.537054522E1,-3.225524902E0,-3.876372576E-1,1.018385315E1
1.538054522E1,-3.225524902E0,-3.876372576E-1,1.018385315E1
1.539054522E1,-1.665404558E0,8.374879360E-1,8.128418922E0
1.540054522E1,-1.306481123E0,8.422735929E-1,9.119047165E0
1.541054522E1,-1.000199914E0,4.857429862E-1,1.088255692E1
1.542054522E1,-9.810572863E-1,1.076770201E-1,1.240917778E1
1.543054522E1,-9.810572863E-1,1.076770201E-1,1.240917778E1
1.544054522E1,-9.810572863E-1,1.076770201E-1,1.240917778E1
1.545054522E1,-2.533999205E0,-1.674975902E-1,1.316530991E1
1.546054522E1,-2.411965132E0,-9.332008660E-2,1.233978653E1
1.547054522E1,-1.998006940E0,-1.196411345E-2,1.134437180E1
1.548054522E1,-1.998006940E0,-1.196411345E-2,1.134437180E1
1.549054522E1,-4.570291340E-1,1.196411327E-1,9.779465675E0
1.550054522E1,-4.570291340E-1,1.196411327E-1,9.779465675E0
1.551054522E1,-4.570291340E-1,1.196411327E-1,9.779465675E0
1.552054522E1,7.154539824E-1,1.378265858E0,7.357929707E0
1.553054522E1,8.805587292E-1,1.311266780E0,6.991827965E0
1.554054522E1,9.523434043E-1,1.196411371E0,6.771687984E0
1.555054522E1,9.595218897E-1,1.115055323E0,6.936792850E0
1.556054522E1,9.523434043E-1,1.031306505E0,7.396214962E0
1.557054522E1,8.039883971E-1,8.590233326E-1,8.427521706E0
1.558054522E1,7.657032609E-1,7.274180651E-1,8.973084450E0
1.559054522E1,7.130611539E-1,5.766702294E-1,9.415757179E0
1.560054522E1,6.963114142E-1,4.522434771E-1,9.784252167E0
1.561054522E1,7.968099117E-1,2.775674164E-1,1.004028416E1
1.562054522E1,8.470591903E-1,1.076770201E-1,1.032502937E1
1.563054522E1,8.973084688E-1,-5.264209956E-2,1.054995537E1
1.564054522E1,8.398807645E-1,-2.799602449E-1,1.092802143E1
1.565054522E1,8.231309652E-1,-4.235295951E-1,1.111466122E1
1.566054522E1,8.422735929E-1,-6.269195080E-1,1.112901783E1
1.567054522E1,8.494520187E-1,-8.015955687E-1,1.098066330E1
1.568054522E1,7.513462901E-1,-8.925228715E-1,1.082991505E1
1.569054522E1,5.072783828E-1,-8.709874153E-1,1.053559780E1
1.570054522E1,2.105683982E-1,-7.393822074E-1,1.011206818E1
1.571054522E1,-4.785645381E-2,-3.828516304E-1,9.274580956E0
1.572054522E1,-8.374879509E-2,-1.196411327E-1,8.836693764E0
1.573054522E1,-1.435693540E-2,1.220339537E-1,8.377271652E0
1.574054522E1,1.603191197E-1,2.919243574E-1,7.925028801E0
1.575054522E1,1.603191197E-1,2.919243574E-1,7.925028801E0
1.576054522E1,5.431707501E-1,6.508477330E-1,7.233502865E0
1.577054522E1,5.910272002E-1,9.164510965E-1,6.982256413E0
1.578054522E1,5.910272002E-1,9.164510965E-1,6.982256413E0
1.579054522E1,5.910272002E-1,9.164510965E-1,6.982256413E0
1.580054522E1,5.910272002E-1,9.164510965E-1,6.982256413E0
1.581054522E1,5.910272002E-1,9.164510965E-1,6.982256413E0
1.582054522E1,4.139583111E-1,1.198804140E0,7.491927624E0
1.583054522E1,2.991028428E-1,1.165304661E0,8.087740898E0
1.584054522E1,2.153540403E-1,1.117448211E0,8.733802795E0
1.585054522E1,2.153540403E-1,1.117448211E0,8.733802795E0
1.586054522E1,2.153540403E-1,1.117448211E0,8.733802795E0
1.587054522E1,-3.708875179E-1,9.906286001E-1,1.023888779E1
1.588054522E1,-5.742774606E-1,1.002592683E0,1.038963604E1
1.589054522E1,-5.623133183E-1,9.643075466E-1,1.035852909E1
1.590054522E1,-4.713860750E-1,9.667003751E-1,1.020060253E1
1.591054522E1,-3.828516304E-1,1.014556766E0,1.010488987E1
1.592054522E1,-3.828516304E-1,1.014556766E0,1.010488987E1
1.593054522E1,3.038884699E-1,5.982056856E-1,1.103091240E1
1.594054522E1,5.072783828E-1,3.972085714E-1,1.194497108E1
1.595054522E1,5.024927258E-1,1.746760458E-1,1.268913841E1
1.596054522E1,2.536391914E-1,1.674975827E-2,1.335195065E1
1.597054522E1,-2.201396823E-1,-3.110669367E-2,1.383290768E1
1.598054522E1,-7.896314859E-1,1.435693540E-2,1.380419350E1
1.599054522E1,-7.896314859E-1,1.435693540E-2,1.380419350E1
1.600054522E1,-1.447657704E0,2.273181528E-1,1.190190029E1
1.601054522E1,-1.282552958E0,4.546363056E-1,1.110748291E1
1.602054522E1,-8.973084688E-1,7.034898400E-1,1.037527943E1
1.603054522E1,-4.689932466E-1,9.834501147E-1,9.635896683E0
1.604054522E1,-1.244267747E-1,1.337587833E0,9.004191399E0
1.605054522E1,2.105683982E-1,1.581655741E0,8.714659691E0
1.606054522E1,7.561319470E-1,1.402194023E0,8.920442581E0
1.607054522E1,7.728816867E-1,1.081555843E0,9.157332420E0
1.608054522E1,5.694918036E-1,8.422735929E-1,9.394221306E0
1.609054522E1,1.627119333E-1,6.197410822E-1,9.652647018E0
1.610054522E1,-3.684946895E-1,4.426721931E-1,9.556933403E0
1.611054522E1,-8.422735929E-1,2.512463629E-1,9.253045082E0
1.612054522E1,-1.253839016E0,1.363908947E-1,8.968298912E0
1.613054522E1,-1.825723648E0,2.871387303E-1,8.231309891E0
1.614054522E1,-1.825723648E0,2.871387303E-1,8.231309891E0
1.615054522E1,-1.663011789E0,5.288137794E-1,7.798209190E0
1.616054522E1,-1.414158225E0,6.628118753E-1,7.846065521E0
1.617054522E1,-1.093519926E0,7.824530005E-1,8.087740898E0
1.618054522E1,-7.968099117E-1,7.489534616E-1,8.499305725E0
1.619054522E1,-6.747759581E-1,6.556333899E-1,8.982656479E0
1.620054522E1,-9.786644578E-1,2.775674164E-1,9.487542152E0
1.621054522E1,-1.177268744E0,9.092725813E-2,9.511469841E0
1.622054522E1,-1.239482164E0,-1.196411327E-1,9.667003632E0
1.623054522E1,-1.261017561E0,-3.206382394E-1,9.865608215E0
1.624054522E1,-1.294517040E0,-4.307080805E-1,1.004028416E1
1.625054522E1,-1.316052437E0,-5.072783828E-1,1.022931671E1
1.626054522E1,-1.347159147E0,-5.479564071E-1,1.049013424E1
1.627054522E1,-1.612762451E0,-4.953143001E-1,1.061456108E1
1.628054522E1,-1.749153376E0,-3.924229145E-1,1.028913784E1
1.629054522E1,-1.763510346E0,-2.703889608E-1,9.884750366E0
1.630054522E1,-1.631905079E0,-1.172483116E-1,9.439684868E0
1.631054522E1,-1.514656782E0,9.810572863E-2,8.906085968E0
1.632054522E1,-1.395015597E0,3.517449200E-1,8.456234932E0
1.633054522E1,-1.184447169E0,5.551348329E-1,8.240880966E0
1.634054522E1,-7.704889178E-1,8.518448472E-1,7.977670670E0
1.635054522E1,-7.178468108E-1,9.690931439E-1,8.185846329E0
1.636054522E1,-6.675975323E-1,9.260223508E-1,8.444271088E0
1.637054522E1,-5.479564071E-1,7.082754970E-1,8.932407379E0
1.638054522E1,-5.479564071E-1,7.082754970E-1,8.932407379E0
1.639054522E1,-5.479564071E-1,7.082754970E-1,8.932407379E0
1.640054522E1,-1.012163997E0,9.810572863E-2,1.106680489E1
1.641054522E1,-1.012163997E0,9.810572863E-2,1.106680489E1
1.642054522E1,-1.012163997E0,9.810572863E-2,1.106680489E1
1.643054522E1,-1.012163997E0,9.810572863E-2,1.106680489E1
1.644054522E1,-1.012163997E0,9.810572863E-2,1.106680489E1
1.645054522E1,-2.110469580E0,1.866401732E-1,9.722038269E0
1.646054522E1,-1.718046665E0,4.163511395E-1,9.358329773E0
1.647054522E1,-1.263410330E0,5.934200287E-1,9.293723106E0
1.648054522E1,-1.263410330E0,5.934200287E-1,9.293723106E0
1.649054522E1,-1.263410330E0,5.934200287E-1,9.293723106E0
1.650054522E1,-1.263410330E0,5.934200287E-1,9.293723106E0
1.651054522E1,-1.263410330E0,5.934200287E-1,9.293723106E0
1.652054522E1,-1.179661512E0,7.752745152E-1,9.731609344E0
1.653054522E1,-1.162911773E0,7.609176040E-1,9.812965393E0
1.654054522E1,-1.036092162E0,7.944171429E-1,9.817750931E0
1.655054522E1,-1.036092162E0,7.944171429E-1,9.817750931E0
1.656054522E1,-1.036092162E0,7.944171429E-1,9.817750931E0
1.657054522E1,-3.852444589E-1,1.268195987E0,9.810572624E0
1.658054522E1,-2.871387303E-1,1.328016520E0,9.769894600E0
1.659054522E1,-2.703889608E-1,1.356730461E0,9.724431038E0
1.660054522E1,-2.536391914E-1,1.313659668E0,9.808179855E0
1.661054522E1,-2.775674164E-1,1.280160069E0,9.954142570E0
1.662054522E1,-2.775674164E-1,1.280160069E0,9.954142570E0
1.663054522E1,-1.579262912E-1,1.036092162E0,1.050688457E1
1.664054522E1,-1.914258152E-1,9.810572863E-1,1.056670475E1
1.664054522E1,-1.914258152E-1,9.810572863E-1,1.056670475E1
1.666054522E1,-1.914258152E-1,9.810572863E-1,1.056670475E1
1.667054522E1,-1.220339537E-1,5.958128572E-1,1.115533924E1
1.668054522E1,-1.794617027E-1,4.307080805E-1,1.138504982E1
1.669054522E1,-6.245267391E-1,2.440679073E-1,1.174158096E1
1.670054522E1,-9.164510965E-1,2.273181528E-1,1.165543938E1
1.671054522E1,-1.134197950E0,2.440679073E-1,1.145683479E1
1.672054522E1,-1.182054400E0,2.799602449E-1,1.110748291E1
1.673054522E1,-1.050449133E0,3.134597540E-1,1.055713367E1
1.674054522E1,-7.920243144E-1,3.684946895E-1,1.007139015E1
1.675054522E1,-4.666004181E-1,4.642075896E-1,9.707681656E0
1.676054522E1,1.004985496E-1,8.374879360E-1,9.018548965E0
1.677054522E1,3.397808075E-1,9.451649189E-1,8.638090134E0
1.678054522E1,5.766702294E-1,9.762716293E-1,8.310273170E0
1.679054522E1,7.274180651E-1,9.930213690E-1,8.023134232E0
1.680054522E1,7.561319470E-1,1.000199914E0,7.795815945E0
1.681054522E1,7.130611539E-1,1.052842021E0,7.647460938E0
1.682054522E1,5.694918036E-1,1.105484009E0,7.546962738E0
1.683054522E1,1.244267747E-1,1.237089276E0,7.269395351E0
1.684054522E1,-2.392822690E-2,1.284945726E0,7.077969551E0
1.685054522E1,-9.092725813E-2,1.368694544E0,6.920042992E0
1.686054522E1,-3.589234129E-2,1.471585870E0,6.692724705E0
1.687054522E1,3.349951655E-2,1.564906001E0,6.577869415E0
1.688054522E1,1.172483116E-1,1.691725612E0,6.668796539E0
1.689054522E1,2.847459018E-1,1.710868239E0,7.121040344E0
1.690054522E1,6.628118753E-1,1.165304661E0,8.633303642E0
1.691054522E1,6.628118753E-1,1.165304661E0,8.633303642E0
1.692054522E1,6.628118753E-1,1.165304661E0,8.633303642E0
1.693054522E1,6.628118753E-1,1.165304661E0,8.633303642E0
1.694054522E1,-1.842473447E-1,-3.996013701E-1,1.194257736E1
1.695054522E1,-9.164510965E-1,-4.307080805E-1,1.208375454E1
1.696054522E1,-1.615155339E0,-3.230310678E-1,1.175593758E1
1.697054522E1,-1.615155339E0,-3.230310678E-1,1.175593758E1
1.698054522E1,-1.615155339E0,-3.230310678E-1,1.175593758E1
1.699054522E1,-1.615155339E0,-3.230310678E-1,1.175593758E1
1.700054522E1,-1.105484009E0,9.738788009E-1,8.341380119E0
1.701054522E1,-4.618147612E-1,1.435693622E0,7.697710514E0
1.702054522E1,3.349951655E-2,2.038684845E0,7.049255371E0
1.703054522E1,4.043870270E-1,2.512463808E0,6.764509678E0
1.704054522E1,4.043870270E-1,2.512463808E0,6.764509678E0
1.705054522E1,4.043870270E-1,2.512463808E0,6.764509678E0
1.706054522E1,4.043870270E-1,2.512463808E0,6.764509678E0
1.707054522E1,3.062812984E-1,1.277767301E0,9.939785004E0
1.708054522E1,-9.810572863E-2,1.127019525E0,1.039442158E1
1.709054522E1,-4.115654826E-1,9.858429432E-1,1.056431198E1
1.710054522E1,-8.422735929E-1,1.062413216E0,1.055234814E1
1.711054522E1,-8.422735929E-1,1.062413216E0,1.055234814E1
1.712054522E1,-1.179661512E0,1.076770186E0,1.039442158E1
1.713054522E1,-1.019342422E0,1.048056364E0,1.033938694E1
1.714054522E1,-8.757730722E-1,9.858429432E-1,1.040638542E1
1.715054522E1,-8.159525394E-1,8.614161611E-1,1.057388306E1
1.716054522E1,-8.638089895E-1,7.417750359E-1,1.066720295E1
1.717054522E1,-9.954141974E-1,6.484549642E-1,1.068395329E1
1.718054522E1,-1.098305583E0,4.881358147E-1,1.041835022E1
1.719054522E1,-1.098305583E0,4.881358147E-1,1.041835022E1
1.720054522E1,-9.714859724E-1,3.014956415E-1,1.021735287E1
1.721054522E1,-8.350951076E-1,2.249253243E-1,1.032742214E1
1.722054522E1,-7.298108935E-1,1.435693651E-1,1.052363396E1
1.723054522E1,-6.556333899E-1,3.589234129E-2,1.077966595E1
1.724054522E1,-5.599204898E-1,-8.853443712E-2,1.102373409E1
1.725054522E1,-5.623133183E-1,-2.751746178E-1,1.127498055E1
1.726054522E1,-7.393822074E-1,-2.775674164E-1,1.125344467E1
1.727054522E1,-1.000199914E0,-2.823530734E-1,1.104048347E1
1.728054522E1,-1.136590719E0,-3.254238665E-1,1.062413216E1
1.729054522E1,-1.184447169E0,-3.302095234E-1,1.002353382E1
1.730054522E1,-1.232303619E0,-1.770688742E-1,9.480362892E0
1.731054522E1,-1.162911773E0,6.699903309E-2,9.040083885E0
1.732054522E1,-6.867401004E-1,5.479564071E-1,8.102097511E0
1.733054522E1,-4.283152521E-1,7.848458290E-1,7.666603565E0
1.734054522E1,-2.033899277E-1,9.643075466E-1,7.432106972E0
1.735054522E1,-5.742774159E-2,1.100698471E0,7.271788120E0
1.736054522E1,0.000000000E0,1.191625714E0,7.405786037E0
1.737054522E1,-7.417750359E-2,1.256231904E0,7.578069210E0
1.738054522E1,-2.584248483E-1,1.304088354E0,7.621140003E0
1.739054522E1,-8.638089895E-1,1.457229018E0,7.592426300E0
1.740054522E1,-1.043270707E0,1.447657704E0,7.637889862E0
1.741054522E1,-1.131805062E0,1.361516118E0,7.838887215E0
1.742054522E1,-1.179661512E0,1.165304661E0,8.240880966E0
1.743054522E1,-1.179661512E0,1.165304661E0,8.240880966E0
1.744054522E1,-1.294517040E0,4.666004181E-1,9.399007797E0
1.745054522E1,-1.380658627E0,1.316052526E-1,1.016710377E1
1.746054522E1,-1.380658627E0,1.316052526E-1,1.016710377E1
1.747054522E1,-1.380658627E0,1.316052526E-1,1.016710377E1
1.748054522E1,-1.380658627E0,1.316052526E-1,1.016710377E1
1.749054522E1,-1.380658627E0,1.316052526E-1,1.016710377E1
1.750054522E1,-2.519642353E0,-9.188438654E-1,1.247378445E1
1.751054522E1,-2.682354212E0,-8.805587292E-1,1.229671574E1
1.752054522E1,-2.715853691E0,-7.872386575E-1,1.197846985E1
1.753054522E1,-2.715853691E0,-7.872386575E-1,1.197846985E1
1.754054522E1,-2.715853691E0,-7.872386575E-1,1.197846985E1
1.755054522E1,-2.715853691E0,-7.872386575E-1,1.197846985E1
1.756054522E1,-2.715853691E0,-7.872386575E-1,1.197846985E1
1.757054522E1,-9.547362328E-1,7.226324677E-1,8.618947029E0
1.758054522E1,-7.058826685E-1,9.571290612E-1,8.458627701E0
1.759054522E1,-4.953143001E-1,1.060020447E0,8.432307243E0
1.760054522E1,-4.953143001E-1,1.060020447E0,8.432307243E0
1.761054522E1,-4.953143001E-1,1.060020447E0,8.432307243E0
1.762054522E1,-5.910272002E-1,6.675975323E-1,9.801001549E0
1.763054522E1,-8.757730722E-1,6.005984545E-1,1.015513897E1
1.764054522E1,-1.127019525E0,5.359922647E-1,1.037049294E1
1.765054522E1,-1.263410330E0,4.642075896E-1,1.041117096E1
1.766054522E1,-1.301695466E0,4.283152521E-1,1.033460140E1
1.767054522E1,-1.301695466E0,4.283152521E-1,1.033460140E1
1.768054522E1,-8.255237937E-1,6.843472719E-1,1.019581699E1
1.769054522E1,-5.982056856E-1,7.537391186E-1,1.010010433E1
1.770054522E1,-4.402793646E-1,7.944171429E-1,1.003310490E1
1.771054522E1,-4.426721931E-1,8.207381964E-1,9.949356079E0
1.772054522E1,-5.575276613E-1,8.231309652E-1,9.887143135E0
1.773054522E1,-6.556333899E-1,7.322037220E-1,9.815358162E0
1.774054522E1,-6.556333899E-1,7.322037220E-1,9.815358162E0
1.775054522E1,-6.795616150E-1,3.589234054E-1,1.012642574E1
1.776054522E1,-6.412764788E-1,2.081755698E-1,1.015753174E1
1.777054522E1,-6.436693072E-1,1.555334777E-1,1.016949654E1
1.778054522E1,-7.082754970E-1,1.483550072E-1,1.008814049E1
1.779054522E1,-6.987041831E-1,1.507478207E-1,9.829715729E0
1.780054522E1,-6.867401004E-1,2.129612118E-1,9.355937004E0
1.781054522E1,-4.426721931E-1,4.354937077E-1,8.623732567E0
1.782054522E1,-1.938186288E-1,4.713860750E-1,8.396414757E0
1.783054522E1,4.785645381E-2,4.642075896E-1,8.315058708E0
1.784054522E1,2.225325108E-1,4.067798555E-1,8.441878319E0
1.785054522E1,2.895315289E-1,2.656033039E-1,8.805587769E0
1.786054522E1,2.344966233E-1,1.028913707E-1,9.272188187E0
1.787054522E1,5.742774159E-2,-2.153540403E-2,9.643074989E0
1.788054522E1,-1.555334777E-1,-3.876372576E-1,1.014078236E1
1.789054522E1,-2.297109663E-1,-5.312066078E-1,1.017188931E1
1.790054522E1,-3.445664644E-1,-5.886343718E-1,1.016710377E1
1.791054522E1,-6.053841114E-1,-5.168496966E-1,1.005942631E1
1.792054522E1,-8.829515576E-1,-3.230310678E-1,9.724431038E0
1.793054522E1,-1.048056364E0,-7.657032460E-2,9.231510162E0
1.794054522E1,-1.043270707E0,2.177468538E-1,8.764909744E0
1.795054522E1,-7.609176040E-1,8.446664214E-1,7.874779224E0
1.796054522E1,-4.977070987E-1,1.122233868E0,7.745566845E0
1.797054522E1,-1.483550072E-1,1.318445325E0,7.905886173E0
1.798054522E1,8.853443712E-2,1.409372568E0,8.269595146E0
1.799054522E1,1.292124242E-1,1.462014675E0,8.750552177E0
1.800054522E1,1.292124242E-1,1.462014675E0,8.750552177E0
1.801054522E1,-9.810572863E-2,1.342373490E0,9.262616158E0
1.802054522E1,-9.810572863E-2,1.342373490E0,9.262616158E0
1.803054522E1,-9.810572863E-2,1.342373490E0,9.262616158E0
1.804054522E1,-9.810572863E-2,1.342373490E0,9.262616158E0
1.805054522E1,-2.201396823E-1,1.402194023E0,9.710074425E0
1.806054522E1,-1.148554832E-1,1.371087432E0,9.896714211E0
1.807054522E1,0.000000000E0,1.284945726E0,1.012164021E1
1.808054522E1,1.603191197E-1,1.189232826E0,1.039442158E1
1.809054522E1,1.603191197E-1,1.189232826E0,1.039442158E1
1.810054522E1,1.603191197E-1,1.189232826E0,1.039442158E1
1.811054522E1,3.038884699E-1,4.881358147E-1,1.212203979E1
1.812054522E1,1.076770201E-1,3.732803464E-1,1.259581852E1
1.813054522E1,-1.052841991E-1,2.799602449E-1,1.293799210E1
1.814054522E1,-4.043870270E-1,3.349951804E-1,1.301934814E1
1.815054522E1,-5.934200287E-1,3.804588020E-1,1.286142159E1
1.816054522E1,-5.934200287E-1,3.804588020E-1,1.286142159E1
1.817054522E1,-2.105683982E-1,2.967100143E-1,1.151426220E1
1.818054522E1,-1.339980662E-1,5.288137794E-1,1.091605663E1
1.819054522E1,-1.196411345E-2,7.226324677E-1,1.026281643E1
1.820054522E1,8.135596663E-2,8.542376757E-1,9.669396400E0
1.821054522E1,8.853443712E-2,9.619147182E-1,9.119047165E0
1.822054522E1,6.939185411E-2,1.076770186E0,8.614161491E0
1.823054522E1,3.828516230E-2,1.304088354E0,7.841279984E0
1.824054522E1,5.982056633E-2,1.414158225E0,7.477570534E0
1.825054522E1,1.220339537E-1,1.514656782E0,7.197610378E0
1.826054522E1,1.627119333E-1,1.619940877E0,7.087540627E0
1.827054522E1,1.244267747E-1,1.703689694E0,7.171289444E0
1.828054522E1,-9.571290575E-3,1.739582062E0,7.290930748E0
1.829054522E1,-1.531406492E-1,1.677368641E0,7.429714203E0
1.830054522E1,-1.842473447E-1,1.258624673E0,8.137989998E0
1.831054522E1,-1.483550072E-1,9.068797827E-1,8.779266357E0
1.832054522E1,-2.129612118E-1,5.264210105E-1,9.576076508E0
1.833054522E1,-4.354937077E-1,2.608176768E-1,1.052124119E1
1.834054522E1,-7.872386575E-1,-1.435693540E-2,1.130130100E1
1.835054522E1,-1.363908887E0,-1.292124242E-1,1.175115204E1
1.836054522E1,-2.031506538E0,4.785645287E-3,1.159561825E1
1.837054522E1,-2.031506538E0,4.785645287E-3,1.159561825E1
1.838054522E1,-2.459821701E0,5.766702294E-1,9.540184021E0
1.839054522E1,-2.459821701E0,5.766702294E-1,9.540184021E0
1.840054522E1,-1.311266780E0,1.344766378E0,7.831708431E0
1.841054522E1,-8.279166222E-1,1.861616015E0,6.943971157E0
1.842054522E1,-3.445664644E-1,2.201396942E0,6.740581512E0
1.843054522E1,8.135596663E-2,2.132004976E0,7.192824841E0
1.844054522E1,8.135596663E-2,2.132004976E0,7.192824841E0
1.845054522E1,8.135596663E-2,2.132004976E0,7.192824841E0
1.846054522E1,8.135596663E-2,2.132004976E0,7.192824841E0
1.847054522E1,-3.469592929E-1,2.536391914E-1,1.061934662E1
1.848054522E1,-8.063812256E-1,1.268195957E-1,1.091844940E1
1.849054522E1,-1.320838094E0,6.460621208E-2,1.096630573E1
1.850054522E1,-1.320838094E0,6.460621208E-2,1.096630573E1
1.851054522E1,-1.320838094E0,6.460621208E-2,1.096630573E1
1.852054522E1,-1.320838094E0,6.460621208E-2,1.096630573E1
1.853054522E1,-1.067198873E0,3.086741269E-1,9.501898766E0
1.854054522E1,-1.067198873E0,3.086741269E-1,9.501898766E0
1.855054522E1,-5.503492355E-1,8.374879360E-1,8.623732567E0
1.856054522E1,-4.426721931E-1,1.067198873E0,8.274380684E0
1.857054522E1,-4.426721931E-1,1.067198873E0,8.274380684E0
1.858054522E1,-7.298108935E-1,1.342373490E0,7.470392227E0
1.859054522E1,-9.068797827E-1,1.349551916E0,7.255038261E0
1.860054522E1,-1.100698471E0,1.354337573E0,7.276573658E0
1.861054522E1,-1.339980721E0,1.373480201E0,7.357929707E0
1.862054522E1,-1.627119422E0,1.411765337E0,7.369893551E0
1.863054522E1,-1.954936147E0,1.485942841E0,7.345965385E0
1.864054522E1,-2.325823545E0,1.564906001E0,7.125825882E0
1.865054522E1,-2.263610125E0,1.610369682E0,7.264609337E0
1.866054522E1,-1.909472466E0,1.495514154E0,7.613961697E0
1.867054522E1,-1.519442320E0,1.277767301E0,8.178668022E0
1.868054522E1,-1.378265858E0,1.115055323E0,9.032905579E0
1.869054522E1,-1.548156261E0,9.667003751E-1,1.006660461E1
1.870054522E1,-1.859223247E0,7.465606928E-1,1.105723381E1
1.871054522E1,-2.756531715E0,3.254238665E-1,1.199282742E1
1.872054522E1,-3.017349243E0,1.052841991E-1,1.205743313E1
1.873054522E1,-2.945564747E0,-1.890329868E-1,1.186600780E1
1.874054522E1,-2.723032236E0,-3.852444589E-1,1.163390350E1
1.875054522E1,-2.404786825E0,-4.905286431E-1,1.161715412E1
1.876054522E1,-2.105684042E0,-4.953143001E-1,1.177508068E1
1.877054522E1,-1.895115495E0,-3.661018610E-1,1.206461143E1
1.878054522E1,-1.895115495E0,-3.661018610E-1,1.206461143E1
1.879054522E1,-1.895115495E0,-3.661018610E-1,1.206461143E1
1.880054522E1,-1.895115495E0,-3.661018610E-1,1.206461143E1
1.881054522E1,-1.895115495E0,-3.661018610E-1,1.206461143E1
1.882054522E1,-1.079162955E0,3.828516304E-1,1.139462185E1
1.883054522E1,-9.116654396E-1,5.527420044E-1,1.095194912E1
1.884054522E1,-7.393822074E-1,6.843472719E-1,1.057388306E1
1.885054522E1,-7.393822074E-1,6.843472719E-1,1.057388306E1
1.886054522E1,-7.393822074E-1,6.843472719E-1,1.057388306E1
1.887054522E1,-7.393822074E-1,6.843472719E-1,1.057388306E1
1.888054522E1,2.440679073E-1,4.953143001E-1,9.841679573E0
1.889054522E1,1.842473447E-1,4.187439680E-1,9.801001549E0
1.890054522E1,6.939185411E-2,3.900300860E-1,9.798608780E0
1.891054522E1,-1.100698411E-1,3.445664644E-1,9.750752449E0
1.892054522E1,-1.100698411E-1,3.445664644E-1,9.750752449E0
1.893054522E1,-1.100698411E-1,3.445664644E-1,9.750752449E0
1.894054522E1,-1.100698411E-1,3.445664644E-1,9.750752449E0
1.895054522E1,-3.086741269E-1,7.082754970E-1,7.865208149E0
1.896054522E1,-1.651047617E-1,8.566305041E-1,7.410571575E0
1.897054522E1,-3.110669367E-2,9.762716293E-1,7.238288403E0
1.898054522E1,1.244267747E-1,1.026520967E0,7.295716286E0
1.899054522E1,1.244267747E-1,1.026520967E0,7.295716286E0
1.900054522E1,1.244267747E-1,1.026520967E0,7.295716286E0
1.901054522E1,-3.876372576E-1,6.484549642E-1,8.516056061E0
1.902054522E1,-6.580262184E-1,5.096712112E-1,8.858229637E0
1.903054522E1,-8.877372146E-1,4.666004181E-1,9.052047729E0
1.904054522E1,-1.064806104E0,5.096712112E-1,9.013762474E0
1.905054522E1,-1.040877819E0,5.575276613E-1,8.891729355E0
1.906054522E1,-1.040877819E0,5.575276613E-1,8.891729355E0
1.907054522E1,1.507478207E-1,1.316052526E-1,8.889336586E0
1.908054522E1,5.599204898E-1,3.589234129E-2,9.480362892E0
1.909054522E1,8.087740541E-1,-1.028913707E-1,1.028195858E1
1.910054522E1,7.800601721E-1,-2.201396823E-1,1.121994495E1
1.911054522E1,4.235295951E-1,-2.608176768E-1,1.193300629E1
1.912054522E1,-1.459621787E-1,-3.110669553E-1,1.233500099E1
1.913054522E1,-9.284151793E-1,-3.852444589E-1,1.234935760E1
1.914054522E1,-1.007378340E0,-3.565305769E-1,1.216032505E1
1.915054522E1,-8.805587292E-1,-2.847459018E-1,1.190907860E1
1.916054522E1,-7.130611539E-1,-6.221338734E-2,1.167697430E1
1.917054522E1,-5.479564071E-1,3.158525825E-1,1.130608654E1
1.918054522E1,-4.043870270E-1,7.226324677E-1,1.085384369E1
1.919054522E1,-3.900300860E-1,1.067198873E0,1.026520920E1
1.920054522E1,-4.713860750E-1,1.519442320E0,8.659625053E0
1.921054522E1,-6.412764788E-1,1.768295884E0,7.795815945E0
1.922054522E1,-6.412764788E-1,1.768295884E0,7.795815945E0
1.923054522E1,-7.704889178E-1,2.242074728E0,6.161518097E0
1.924054522E1,-5.647061467E-1,2.409572363E0,5.879165173E0
1.925054522E1,-4.235295951E-1,2.505285263E0,6.080162525E0
1.926054522E1,-3.589234054E-1,2.510071039E0,6.527620316E0
1.927054522E1,-7.010970116E-1,2.364108801E0,7.635497093E0
1.928054522E1,-1.110269666E0,2.344966173E0,7.944170952E0
1.929054522E1,-1.339980721E0,2.177468538E0,7.774280548E0
1.930054522E1,-1.406979680E0,2.038684845E0,7.293323517E0
1.931054522E1,-1.430907965E0,1.947757602E0,6.855436802E0
1.932054522E1,-1.440479279E0,1.916650891E0,6.735795975E0
1.933054522E1,-1.380658627E0,1.897508383E0,6.874579430E0
1.934054522E1,-1.380658627E0,1.897508383E0,6.874579430E0
1.935054522E1,-1.380658627E0,1.897508383E0,6.874579430E0
1.936054522E1,-1.380658627E0,1.897508383E0,6.874579430E0
1.937054522E1,-1.380658627E0,1.897508383E0,6.874579430E0
1.938054522E1,3.828516304E-1,-6.532405615E-1,1.459861088E1
1.939054522E1,-1.818545163E-1,-9.619147182E-1,1.523988724E1
1.940054522E1,-9.068797827E-1,-1.182054400E0,1.508196068E1
1.941054522E1,-9.068797827E-1,-1.182054400E0,1.508196068E1
1.942054522E1,-9.068797827E-1,-1.182054400E0,1.508196068E1
1.943054522E1,-9.068797827E-1,-1.182054400E0,1.508196068E1
1.944054522E1,-9.068797827E-1,-1.182054400E0,1.508196068E1
1.945054522E1,-1.174875975E0,3.637090325E-1,9.722038269E0
1.946054522E1,-3.708875179E-1,7.752745152E-1,8.824729919E0
1.947054522E1,1.220339537E-1,1.416550994E0,8.152346611E0
1.948054522E1,1.220339537E-1,1.416550994E0,8.152346611E0
1.949054522E1,1.220339537E-1,1.416550994E0,8.152346611E0
1.950054522E1,3.278166950E-1,1.146162033E0,9.260223389E0
1.951054522E1,-1.387837082E-1,9.284151793E-1,9.410971642E0
1.952054522E1,-6.005984545E-1,8.398807645E-1,9.358329773E0
1.953054522E1,-9.930213690E-1,7.441678643E-1,9.164510727E0
1.954054522E1,-1.268195987E0,7.609176040E-1,8.949156761E0
1.955054522E1,-1.268195987E0,7.609176040E-1,8.949156761E0
1.956054522E1,-1.201196909E0,9.403793216E-1,8.250452042E0
1.957054522E1,-9.308080077E-1,9.619147182E-1,8.128418922E0
1.958054522E1,-6.484549642E-1,9.332008362E-1,8.128418922E0
1.959054522E1,-6.484549642E-1,9.332008362E-1,8.128418922E0
1.960054522E1,-5.886343718E-1,9.044869542E-1,8.441878319E0
1.961054522E1,-7.896314859E-1,8.757730722E-1,8.652446747E0
1.962054522E1,-1.416550994E0,7.633104324E-1,8.504091263E0
1.963054522E1,-1.665404558E0,6.963114142E-1,8.513663292E0
1.964054522E1,-1.823330879E0,7.010970116E-1,8.575876236E0
1.965054522E1,-1.916650891E0,6.963114142E-1,8.678768158E0
1.966054522E1,-1.773081541E0,5.742774606E-1,9.013762474E0
1.967054522E1,-1.447657704E0,3.302095234E-1,9.556933403E0
1.968054522E1,-1.117448211E0,4.307080805E-2,1.004746246E1
1.969054522E1,-7.680960894E-1,-5.551348329E-1,1.116969585E1
1.970054522E1,-7.058826685E-1,-9.020941257E-1,1.164108181E1
1.971054522E1,-8.901300430E-1,-1.129412293E0,1.190907860E1
1.972054522E1,-1.323230863E0,-1.208375454E0,1.202871990E1
1.973054522E1,-1.921436548E0,-1.182054400E0,1.172004509E1
1.974054522E1,-2.342573404E0,-1.170090318E0,1.111466122E1
1.975054522E1,-2.498106956E0,-1.146162033E0,1.040877819E1
1.976054522E1,-2.548356056E0,-4.689932466E-1,9.064012527E0
1.977054522E1,-2.385644197E0,6.460621208E-2,8.504091263E0
1.978054522E1,-2.148754835E0,6.197410822E-1,8.128418922E0
1.979054522E1,-1.873580098E0,1.067198873E0,7.956135273E0
1.980054522E1,-1.584048629E0,1.359123230E0,7.932207108E0
1.981054522E1,-1.328016520E0,1.378265858E0,7.987242222E0
1.982054522E1,-1.158126116E0,1.131805062E0,8.343772888E0
1.983054522E1,-1.158126116E0,1.131805062E0,8.343772888E0
1.984054522E1,-1.158126116E0,1.131805062E0,8.343772888E0
1.985054522E1,-1.158126116E0,1.131805062E0,8.343772888E0
1.986054522E1,-1.158126116E0,1.131805062E0,8.343772888E0
1.987054522E1,-2.258824587E0,0.000000000E0,1.115055370E1
1.988054522E1,-2.344966173E0,7.657032460E-2,1.109312534E1
1.989054522E1,-2.208575249E0,2.081755698E-1,1.096630573E1
1.990054522E1,-2.208575249E0,2.081755698E-1,1.096630573E1
1.991054522E1,-2.208575249E0,2.081755698E-1,1.096630573E1
1.992054522E1,-2.208575249E0,2.081755698E-1,1.096630573E1
1.993054522E1,-4.881358147E-1,4.953143001E-1,9.796216011E0
1.993054522E1,-4.881358147E-1,4.953143001E-1,9.796216011E0
1.995054522E1,-4.378865361E-1,4.139583111E-1,9.037691116E0
1.996054522E1,-4.139583111E-1,3.900300860E-1,8.812766075E0
1.997054522E1,-4.139583111E-1,3.900300860E-1,8.812766075E0
1.998054522E1,-4.139583111E-1,3.900300860E-1,8.812766075E0
1.999054522E1,1.004985496E-1,8.877372146E-1,9.896714211E0
1.999054522E1,1.004985496E-1,8.877372146E-1,9.896714211E0
2.001054522E1,4.115654826E-1,8.829515576E-1,1.015753174E1
2.002054522E1,4.354937077E-1,8.231309652E-1,1.009053326E1
2.003054522E1,4.259224236E-1,7.776673436E-1,1.002353382E1
2.004054522E1,4.259224236E-1,7.776673436E-1,1.002353382E1
2.005054522E1,6.412764788E-1,4.618147612E-1,1.016471100E1
2.006054522E1,6.005984545E-1,3.373879790E-1,1.046142101E1
2.007054522E1,4.929214716E-1,1.124626622E-1,1.090409279E1
2.008054522E1,3.804588020E-1,-1.555334777E-1,1.128215885E1
2.009054522E1,1.938186288E-1,-3.708875179E-1,1.150947666E1
2.010054522E1,-4.067798331E-2,-5.144568682E-1,1.155972576E1
2.011054522E1,-4.929214716E-1,-6.915257573E-1,1.102134132E1
2.012054522E1,-4.929214716E-1,-6.915257573E-1,1.102134132E1
2.013054522E1,-7.034898400E-1,-4.737788737E-1,9.791430473E0
2.014054522E1,-6.939185858E-1,-1.842473447E-1,9.193224907E0
2.015054522E1,-5.742774606E-1,1.076770201E-1,8.611768723E0
2.016054522E1,-4.642075896E-1,3.708875179E-1,7.984848976E0
2.017054522E1,-3.756731451E-1,6.652047038E-1,7.511070251E0
2.018054522E1,-9.810572863E-2,1.208375454E0,6.862615108E0
2.019054522E1,1.507478207E-1,1.368694544E0,6.774080753E0
2.020054522E1,3.397808075E-1,1.488335729E0,6.903293133E0
2.021054522E1,3.924229145E-1,1.552941918E0,7.247859955E0
2.022054522E1,3.924229145E-1,1.478764415E0,7.735995770E0
2.023054522E1,3.158525825E-1,1.277767301E0,8.171489716E0
2.024054522E1,1.674975902E-1,1.026520967E0,8.523234367E0
2.025054522E1,1.674975902E-1,1.026520967E0,8.523234367E0
2.026054522E1,1.674975902E-1,1.026520967E0,8.523234367E0
2.027054522E1,1.674975902E-1,1.026520967E0,8.523234367E0
2.028054522E1,-3.349951655E-2,1.674975902E-1,1.072223854E1
2.029054522E1,-3.349951655E-2,1.674975902E-1,1.072223854E1
2.030054522E1,2.799602449E-1,2.392822690E-2,1.142812061E1
2.031054522E1,4.546363056E-1,2.392822644E-3,1.146162033E1
2.032054522E1,4.546363056E-1,2.392822644E-3,1.146162033E1
2.033054522E1,6.939185411E-2,4.354937077E-1,1.088973618E1
2.034054522E1,-2.464607358E-1,5.886343718E-1,1.071984577E1
2.035054522E1,-5.647061467E-1,6.867401004E-1,1.050927734E1
2.036054522E1,-8.063812256E-1,7.800601721E-1,1.032502937E1
2.037054522E1,-9.020941257E-1,8.662018180E-1,1.015753174E1
2.038054522E1,-9.188438654E-1,9.595218897E-1,1.009292603E1
2.039054522E1,-8.709874153E-1,1.057627559E0,1.038006496E1
2.040054522E1,-8.446664214E-1,9.978070259E-1,1.047817039E1
2.041054522E1,-8.518448472E-1,9.547362328E-1,1.050927734E1
2.042054522E1,-9.116654396E-1,9.643075466E-1,1.053081226E1
2.043054522E1,-9.547362328E-1,1.079162955E0,1.028435135E1
2.044054522E1,-9.858429432E-1,1.287338614E0,9.796216011E0
2.045054522E1,-8.949156404E-1,1.466800332E0,9.159725189E0
2.046054522E1,-4.594219327E-1,1.631905079E0,8.331808090E0
2.047054522E1,-2.584248483E-1,1.655833244E0,8.480163574E0
2.048054522E1,-1.794617027E-1,1.612762451E0,8.855836868E0
2.049054522E1,-2.057827413E-1,1.411765337E0,9.308079720E0
2.050054522E1,-2.536391914E-1,1.112662554E0,9.600004196E0
2.051054522E1,-4.163511395E-1,7.872386575E-1,9.865608215E0
2.052054522E1,-5.910272002E-1,4.402793646E-1,1.032502937E1
2.053054522E1,-1.062413216E0,-8.135596663E-2,1.136351490E1
2.054054522E1,-1.450050473E0,-1.938186288E-1,1.146640587E1
2.055054522E1,-1.751546144E0,-3.062812984E-1,1.106919765E1
2.056054522E1,-1.770688772E0,-4.067798555E-1,1.056670475E1
2.057054522E1,-1.682154298E0,-3.445664644E-1,9.966106415E0
2.058054522E1,-1.536192179E0,-7.178468257E-2,9.291330338E0
2.059054522E1,-1.270588875E0,1.890329868E-1,8.587840080E0
2.060054522E1,-1.270588875E0,1.890329868E-1,8.587840080E0
2.061054522E1,-3.900300860E-1,8.662018180E-1,7.070790768E0
2.062054522E1,-3.038884699E-1,1.071984529E0,6.920042992E0
2.063054522E1,-2.847459018E-1,1.167697430E0,6.903293133E0
2.064054522E1,-2.751746178E-1,1.141376376E0,7.020541668E0
2.065054522E1,-4.235295951E-1,1.067198873E0,7.092326164E0
2.066054522E1,-6.269195080E-1,9.619147182E-1,7.305287361E0
2.067054522E1,-6.269195080E-1,9.619147182E-1,7.305287361E0
2.068054522E1,-6.269195080E-1,9.619147182E-1,7.305287361E0
2.069054522E1,-6.269195080E-1,9.619147182E-1,7.305287361E0
2.070054522E1,-6.269195080E-1,9.619147182E-1,7.305287361E0
