"Time (s)","Gyroscope x (rad/s)","Gyroscope y (rad/s)","Gyroscope z (rad/s)"
1.414246100E-2,-4.211912751E-1,-4.877755344E-1,2.336557768E-2
2.288891900E-2,-2.990183234E-1,-1.621845961E-1,1.400407553E-1
3.288891900E-2,-1.896735132E-1,1.609628648E-1,2.738201320E-1
4.288891900E-2,-1.035415828E-1,4.169152081E-1,4.185950756E-1
5.288891900E-2,-6.200277433E-2,5.195404887E-1,5.334376693E-1
6.288891900E-2,-5.283980444E-2,4.193586707E-1,5.768090487E-1
7.288891900E-2,-4.917461425E-2,1.866191924E-1,5.700895786E-1
8.288891900E-2,-5.283980444E-2,-1.102610901E-1,5.523744822E-1
9.288891900E-2,-4.123337194E-2,-7.547234297E-1,5.077813268E-1
1.028889190E-1,9.468403645E-3,-9.630283117E-1,4.699077308E-1
1.128889190E-1,9.468403645E-3,-9.630283117E-1,4.699077308E-1
1.228889190E-1,9.468403645E-3,-9.630283117E-1,4.699077308E-1
1.328889190E-1,9.468403645E-3,-9.630283117E-1,4.699077308E-1
1.428889190E-1,2.904661894E-1,-9.691369534E-1,3.300196826E-1
1.528889190E-1,2.605338395E-1,-8.640682101E-1,2.829830945E-1
1.628889190E-1,2.605338395E-1,-8.640682101E-1,2.829830945E-1
1.728889190E-1,2.605338395E-1,-8.640682101E-1,2.829830945E-1
1.828889190E-1,2.605338395E-1,-8.640682101E-1,2.829830945E-1
1.928889190E-1,2.605338395E-1,-8.640682101E-1,2.829830945E-1
2.028889190E-1,-8.408553600E-1,-2.467588186E0,-7.713695168E-1
2.128889190E-1,-9.831868410E-1,-2.600145817E0,-8.587231636E-1
2.228889190E-1,-1.085812092E0,-2.613584995E0,-8.648318052E-1
2.328889190E-1,-1.085812092E0,-2.613584995E0,-8.648318052E-1
2.428889190E-1,-1.085812092E0,-2.613584995E0,-8.648318052E-1
2.528889190E-1,-1.085812092E0,-2.613584995E0,-8.648318052E-1
2.628889190E-1,-9.214895368E-1,-2.861901522E-1,-1.293506175E-1
2.728889190E-1,-8.005383015E-1,-1.976147592E-1,-3.283398226E-2
2.828889190E-1,-7.162389755E-1,-2.977965772E-1,-5.345067009E-3
2.928889190E-1,-6.569850445E-1,-5.311469436E-1,-1.695149764E-2
3.028889190E-1,-6.569850445E-1,-5.311469436E-1,-1.695149764E-2
3.128889190E-1,-5.891790986E-1,-1.259297729E0,-2.246455252E-1
3.228889190E-1,-5.653553605E-1,-1.329547167E0,-2.924515009E-1
3.328889190E-1,-5.189296007E-1,-1.353981733E0,-3.174969554E-1
3.428889190E-1,-4.492910504E-1,-1.326492906E0,-3.003927469E-1
3.528889190E-1,-3.484983444E-1,-1.268460751E0,-2.466366589E-1
3.628889190E-1,-2.208276242E-1,-1.162170291E0,-1.678351015E-1
3.728889190E-1,-2.208276242E-1,-1.162170291E0,-1.678351015E-1
3.828889190E-1,1.737910360E-1,-5.024362803E-1,2.703076601E-2
3.928889190E-1,2.599229515E-1,-3.326158822E-1,2.825249545E-2
4.028889190E-1,3.075704277E-1,-2.660316229E-1,-6.566796452E-3
4.128889190E-1,3.100138903E-1,-3.430005610E-1,-7.009673119E-2
4.228889190E-1,2.684750557E-1,-5.323686600E-1,-1.391244531E-1
4.328889190E-1,1.792888194E-1,-7.724385262E-1,-2.044869810E-1
4.428889190E-1,-9.132428467E-2,-1.146287799E0,-2.637408674E-1
4.528889190E-1,-2.409861535E-1,-1.246469617E0,-2.331976295E-1
4.628889190E-1,-3.998109996E-1,-1.245858669E0,-1.763872057E-1
4.728889190E-1,-5.488619804E-1,-1.110857606E0,-8.720094711E-2
4.828889190E-1,-6.905826330E-1,-9.025527239E-1,2.580903657E-2
4.928889190E-1,-8.335250020E-1,-6.472112536E-1,1.394298822E-1
5.028889190E-1,-9.795216918E-1,-3.875937164E-1,2.457203567E-1
5.128889190E-1,-1.289840937E0,6.078104675E-2,3.892735839E-1
5.228889190E-1,-1.443168044E0,2.800815105E-1,4.381427765E-1
5.328889190E-1,-1.594051600E0,4.981602132E-1,4.802924395E-1
5.428889190E-1,-1.744935274E0,6.893609166E-1,5.181660652E-1
5.528889190E-1,-1.887266755E0,7.999274135E-1,5.468766689E-1
5.628889190E-1,-1.999665856E0,7.431169748E-1,5.432115197E-1
5.728889190E-1,-2.065639257E0,4.749473631E-1,4.925097227E-1
5.828889190E-1,-2.065639257E0,4.749473631E-1,4.925097227E-1
5.928889190E-1,-2.065639257E0,4.749473631E-1,4.925097227E-1
6.028889190E-1,-2.065639257E0,4.749473631E-1,4.925097227E-1
6.128889190E-1,-2.065639257E0,4.749473631E-1,4.925097227E-1
6.228889190E-1,-1.665522814E0,-2.710712433E0,2.261726856E-1
6.328889190E-1,-1.504254460E0,-2.818835497E0,4.350884259E-1
6.428889190E-1,-1.324660301E0,-2.705214739E0,6.947059631E-1
6.528889190E-1,-1.324660301E0,-2.705214739E0,6.947059631E-1
6.628889190E-1,-1.324660301E0,-2.705214739E0,6.947059631E-1
6.728889190E-1,-5.702422857E-1,-1.271515012E0,1.636659503E0
6.828889190E-1,-3.478874862E-1,-8.549052477E-1,1.739284754E0
6.928889190E-1,-1.206457913E-1,-4.358520210E-1,1.752723813E0
7.028889190E-1,8.643736690E-2,1.863137633E-2,1.686139464E0
7.128889190E-1,2.678641975E-1,4.566214085E-1,1.552971005E0
7.228889190E-1,2.678641975E-1,4.566214085E-1,1.552971005E0
7.328889190E-1,2.678641975E-1,4.566214085E-1,1.552971005E0
7.428889190E-1,2.678641975E-1,4.566214085E-1,1.552971005E0
7.528889190E-1,8.206968307E-1,3.246746361E-1,4.607447684E-1
7.628889190E-1,8.494074941E-1,1.927278340E-1,2.518289983E-1
7.728889190E-1,8.805615902E-1,8.643736690E-2,3.069595434E-2
7.828889190E-1,9.379828572E-1,3.756818548E-2,-1.934914142E-1
7.928889190E-1,1.149342060E0,3.094030023E-1,-5.154171586E-1
8.028889190E-1,1.283732295E0,7.205150127E-1,-5.557342172E-1
8.128889190E-1,1.393687963E0,1.349705696E0,-5.312996507E-1
8.228889190E-1,1.464548349E0,2.142608166E0,-4.665479660E-1
8.328889190E-1,1.493869781E0,2.994153738E0,-3.712530732E-1
8.428889190E-1,1.485928535E0,3.795608282E0,-2.869537175E-1
8.528889190E-1,1.460272312E0,4.393644810E0,-2.276998460E-1
8.628889190E-1,1.330158114E0,2.902523994E0,-1.299614757E-1
8.728889190E-1,1.033277750E0,7.327322960E-1,-2.855792828E-2
8.828889190E-1,7.144063711E-1,-3.601047993E-1,9.422589093E-2
8.928889190E-1,4.327977002E-1,-5.671879649E-1,2.078467458E-1
9.028889190E-1,1.609628648E-1,-5.488619804E-1,3.239110410E-1
9.128889190E-1,1.609628648E-1,-5.488619804E-1,3.239110410E-1
9.228889190E-1,-3.845393658E-1,-4.700604379E-1,5.377137065E-1
9.328889190E-1,-3.845393658E-1,-4.700604379E-1,5.377137065E-1
9.428889190E-1,-3.845393658E-1,-4.700604379E-1,5.377137065E-1
9.528889190E-1,-3.845393658E-1,-4.700604379E-1,5.377137065E-1
9.628889190E-1,-9.269872904E-1,-1.957821548E-1,4.033234715E-1
9.728889190E-1,-9.178243279E-1,7.116574794E-2,2.402225733E-1
9.828889190E-1,-8.542944193E-1,1.676823795E-1,7.223475724E-2
9.928889190E-1,-6.960803866E-1,8.338304609E-2,-6.948586553E-2
1.002888919E0,-6.960803866E-1,8.338304609E-2,-6.948586553E-2
1.012888919E0,-6.960803866E-1,8.338304609E-2,-6.948586553E-2
1.022888919E0,7.238747925E-2,-1.448054910E0,-4.360047281E-1
1.032888919E0,2.299905866E-1,-1.628260016E0,-4.573850036E-1
1.042888919E0,4.437932670E-1,-1.662468553E0,-4.231765866E-1
1.052888919E0,7.571669221E-1,-1.644142509E0,-3.400989771E-1
1.062888919E0,1.136513948E0,-1.550680280E0,-2.729038298E-1
1.072888919E0,1.783419728E0,-1.291673541E0,-2.704603672E-1
1.082888919E0,2.047313213E0,-1.120020628E0,-3.358229101E-1
1.092888919E0,2.276387691E0,-9.404263496E-1,-4.060723484E-1
1.102888919E0,2.422995090E0,-7.822123766E-1,-4.280634820E-1
1.112888919E0,2.427881956E0,-6.148353815E-1,-3.602575064E-1
1.122888919E0,2.251342058E0,-4.370737374E-1,-1.996000707E-1
1.132888919E0,1.903149247E0,-2.293797284E-1,-1.023198478E-2
1.142888919E0,8.964440823E-1,2.202167511E-1,2.060141414E-1
1.152888919E0,3.649916947E-1,3.436114490E-1,2.414443046E-1
1.162888919E0,-6.200277433E-2,3.955349326E-1,2.872591615E-1
1.172888919E0,-3.338375986E-1,4.199695289E-1,3.202458620E-1
1.182888919E0,-4.248564541E-1,3.741546869E-1,3.190241456E-1
1.192888919E0,-3.692677617E-1,2.403752953E-1,2.915352285E-1
1.202888919E0,-2.189950198E-1,5.955931544E-2,2.780961990E-1
1.212888919E0,-2.189950198E-1,5.955931544E-2,2.780961990E-1
1.222888919E0,-2.189950198E-1,5.955931544E-2,2.780961990E-1
1.232888919E0,-2.189950198E-1,5.955931544E-2,2.780961990E-1
1.242888919E0,-2.189950198E-1,5.955931544E-2,2.780961990E-1
1.252888919E0,1.120936871E-1,-5.873464942E-1,-1.299614757E-1
1.262888919E0,7.849612087E-2,-6.233875155E-1,-1.519526094E-1
1.272888919E0,1.261435747E-1,-5.714640021E-1,-1.201876476E-1
1.282888919E0,1.261435747E-1,-5.714640021E-1,-1.201876476E-1
1.292888919E0,1.261435747E-1,-5.714640021E-1,-1.201876476E-1
1.302888919E0,1.261435747E-1,-5.714640021E-1,-1.201876476E-1
1.312888919E0,6.246092319E-1,-4.175260663E-1,1.527161949E-4
1.322888919E0,6.801979542E-1,-2.067777216E-1,6.001746282E-2
1.332888919E0,7.144063711E-1,4.917461425E-2,1.198822111E-1
1.342888919E0,7.443387508E-1,2.703076601E-1,1.785252392E-1
1.352888919E0,7.443387508E-1,2.703076601E-1,1.785252392E-1
1.362888919E0,7.443387508E-1,2.703076601E-1,1.785252392E-1
1.372888919E0,8.121446967E-1,3.145953640E-2,1.962403059E-1
1.382888919E0,8.066469431E-1,-1.102610901E-1,1.534797698E-1
1.392888919E0,7.932079434E-1,-1.542433500E-1,9.666935354E-2
1.402888919E0,7.754928470E-1,-8.399390429E-2,3.924806044E-2
1.412888919E0,7.565560341E-1,8.826996386E-2,-9.621120058E-3
1.422888919E0,7.565560341E-1,8.826996386E-2,-9.621120058E-3
1.432888919E0,7.021890879E-1,6.185005903E-1,-6.887500733E-2
1.442888919E0,6.655371785E-1,6.417134404E-1,-6.459894776E-2
1.452888919E0,5.885682106E-1,5.360338688E-1,-5.665770918E-2
1.462888919E0,4.431824088E-1,3.784307241E-1,-5.665770918E-2
1.472888919E0,2.501491308E-1,2.580903769E-1,-5.543597788E-2
1.482888919E0,2.474002354E-2,1.988364905E-1,-5.482511222E-2
1.492888919E0,-4.389063418E-1,8.888082206E-2,-1.006399691E-1
1.502888919E0,-6.319395900E-1,5.467239767E-2,-1.458439678E-1
1.512888919E0,-7.974839807E-1,5.650499091E-2,-2.160934210E-1
1.522888919E0,-9.349285364E-1,7.910698652E-2,-3.028362095E-1
1.532888919E0,-1.019227862E0,1.243109852E-1,-3.736965358E-1
1.542888919E0,-1.044273376E0,1.811214089E-1,-3.999637067E-1
1.552888919E0,-1.009454012E0,2.409861535E-1,-3.767508566E-1
1.562888919E0,-1.033888698E0,3.784307241E-1,-2.796233594E-1
1.572888919E0,-9.935715795E-1,2.843575478E-1,-1.782197952E-1
1.582888919E0,-8.994984031E-1,2.825249732E-1,-5.604684353E-2
1.592888919E0,-7.651081085E-1,4.602866173E-1,5.696314201E-2
1.602888919E0,-6.117810607E-1,6.539307237E-1,1.540906429E-1
1.612888919E0,-4.486801922E-1,7.278453708E-1,2.322813272E-1
1.622888919E0,-2.880227566E-1,6.875283122E-1,2.774853408E-1
1.632888919E0,-2.880227566E-1,6.875283122E-1,2.774853408E-1
1.642888919E0,-2.880227566E-1,6.875283122E-1,2.774853408E-1
1.652888919E0,-2.880227566E-1,6.875283122E-1,2.774853408E-1
1.662888919E0,-2.880227566E-1,6.875283122E-1,2.774853408E-1
1.672888919E0,5.293143392E-1,-5.311469436E-1,-1.036942974E-1
1.682888919E0,6.056724191E-1,-5.372555852E-1,-1.702785641E-1
1.692888919E0,6.233875155E-1,-4.944950342E-1,-2.191477418E-1
1.702888919E0,6.233875155E-1,-4.944950342E-1,-2.191477418E-1
1.712888919E0,6.233875155E-1,-4.944950342E-1,-2.191477418E-1
1.722888919E0,2.403752953E-1,-2.782489061E-1,-2.160934210E-1
1.732888919E0,8.460476995E-2,-3.149007857E-1,-1.800523996E-1
1.742888919E0,-8.582650125E-2,-4.260781705E-1,-1.690568328E-1
1.752888919E0,-2.727511227E-1,-5.800161362E-1,-2.179260105E-1
1.762888919E0,-4.706713259E-1,-7.418952584E-1,-3.010036349E-1
1.772888919E0,-4.706713259E-1,-7.418952584E-1,-3.010036349E-1
1.782888919E0,-4.706713259E-1,-7.418952584E-1,-3.010036349E-1
1.792888919E0,-9.679152369E-1,-8.793398738E-1,-3.944659233E-1
1.802888919E0,-9.214895368E-1,-6.337721944E-1,-2.692386508E-1
1.812888919E0,-8.445205688E-1,-2.886336148E-1,-1.409570426E-1
1.822888919E0,-7.394518256E-1,6.383536756E-2,-1.084284950E-2
1.832888919E0,-6.203331947E-1,3.930914998E-1,1.046105921E-1
1.842888919E0,-4.101957083E-1,6.319395900E-1,1.699731201E-1
1.852888919E0,-3.149007857E-1,4.743365049E-1,1.302669197E-1
1.862888919E0,-2.183841616E-1,2.709185183E-1,6.795870513E-2
1.872888919E0,-1.212566569E-1,9.437860548E-2,-1.023198478E-2
1.882888919E0,-2.168569900E-2,-1.679878123E-2,-8.292489499E-2
1.892888919E0,8.643736690E-2,-1.130099874E-2,-1.379027218E-1
1.902888919E0,1.957821548E-1,7.299833745E-2,-1.782197952E-1
1.912888919E0,3.478874862E-1,2.275471240E-1,-2.551887631E-1
1.922888919E0,3.753764033E-1,2.574795187E-1,-2.826776803E-1
1.932888919E0,3.820959330E-1,3.020726442E-1,-2.930623889E-1
1.942888919E0,3.704894781E-1,3.460549116E-1,-2.887863219E-1
1.952888919E0,3.564395905E-1,3.649916947E-1,-2.625191510E-1
1.962888919E0,3.503309488E-1,3.521635532E-1,-2.124282271E-1
1.972888919E0,3.497200906E-1,3.087921441E-1,-1.580612659E-1
1.982888919E0,3.320049942E-1,1.597411335E-1,-1.030834317E-1
1.992888919E0,3.118464649E-1,6.078104675E-2,-1.091920808E-1
2.002888919E0,2.813032269E-1,-1.679878123E-2,-1.287397593E-1
2.012888919E0,2.525925934E-1,-4.001164436E-2,-1.507308781E-1
2.022888919E0,2.587012351E-1,-1.679878123E-2,-1.458439678E-1
2.032888919E0,2.904661894E-1,9.315688163E-2,-1.153007299E-1
2.042888919E0,3.442223072E-1,2.770271897E-1,-6.093376130E-2
2.052888919E0,3.442223072E-1,2.770271897E-1,-6.093376130E-2
2.062888919E0,3.442223072E-1,2.770271897E-1,-6.093376130E-2
2.072888919E0,3.442223072E-1,2.770271897E-1,-6.093376130E-2
2.082888919E0,3.442223072E-1,2.770271897E-1,-6.093376130E-2
2.092888919E0,3.772090077E-1,2.440404743E-1,1.359174121E-2
2.102888919E0,3.039052188E-1,6.139190868E-2,-6.582067907E-2
2.112888919E0,2.391535640E-1,-4.428769648E-2,-1.366809905E-1
2.122888919E0,2.391535640E-1,-4.428769648E-2,-1.366809905E-1
2.132888919E0,2.391535640E-1,-4.428769648E-2,-1.366809905E-1
2.142888919E0,2.391535640E-1,-4.428769648E-2,-1.366809905E-1
2.152888919E0,7.238747925E-2,-6.627883017E-2,-2.325867712E-1
2.162888919E0,2.779434808E-2,-7.544180006E-2,-2.099847645E-1
2.172888919E0,-1.069013402E-2,-7.971785218E-2,-1.806632578E-1
2.182888919E0,-2.901607752E-2,-8.949168772E-2,-1.434005052E-1
2.192888919E0,-2.901607752E-2,-8.949168772E-2,-1.434005052E-1
2.202888919E0,-2.901607752E-2,-8.949168772E-2,-1.434005052E-1
2.212888919E0,1.676823795E-1,3.451386094E-2,7.483093534E-3
2.222888919E0,2.275471240E-1,7.666353136E-2,8.093958721E-3
2.232888919E0,2.660316229E-1,1.212566569E-1,-8.399390616E-3
2.242888919E0,2.721402645E-1,1.670715213E-1,-3.466657549E-2
2.252888919E0,2.452622056E-1,1.841757298E-1,-7.070759684E-2
2.262888919E0,2.452622056E-1,1.841757298E-1,-7.070759684E-2
2.272888919E0,9.010255337E-2,8.277218044E-2,-1.440113783E-1
2.282888919E0,6.750056148E-2,6.750056148E-2,-1.159115955E-1
2.292888919E0,5.833758786E-2,1.585194170E-1,-7.437278330E-2
2.302888919E0,5.833758786E-2,2.910770774E-1,-2.733619884E-2
2.312888919E0,5.161807314E-2,3.827067912E-1,1.847865991E-2
2.322888919E0,3.329212964E-2,4.156934917E-1,5.513054505E-2
2.332888919E0,-5.161807314E-2,4.034761786E-1,5.268708616E-2
2.342888919E0,-1.444695145E-1,3.240637779E-1,1.114828233E-2
2.352888919E0,-2.764163017E-1,1.719584316E-1,-5.299251899E-2
2.362888919E0,-4.205803871E-1,-2.290742844E-2,-1.336266696E-1
2.372888919E0,-5.372555852E-1,-2.489273995E-1,-2.038761228E-1
2.382888919E0,-6.142245531E-1,-3.845393658E-1,-2.515235841E-1
2.392888919E0,-6.301070452E-1,-4.175260663E-1,-2.582430840E-1
2.402888919E0,-5.115992427E-1,-2.800815105E-1,-1.452330947E-1
2.412888919E0,-4.260781705E-1,-7.788526267E-2,-7.559451461E-2
2.422888919E0,-3.344484568E-1,1.884517819E-1,-1.069013379E-3
2.432888919E0,-2.568686306E-1,4.407389462E-1,5.635227636E-2
2.442888919E0,-2.159406990E-1,5.677987933E-1,7.162389904E-2
2.452888919E0,-2.208276242E-1,4.944950342E-1,3.924806044E-2
2.462888919E0,-2.580903769E-1,2.263254076E-1,-9.010255337E-3
2.472888919E0,-3.222311735E-1,-4.706713259E-1,-1.939495653E-2
2.482888919E0,-3.063486814E-1,-7.180715203E-1,3.863719851E-2
2.492888919E0,-2.623664141E-1,-8.958331943E-1,1.192713454E-1
2.502888919E0,-2.623664141E-1,-8.958331943E-1,1.192713454E-1
2.512888919E0,-1.279761642E-1,-9.868520498E-1,2.451094985E-1
2.522888919E0,-6.200277433E-2,-9.013310075E-1,2.554942071E-1
2.532888919E0,-4.581485875E-3,-7.852666974E-1,2.280052751E-1
2.542888919E0,-4.581485875E-3,-7.852666974E-1,2.280052751E-1
2.552888919E0,-4.581485875E-3,-7.852666974E-1,2.280052751E-1
2.562888919E0,-4.581485875E-3,-7.852666974E-1,2.280052751E-1
2.572888919E0,-4.581485875E-3,-7.852666974E-1,2.280052751E-1
2.572888919E0,4.187478125E-1,-6.078104675E-2,3.068068326E-1
2.592888919E0,5.085449219E-1,4.639517963E-1,2.994764447E-1
2.602888919E0,4.376846254E-1,6.185005903E-1,1.504254490E-1
2.612888919E0,4.376846254E-1,6.185005903E-1,1.504254490E-1
2.622888919E0,4.376846254E-1,6.185005903E-1,1.504254490E-1
2.632888919E0,-1.731801629E-1,-9.282090068E-1,-4.268417656E-1
2.642888919E0,-2.489273995E-1,-1.185383081E0,-3.101665974E-1
2.652888919E0,-2.721402645E-1,-1.153007269E0,-1.458439678E-1
2.662888919E0,-2.623664141E-1,-9.221003652E-1,8.093958721E-3
2.672888919E0,-2.196058929E-1,-5.714640021E-1,1.522580534E-1
2.682888919E0,-2.196058929E-1,-5.714640021E-1,1.522580534E-1
2.692888919E0,-7.727439702E-2,7.596103549E-1,2.903134823E-1
2.702888919E0,-7.971785218E-2,9.300416112E-1,1.834121495E-1
2.712888919E0,-1.108719558E-1,8.524618149E-1,4.352411628E-2
2.722888919E0,-1.707367003E-1,6.068941355E-1,-7.925970852E-2
2.732888919E0,-2.367101014E-1,2.599229515E-1,-1.531743407E-1
2.742888919E0,-2.965748608E-1,-1.065959036E-1,-1.715002805E-1
2.752888919E0,-3.949240744E-1,-6.276635528E-1,-1.495091617E-1
2.762888919E0,-4.327977002E-1,-7.308996916E-1,-1.415679157E-1
2.772888919E0,-4.505127668E-1,-7.480039001E-1,-1.256854236E-1
2.782888919E0,-4.505127668E-1,-7.480039001E-1,-1.256854236E-1
2.792888919E0,-4.089739621E-1,-4.773908257E-1,-2.611446939E-2
2.802888919E0,-3.503309488E-1,-1.774562150E-1,5.268708616E-2
2.812888919E0,-2.849684060E-1,1.579085439E-1,1.333212405E-1
2.822888919E0,-2.849684060E-1,1.579085439E-1,1.333212405E-1
2.832888919E0,-2.849684060E-1,1.579085439E-1,1.333212405E-1
2.842888919E0,-2.849684060E-1,1.579085439E-1,1.333212405E-1
2.852888919E0,-2.849684060E-1,1.579085439E-1,1.333212405E-1
2.862888919E0,-1.664606482E-1,2.168569900E-2,-3.193295598E-1
2.872888919E0,-2.275471240E-1,-2.397644222E-1,-4.408916533E-1
2.882888919E0,-2.886336148E-1,-4.395172000E-1,-4.977020919E-1
2.892888919E0,-2.886336148E-1,-4.395172000E-1,-4.977020919E-1
2.902888919E0,-2.886336148E-1,-4.395172000E-1,-4.977020919E-1
2.912888919E0,-2.886336148E-1,-4.395172000E-1,-4.977020919E-1
2.922888919E0,-3.704894781E-1,-4.474584460E-1,-2.771798968E-1
2.932888919E0,-3.057378232E-1,-3.686569035E-1,-1.281288862E-1
2.942888919E0,-1.933387071E-1,-2.208276242E-1,5.207622424E-2
2.952888919E0,-4.001164436E-2,9.468403645E-3,2.029598206E-1
2.962888919E0,-4.001164436E-2,9.468403645E-3,2.029598206E-1
2.972888919E0,-4.001164436E-2,9.468403645E-3,2.029598206E-1
2.982888919E0,5.262600183E-1,1.091920853E0,3.715584874E-1
2.982888919E0,5.262600183E-1,1.091920853E0,3.715584874E-1
3.002888919E0,5.800161362E-1,1.050992846E0,4.352411628E-2
3.012888919E0,5.561923981E-1,7.638863921E-1,-1.574503928E-1
3.022888919E0,5.036579967E-1,4.101957083E-1,-3.229947388E-1
3.032888919E0,5.036579967E-1,4.101957083E-1,-3.229947388E-1
3.042888919E0,3.155116439E-1,-9.010255337E-2,-2.881754637E-1
3.052888919E0,2.306014597E-1,-5.650499091E-2,-2.203694731E-1
3.062888919E0,1.212566569E-1,-2.657261863E-2,-2.118173689E-1
3.072888919E0,-3.970621154E-3,-4.489856213E-2,-2.570213675E-1
3.082888919E0,-1.353065521E-1,-1.120936871E-1,-3.254382014E-1
3.092888919E0,-2.715294063E-1,-2.183841616E-1,-3.987419903E-1
3.102888919E0,-4.590648711E-1,-4.981602132E-1,-4.060723484E-1
3.112888919E0,-4.663952589E-1,-5.873464942E-1,-3.052796721E-1
3.122888919E0,-4.126391709E-1,-5.598575473E-1,-1.550069451E-1
3.132888919E0,-3.222311735E-1,-3.857611120E-1,-7.788525894E-3
3.142888919E0,-2.043342739E-1,-1.279761642E-1,1.259908676E-1
3.152888919E0,-6.444623321E-2,1.994473487E-1,2.457203567E-1
3.162888919E0,2.299905866E-1,8.823941946E-1,3.929387629E-1
3.172888919E0,3.564395905E-1,1.099251151E0,3.721693754E-1
3.182888919E0,4.718930423E-1,1.138346553E0,3.031416535E-1
3.192888919E0,4.718930423E-1,1.138346553E0,3.031416535E-1
3.202888919E0,4.718930423E-1,1.138346553E0,3.031416535E-1
3.212888919E0,4.718930423E-1,1.138346553E0,3.031416535E-1
3.222888919E0,9.202677608E-1,3.802633286E-1,-6.093376130E-2
3.232888919E0,9.202677608E-1,3.802633286E-1,-6.093376130E-2
3.242888919E0,9.202677608E-1,3.802633286E-1,-6.093376130E-2
3.252888919E0,9.202677608E-1,3.802633286E-1,-6.093376130E-2
3.262888919E0,9.202677608E-1,3.802633286E-1,-6.093376130E-2
3.272888919E0,7.730493546E-1,4.437932670E-1,-2.790125012E-1
3.282888919E0,6.380482912E-1,3.026835024E-1,-3.065013885E-1
3.292888919E0,4.951058924E-1,1.823431402E-1,-2.979492843E-1
3.302888919E0,4.951058924E-1,1.823431402E-1,-2.979492843E-1
3.312888919E0,2.079994529E-1,2.782489061E-1,-3.222311661E-2
3.322888919E0,1.408043355E-1,3.790415823E-1,3.985892609E-2
3.332888919E0,6.994401664E-2,4.993819594E-1,7.040216774E-2
3.342888919E0,5.192350596E-3,5.842921734E-1,9.605848789E-2
3.352888919E0,-4.062250629E-2,6.349939108E-1,1.327103674E-1
3.362888919E0,-1.047633067E-1,6.313287616E-1,9.972367436E-2
3.372888919E0,-1.047633067E-1,6.313287616E-1,9.972367436E-2
3.382888919E0,-2.764163017E-1,3.692677617E-1,-1.232419685E-1
3.392888919E0,-2.617555559E-1,3.778198659E-1,-1.073594838E-1
3.402888919E0,-2.159406990E-1,4.291325212E-1,-3.711003438E-2
3.412888919E0,-1.524107605E-1,4.920515716E-1,5.451968312E-2
3.422888919E0,-8.643736690E-2,5.403099060E-1,1.308777779E-1
3.432888919E0,-3.145953640E-2,5.409207344E-1,1.773035079E-1
3.442888919E0,5.894844979E-2,3.979783952E-1,2.432768941E-1
3.452888919E0,8.582650125E-2,2.977965772E-1,2.170097083E-1
3.462888919E0,8.704823256E-2,1.579085439E-1,1.528689116E-1
3.472888919E0,5.955931544E-2,-1.802051067E-2,5.451968312E-2
3.482888919E0,2.138026757E-3,-1.933387071E-1,-7.070759684E-2
3.492888919E0,-6.627883017E-2,-3.197877109E-1,-1.855501831E-1
3.502888919E0,-1.218675226E-1,-3.539961278E-1,-2.545779049E-1
3.512888919E0,-1.579085439E-1,-1.493564397E-1,-2.564104795E-1
3.522888919E0,-1.481347084E-1,-1.130099874E-2,-2.038761228E-1
3.532888919E0,-1.243109852E-1,1.102610901E-1,-1.256854236E-1
3.542888919E0,-8.277218044E-2,1.835648715E-1,-2.428187430E-2
3.552888919E0,-2.474002354E-2,2.037234008E-1,7.406735420E-2
3.562888919E0,5.100720748E-2,1.988364905E-1,1.559232324E-1
3.572888919E0,1.432477981E-1,2.049451321E-1,2.243400961E-1
3.582888919E0,1.432477981E-1,2.049451321E-1,2.243400961E-1
3.592888919E0,1.432477981E-1,2.049451321E-1,2.243400961E-1
3.602888919E0,1.432477981E-1,2.049451321E-1,2.243400961E-1
3.612888919E0,1.432477981E-1,2.049451321E-1,2.243400961E-1
3.622888919E0,1.432477981E-1,2.049451321E-1,2.243400961E-1
3.632888919E0,4.010327160E-1,1.127045527E-1,2.823722363E-1
3.642888919E0,2.837466896E-1,-1.035415828E-1,2.017380893E-1
3.652888919E0,2.837466896E-1,-1.035415828E-1,2.017380893E-1
3.662888919E0,2.837466896E-1,-1.035415828E-1,2.017380893E-1
3.672888919E0,2.837466896E-1,-1.035415828E-1,2.017380893E-1
3.682888919E0,2.837466896E-1,-1.035415828E-1,2.017380893E-1
3.692888919E0,-6.948586702E-1,-9.141591191E-1,-5.490147471E-1
3.702888919E0,-7.186824083E-1,-6.869174242E-1,-5.539016128E-1
3.712888919E0,-6.954695582E-1,-4.480693042E-1,-4.897608459E-1
3.722888919E0,-6.954695582E-1,-4.480693042E-1,-4.897608459E-1
3.732888919E0,-6.954695582E-1,-4.480693042E-1,-4.897608459E-1
3.742888919E0,-6.954695582E-1,-4.480693042E-1,-4.897608459E-1
3.752888919E0,-2.107483521E-2,3.436114490E-1,4.754055142E-1
3.762888919E0,1.078176349E-1,3.063486814E-1,4.973966479E-1
3.772888919E0,2.116646469E-1,2.409861535E-1,4.528035223E-1
3.782888919E0,2.886336148E-1,1.487455666E-1,3.587303460E-1
3.792888919E0,2.886336148E-1,1.487455666E-1,3.587303460E-1
3.802888919E0,2.886336148E-1,1.487455666E-1,3.587303460E-1
3.812888919E0,4.566214085E-1,-5.354229808E-1,8.689551800E-2
3.822888919E0,4.810560048E-1,-6.453786492E-1,8.078686893E-2
3.832888919E0,4.828886092E-1,-7.315105796E-1,7.712167501E-2
3.842888919E0,4.547888339E-1,-7.877101302E-1,6.673697382E-2
3.852888919E0,3.998109996E-1,-8.158099055E-1,4.474584386E-2
3.862888919E0,3.998109996E-1,-8.158099055E-1,4.474584386E-2
3.872888919E0,2.391535640E-1,-6.954695582E-1,1.175914705E-2
3.882888919E0,2.568686306E-1,-5.812378526E-1,5.818486959E-2
3.892888919E0,3.136790693E-1,-4.425715208E-1,1.131627038E-1
3.902888919E0,3.882045746E-1,-2.825249732E-1,1.553123742E-1
3.912888919E0,4.480693042E-1,-9.376774728E-2,1.754709035E-1
3.922888919E0,4.651735425E-1,7.666353136E-2,1.620318890E-1
3.932888919E0,3.423897028E-1,1.463021189E-1,4.352411628E-2
3.942888919E0,2.159406990E-1,-3.573558852E-2,-2.061668597E-2
3.952888919E0,4.001164436E-2,-3.118464649E-1,-9.697478265E-2
3.962888919E0,-1.615737379E-1,-5.464185476E-1,-1.782197952E-1
3.972888919E0,-3.533852696E-1,-7.009673119E-1,-2.515235841E-1
3.982888919E0,-5.097666383E-1,-7.956513762E-1,-2.936732471E-1
3.992888919E0,-6.075050235E-1,-8.084795475E-1,-2.796233594E-1
4.002888919E0,-6.411026120E-1,-6.398808360E-1,-5.849030241E-2
4.012888919E0,-6.093376279E-1,-5.091558099E-1,9.789107740E-2
4.022888919E0,-5.537489057E-1,-3.301724195E-1,2.432768941E-1
4.032888919E0,-4.889972508E-1,-1.505781710E-1,3.507890999E-1
4.042888919E0,-4.285216331E-1,9.162971983E-4,3.868301213E-1
4.052888919E0,-3.503309488E-1,2.556469142E-1,3.214675784E-1
4.062888919E0,-2.764163017E-1,4.245510325E-2,1.937968582E-1
4.072888919E0,-2.764163017E-1,4.245510325E-2,1.937968582E-1
4.082888919E0,-1.151480079E-1,-1.002734542E0,-1.562286615E-1
4.092888919E0,-7.666353136E-2,-1.032056093E0,-2.234237939E-1
4.102888919E0,-8.093958348E-2,-8.329141140E-1,-2.777907550E-1
4.112888919E0,-1.224783882E-1,-5.971203446E-1,-3.138317764E-1
4.122888919E0,-1.517999023E-1,-4.444041252E-1,-3.278816640E-1
4.132888919E0,-1.566868126E-1,-3.912588954E-1,-3.077231348E-1
4.142888919E0,-1.377500147E-1,-2.666424811E-1,-1.287397593E-1
4.152888919E0,-1.261435747E-1,-1.524107605E-1,-4.734201822E-3
4.162888919E0,-1.261435747E-1,-7.605266571E-2,8.445205539E-2
4.172888919E0,-1.426369250E-1,-7.666353136E-2,1.149952933E-1
4.182888919E0,-1.426369250E-1,-7.666353136E-2,1.149952933E-1
4.192888919E0,-2.141081095E-1,-1.841757298E-1,4.413498193E-2
4.202888919E0,-2.452622056E-1,-2.067777216E-1,-2.901607659E-3
4.212888919E0,-2.312123179E-1,-1.096502244E-1,-5.849030241E-2
4.222888919E0,-1.878409237E-1,-4.856374860E-2,-7.192932814E-2
4.232888919E0,-1.383608729E-1,4.734202102E-2,-6.643154472E-2
4.242888919E0,-1.383608729E-1,4.734202102E-2,-6.643154472E-2
4.252888919E0,-2.962694131E-2,3.381136656E-1,2.519817278E-2
4.262888919E0,2.840521187E-2,4.211912751E-1,1.064431891E-1
4.272888919E0,8.582650125E-2,4.340194166E-1,1.895207912E-1
4.282888919E0,8.582650125E-2,4.340194166E-1,1.895207912E-1
4.292888919E0,2.391535640E-1,2.880227566E-1,3.220784664E-1
4.302888919E0,2.855792940E-1,3.405571282E-1,3.220784664E-1
4.312888919E0,3.301724195E-1,4.676169753E-1,3.110828996E-1
4.322888919E0,3.668242991E-1,6.288852692E-1,2.701549530E-1
4.332888919E0,3.649916947E-1,6.814196706E-1,1.663079411E-1
4.342888919E0,3.295615613E-1,5.800161362E-1,-2.855792828E-2
4.352888919E0,-1.313359290E-2,-4.859429300E-1,-5.703949928E-1
4.362888919E0,-2.257145345E-1,-9.355394244E-1,-7.609847784E-1
4.372888919E0,-3.674351573E-1,-1.123685718E0,-8.135191798E-1
4.382888919E0,-4.272999167E-1,-1.080314398E0,-7.841976881E-1
4.392888919E0,-4.230238497E-1,-8.628464937E-1,-7.341067195E-1
4.402888919E0,-3.711003661E-1,-5.922334194E-1,-6.540834904E-1
4.412888919E0,-2.819140851E-1,-2.868010104E-1,-5.355756879E-1
4.422888919E0,-2.819140851E-1,-2.868010104E-1,-5.355756879E-1
4.432888919E0,-2.819140851E-1,-2.868010104E-1,-5.355756879E-1
4.442888919E0,-2.819140851E-1,-2.868010104E-1,-5.355756879E-1
4.442888919E0,-5.345066637E-2,3.869828284E-1,-1.574503928E-1
4.462888919E0,-8.032871783E-2,3.985892832E-1,-9.514218569E-2
4.472888919E0,-1.084285006E-1,4.193586707E-1,-6.948586553E-2
4.482888919E0,-1.298087686E-1,4.132500291E-1,-4.382954910E-2
4.492888919E0,-1.041524485E-1,3.100138903E-1,4.413498193E-2
4.502888919E0,-4.001164436E-2,2.397644222E-1,9.544762224E-2
4.512888919E0,3.756818548E-2,1.572976857E-1,1.235474050E-1
4.522888919E0,1.120936871E-1,1.237001196E-1,1.449276656E-1
4.532888919E0,1.120936871E-1,1.237001196E-1,1.449276656E-1
4.542888919E0,1.725693047E-1,1.646280587E-1,1.620318890E-1
4.552888919E0,1.536324918E-1,1.792888194E-1,1.357647032E-1
4.562888919E0,1.536324918E-1,1.792888194E-1,1.357647032E-1
4.572888919E0,1.536324918E-1,1.792888194E-1,1.357647032E-1
4.582888919E0,1.536324918E-1,1.792888194E-1,1.357647032E-1
4.592888919E0,3.601047993E-1,2.935205400E-1,-2.733619884E-2
4.602888919E0,3.601047993E-1,2.935205400E-1,-2.733619884E-2
4.612888919E0,4.566214085E-1,4.780016840E-1,8.506292105E-2
4.622888919E0,4.951058924E-1,5.629118681E-1,1.516471803E-1
4.632888919E0,4.682278633E-1,6.630937457E-1,1.681405306E-1
4.642888919E0,3.888154328E-1,6.166679859E-1,1.180496216E-1
4.652888919E0,2.806923687E-1,5.891790986E-1,6.551524997E-2
4.662888919E0,1.707367003E-1,6.594285369E-1,2.764163166E-2
4.672888919E0,7.116574794E-2,7.895427346E-1,1.970038936E-2
4.682888919E0,-1.130099874E-2,9.410371780E-1,4.046979174E-2
4.692888919E0,-7.360920310E-2,1.098640323E0,8.139773458E-2
4.702888919E0,-1.499672979E-1,1.181717873E0,2.121227980E-1
4.712888919E0,-1.780670881E-1,1.022893071E0,2.573267817E-1
4.722888919E0,-1.970038861E-1,7.101303339E-1,2.536616027E-1
4.732888919E0,-2.128863782E-1,3.045161068E-1,1.919642538E-1
4.742888919E0,-2.141081095E-1,-3.634645417E-2,8.139773458E-2
4.752888919E0,-2.086103261E-1,-2.306014597E-1,-6.154462695E-2
4.762888919E0,-1.805105358E-1,-3.356702030E-1,-1.916588247E-1
4.772888919E0,-3.390299529E-2,-9.804379940E-2,-3.413206935E-1
4.782888919E0,1.313359290E-2,-2.874118686E-1,-3.645335436E-1
4.792888919E0,5.283980444E-2,-4.486801922E-1,-3.926333487E-1
4.802888919E0,7.910698652E-2,-7.150171995E-1,-4.347830117E-1
4.812888919E0,1.114828214E-1,-1.024114847E0,-4.842630625E-1
4.822888919E0,1.554650813E-1,-1.215926290E0,-5.520690680E-1
4.832888919E0,1.853974611E-1,-1.253799915E0,-6.314814687E-1
4.842888919E0,1.853974611E-1,-1.253799915E0,-6.314814687E-1
4.852888919E0,1.853974611E-1,-1.253799915E0,-6.314814687E-1
4.862888919E0,1.853974611E-1,-1.253799915E0,-6.314814687E-1
4.872888919E0,1.853974611E-1,-1.253799915E0,-6.314814687E-1
4.882888919E0,1.853974611E-1,-1.253799915E0,-6.314814687E-1
4.892888919E0,-5.283980444E-2,-3.252854943E-1,1.369864196E-1
4.902888919E0,-1.120936871E-1,-1.267544478E-1,2.072358727E-1
4.912888919E0,-1.120936871E-1,-1.267544478E-1,2.072358727E-1
4.922888919E0,-1.120936871E-1,-1.267544478E-1,2.072358727E-1
4.932888919E0,-1.120936871E-1,-1.267544478E-1,2.072358727E-1
4.942888919E0,-2.880227566E-1,3.778198659E-1,3.984365463E-1
4.952888919E0,-2.831358314E-1,3.344484568E-1,3.428478539E-1
4.962888919E0,-2.794706225E-1,2.806923687E-1,2.634354234E-1
4.972888919E0,-2.904661894E-1,2.360992432E-1,1.681405306E-1
4.982888919E0,-2.904661894E-1,2.360992432E-1,1.681405306E-1
4.992888919E0,-2.904661894E-1,2.360992432E-1,1.681405306E-1
5.002888919E0,-2.031125426E-1,1.252272818E-2,1.828012913E-1
5.012888919E0,-1.328630894E-1,-5.467239767E-2,2.432768941E-1
5.022888919E0,-5.039634556E-2,-1.249218509E-1,2.835939825E-1
5.032888919E0,3.512472659E-2,-1.634063274E-1,2.866483033E-1
5.042888919E0,1.169806048E-1,-1.267544478E-1,2.518289983E-1
5.052888919E0,1.169806048E-1,-1.267544478E-1,2.518289983E-1
5.062888919E0,1.169806048E-1,-1.267544478E-1,2.518289983E-1
5.072888919E0,3.613265157E-1,1.218675226E-1,7.467821985E-2
5.082888919E0,3.985892832E-1,2.336557806E-1,1.198822111E-1
5.092888919E0,4.358520210E-1,3.656025827E-1,2.084576041E-1
5.102888919E0,5.146535635E-1,6.319395900E-1,2.909243405E-1
5.112888919E0,6.081159115E-1,6.893609166E-1,3.361283541E-1
5.122888919E0,6.081159115E-1,6.893609166E-1,3.361283541E-1
5.132888919E0,7.626646757E-1,-4.489856213E-2,3.416261375E-1
5.142888919E0,7.467821836E-1,-2.141081095E-1,3.080285788E-1
5.152888919E0,7.027999163E-1,-2.941313982E-1,2.554942071E-1
5.162888919E0,6.398808360E-1,-2.605338395E-1,1.870773435E-1
5.172888919E0,5.732966065E-1,-1.737910360E-1,1.143844277E-1
5.182888919E0,5.250383019E-1,-4.734202102E-2,6.490438432E-2
5.192888919E0,5.610793233E-1,3.704894781E-1,9.666935354E-2
5.202888919E0,6.093376279E-1,6.429351568E-1,1.192713454E-1
5.212888919E0,6.472112536E-1,8.628464937E-1,1.076649204E-1
5.222888919E0,6.368265152E-1,8.768963814E-1,9.483675659E-2
5.232888919E0,4.725039005E-1,5.885682106E-1,5.390881747E-2
5.242888919E0,1.047633067E-1,3.145953640E-2,-4.138609022E-2
5.252888919E0,-3.570504785E-1,-5.158752799E-1,-2.044869810E-1
5.262888919E0,-8.823941946E-1,-8.384119272E-1,-5.539016128E-1
5.272888919E0,-9.056070447E-1,-6.356047988E-1,-6.443096399E-1
5.282888919E0,-8.487966061E-1,-3.271180987E-1,-6.400335431E-1
5.292888919E0,-7.547234297E-1,-2.412915789E-2,-5.679515004E-1
5.302888919E0,-6.698132157E-1,1.554650813E-1,-4.799869955E-1
5.312888919E0,-6.197223067E-1,1.951712966E-1,-3.926333487E-1
5.322888919E0,-6.301070452E-1,1.035415828E-1,-3.162752390E-1
5.332888919E0,-7.510582209E-1,-2.403752953E-1,-2.032652497E-1
5.342888919E0,-7.467821836E-1,-3.668242991E-1,-1.464548260E-1
5.352888919E0,-6.704241037E-1,-3.460549116E-1,-1.275180280E-1
5.362888919E0,-5.427533388E-1,-2.477056682E-1,-1.495091617E-1
5.372888919E0,-3.949240744E-1,-1.792888194E-1,-1.855501831E-1
5.382888919E0,-2.525925934E-1,-1.395826042E-1,-2.130390853E-1
5.392888919E0,-1.127045527E-1,-9.254601598E-2,-2.313650399E-1
5.402888919E0,7.177661359E-2,3.817904741E-2,-3.309359848E-1
5.412888919E0,9.621120244E-2,-1.041524485E-1,-4.030180275E-1
5.422888919E0,1.059850380E-1,-2.617555559E-1,-4.457785785E-1
5.432888919E0,1.285870373E-1,-3.765981495E-1,-4.427242577E-1
5.442888919E0,1.884517819E-1,-4.321868420E-1,-3.853029609E-1
5.452888919E0,2.855792940E-1,-4.016436040E-1,-2.771798968E-1
5.462888919E0,4.077522457E-1,-2.544251680E-1,-1.342375278E-1
5.472888919E0,6.563742161E-1,3.051269650E-1,1.870773435E-1
5.482888919E0,6.563742161E-1,3.051269650E-1,1.870773435E-1
5.492888919E0,6.563742161E-1,3.051269650E-1,1.870773435E-1
5.502888919E0,6.563742161E-1,3.051269650E-1,1.870773435E-1
5.512888919E0,6.918043494E-1,1.055268884E0,3.935496211E-1
5.522888919E0,6.734784245E-1,9.654718041E-1,3.294088244E-1
5.532888919E0,6.130027771E-1,7.266236544E-1,2.035706937E-1
5.542888919E0,6.130027771E-1,7.266236544E-1,2.035706937E-1
5.552888919E0,1.499672979E-1,-3.564395905E-1,-3.480401933E-1
5.562888919E0,-6.414080039E-3,-5.061014891E-1,-4.763218164E-1
5.572888919E0,-1.267544478E-1,-5.421425104E-1,-5.258018374E-1
5.582888919E0,-2.171624303E-1,-4.957167804E-1,-5.123628378E-1
5.592888919E0,-2.794706225E-1,-4.101957083E-1,-4.610501826E-1
5.602888919E0,-3.167333901E-1,-2.721402645E-1,-3.877464235E-1
5.612888919E0,-3.796524704E-1,-2.354883701E-1,-2.826776803E-1
5.622888919E0,-3.692677617E-1,-2.244928032E-1,-2.411388755E-1
5.632888919E0,-3.051269650E-1,-1.145371497E-1,-1.977674663E-1
5.642888919E0,-2.061668634E-1,2.107483521E-2,-1.488982886E-1
5.652888919E0,-1.010981202E-1,9.621120244E-2,-9.636391699E-2
5.662888919E0,-6.414080039E-3,9.987638891E-2,-4.138609022E-2
5.672888919E0,6.322450191E-2,5.955931544E-2,1.053741761E-2
5.682888919E0,4.184423760E-2,-1.084285006E-1,-2.901607659E-3
5.692888919E0,-6.566796452E-2,-2.947422564E-1,-5.726857483E-2
5.702888919E0,-1.994473487E-1,-4.706713259E-1,-9.758564830E-2
5.712888919E0,-2.868010104E-1,-5.305360556E-1,-7.620538026E-2
5.722888919E0,-2.855792940E-1,-4.132500291E-1,2.580903657E-2
5.732888919E0,-2.092211843E-1,-1.884517819E-1,1.968511790E-1
5.742888919E0,-7.727439702E-2,6.811141968E-2,3.911061883E-1
5.752888919E0,3.570504785E-1,6.911935210E-1,7.619010806E-1
5.762888919E0,5.897899270E-1,9.373720288E-1,9.054543376E-1
5.772888919E0,7.687733173E-1,8.952223063E-1,9.915862679E-1
5.782888919E0,8.426879644E-1,6.973021626E-1,9.946405888E-1
5.792888919E0,8.188642263E-1,4.181369543E-1,9.170607328E-1
5.802888919E0,7.498365045E-1,1.237001196E-1,7.765618563E-1
5.812888919E0,6.936369538E-1,-6.261363626E-2,5.914698243E-1
5.822888919E0,5.549706817E-1,-1.615737379E-1,1.711948514E-1
5.832888919E0,4.175260663E-1,-1.359174103E-1,2.703076601E-2
5.842888919E0,4.175260663E-1,-1.359174103E-1,2.703076601E-2
5.852888919E0,4.175260663E-1,-1.359174103E-1,2.703076601E-2
5.862888919E0,-1.884517819E-1,-6.566796452E-2,-1.678351015E-1
5.872888919E0,-3.808741868E-1,-4.428769648E-2,-2.002109289E-1
5.882888919E0,-5.238165259E-1,3.512472659E-2,-2.197586000E-1
5.892888919E0,-5.238165259E-1,3.512472659E-2,-2.197586000E-1
5.902888919E0,-5.238165259E-1,3.512472659E-2,-2.197586000E-1
5.912888919E0,-5.238165259E-1,3.512472659E-2,-2.197586000E-1
5.922888919E0,-5.238165259E-1,3.512472659E-2,-2.197586000E-1
5.932888919E0,-2.733619809E-1,6.887500286E-1,-2.484692484E-1
5.942888919E0,-2.287688553E-1,5.128209591E-1,-2.429714650E-1
5.952888919E0,-1.988364905E-1,3.130682111E-1,-2.209803313E-1
5.962888919E0,-1.988364905E-1,3.130682111E-1,-2.209803313E-1
5.972888919E0,-1.988364905E-1,3.130682111E-1,-2.209803313E-1
5.982888919E0,-1.988364905E-1,3.130682111E-1,-2.209803313E-1
5.992888919E0,-4.917461425E-2,2.165515572E-1,-7.803797722E-2
6.002888919E0,-2.779434808E-2,2.611446977E-1,-4.627300799E-2
6.012888919E0,-1.252272818E-2,2.605338395E-1,-3.527744114E-2
6.022888919E0,-6.414080039E-3,2.238819450E-1,-4.199695215E-2
6.032888919E0,-6.414080039E-3,2.238819450E-1,-4.199695215E-2
6.042888919E0,-6.414080039E-3,2.238819450E-1,-4.199695215E-2
6.052888919E0,-4.673115537E-2,3.747655451E-1,1.847865991E-2
6.062888919E0,-7.483093441E-2,4.065304995E-1,1.664606482E-2
6.072888919E0,-1.102610901E-1,3.558287323E-1,-1.069013379E-3
6.082888919E0,-1.456912458E-1,2.519817352E-1,-3.161225095E-2
6.092888919E0,-1.548542231E-1,1.511890292E-1,-6.826414168E-2
6.102888919E0,-1.548542231E-1,1.511890292E-1,-6.826414168E-2
6.112888919E0,9.315688163E-2,3.228420317E-1,7.345648855E-2
6.122888919E0,9.315688163E-2,3.228420317E-1,7.345648855E-2
6.132888919E0,4.663952589E-1,8.035926223E-1,3.312414289E-1
6.142888919E0,6.630937457E-1,1.063820958E0,3.953822255E-1
6.152888919E0,8.200859427E-1,1.197600365E0,4.149298966E-1
6.162888919E0,8.830050230E-1,1.106581569E0,3.813323379E-1
6.172888919E0,7.156280875E-1,4.040870368E-1,1.229365394E-1
6.182888919E0,5.427533388E-1,-2.412915789E-2,-9.025526792E-2
6.192888919E0,3.619373739E-1,-3.332267404E-1,-3.156643808E-1
6.202888919E0,1.817322671E-1,-4.425715208E-1,-5.062541962E-1
6.212888919E0,-1.435532235E-2,-4.908298552E-1,-6.223185062E-1
6.222888919E0,-2.202167511E-1,-5.537489057E-1,-6.614138484E-1
6.232888919E0,-5.384773016E-1,-6.185005903E-1,-7.322741747E-1
6.242888919E0,-5.384773016E-1,-6.185005903E-1,-7.322741747E-1
6.252888919E0,-5.195404887E-1,-4.963276386E-1,-8.355103135E-1
6.262888919E0,-3.882045746E-1,-4.065304995E-1,-8.245147467E-1
6.272888919E0,-2.018908113E-1,-3.613265157E-1,-7.664825916E-1
6.282888919E0,5.192350596E-3,-2.984074354E-1,-6.589703560E-1
6.292888919E0,2.220493406E-1,-1.475238502E-1,-5.050324798E-1
6.302888919E0,6.575959325E-1,2.611446977E-1,-1.989891976E-1
6.312888919E0,8.451313972E-1,4.126391709E-1,-5.971203372E-2
6.322888919E0,9.795216918E-1,5.732966065E-1,2.641990222E-2
6.332888919E0,1.051603675E0,5.928442478E-1,5.696314201E-2
6.342888919E0,1.014951825E0,3.002400398E-1,1.527161949E-4
6.352888919E0,8.109229803E-1,-2.825249732E-1,-1.470656991E-1
6.362888919E0,4.712821841E-1,-9.196569324E-1,-3.174969554E-1
6.372888919E0,-1.670715213E-1,-1.523802161E0,-4.237874448E-1
6.382888919E0,-3.313941360E-1,-1.447444081E0,-3.602575064E-1
6.392888919E0,-3.521635532E-1,-1.189659119E0,-2.496909797E-1
6.402888919E0,-2.892444730E-1,-8.891136646E-1,-1.030834317E-1
6.412888919E0,-1.652389169E-1,-5.861247778E-1,5.818486959E-2
6.422888919E0,-1.374445762E-2,-2.501491308E-1,2.157879770E-1
6.432888919E0,1.334739476E-1,5.528326333E-2,3.660607338E-1
6.442888919E0,4.150826037E-1,5.910117030E-1,5.658134818E-1
6.452888919E0,5.458076596E-1,7.736602426E-1,6.079631448E-1
6.462888919E0,6.411026120E-1,7.901535630E-1,6.091849208E-1
6.472888919E0,6.673697829E-1,6.227766275E-1,5.731438994E-1
6.482888919E0,6.117810607E-1,3.393353820E-1,5.016726851E-1
6.492888919E0,4.908298552E-1,2.412915789E-2,3.984365463E-1
6.502888919E0,3.368919194E-1,-2.525925934E-1,2.732092738E-1
6.512888919E0,3.368919194E-1,-2.525925934E-1,2.732092738E-1
6.522888919E0,3.368919194E-1,-2.525925934E-1,2.732092738E-1
6.532888919E0,3.368919194E-1,-2.525925934E-1,2.732092738E-1
6.542888919E0,3.368919194E-1,-2.525925934E-1,2.732092738E-1
6.552888919E0,-6.374374032E-1,-1.982256174E-1,-1.598938555E-1
6.562888919E0,-6.197223067E-1,3.207040206E-2,-1.275180280E-1
6.572888919E0,-5.268708467E-1,2.648098767E-1,-5.054906011E-2
6.582888919E0,-5.268708467E-1,2.648098767E-1,-5.054906011E-2
6.592888919E0,-5.268708467E-1,2.648098767E-1,-5.054906011E-2
6.602888919E0,-5.268708467E-1,2.648098767E-1,-5.054906011E-2
6.612888919E0,-5.268708467E-1,2.648098767E-1,-5.054906011E-2
6.622888919E0,2.025016695E-1,2.898553312E-1,2.787070572E-1
6.632888919E0,9.987638891E-2,-5.406153202E-2,1.192713454E-1
6.642888919E0,-7.910698652E-2,-3.796524704E-1,-1.000291109E-1
6.652888919E0,-7.910698652E-2,-3.796524704E-1,-1.000291109E-1
6.662888919E0,-7.910698652E-2,-3.796524704E-1,-1.000291109E-1
6.672888919E0,-7.910698652E-2,-3.796524704E-1,-1.000291109E-1
6.682888919E0,-7.516691089E-1,-1.988364905E-1,-4.531089365E-1
6.692888919E0,-6.875283122E-1,7.727439702E-2,-3.052796721E-1
6.702888919E0,-5.800161362E-1,3.387245238E-1,-1.226311028E-1
6.712888919E0,-4.260781705E-1,5.781835318E-1,6.551524997E-2
6.722888919E0,-4.260781705E-1,5.781835318E-1,6.551524997E-2
6.732888919E0,1.994473487E-1,8.781180978E-1,3.874409795E-1
6.742888919E0,4.004218578E-1,7.663298845E-1,3.788888752E-1
6.752888919E0,5.366446972E-1,5.989528894E-1,3.599520624E-1
6.762888919E0,6.075050235E-1,4.431824088E-1,3.428478539E-1
6.772888919E0,6.502655745E-1,3.656025827E-1,3.208567202E-1
6.782888919E0,6.893609166E-1,4.676169753E-1,2.939786613E-1
6.792888919E0,6.979129910E-1,1.076649189E0,1.400407553E-1
6.802888919E0,6.136136651E-1,1.286786675E0,6.001746282E-2
6.812888919E0,4.553996921E-1,1.368642569E0,1.237001177E-2
6.822888919E0,2.214384824E-1,1.208595991E0,-3.588830680E-2
6.832888919E0,-9.498947114E-2,7.993165851E-1,-1.342375278E-1
6.842888919E0,-4.407389462E-1,2.012799382E-1,-2.722929716E-1
6.852888919E0,-7.363975048E-1,-4.046979249E-1,-3.926333487E-1
6.862888919E0,-9.618065953E-1,-1.014951825E0,-6.180424690E-1
6.872888919E0,-9.428697824E-1,-1.077870846E0,-6.534726024E-1
6.882888919E0,-9.373720288E-1,-1.036942959E0,-5.758927464E-1
6.892888919E0,-9.532544613E-1,-8.463531733E-1,-4.470002949E-1
6.902888919E0,-9.624174833E-1,-6.142245531E-1,-3.309359848E-1
6.912888919E0,-9.465349913E-1,-3.484983444E-1,-2.136499584E-1
6.922888919E0,-9.019418359E-1,-1.524107605E-1,-8.414662629E-2
6.932888919E0,-6.838631034E-1,2.843575478E-1,1.237001177E-2
6.942888919E0,-5.219839811E-1,4.694495797E-1,6.261364091E-3
6.952888919E0,-3.552178741E-1,5.806269646E-1,2.764163166E-2
6.962888919E0,-1.970038861E-1,6.282744408E-1,8.750637621E-2
6.972888919E0,-5.589412898E-2,6.368265152E-1,1.644753367E-1
6.982888919E0,6.627883017E-2,6.588176489E-1,2.060141414E-1
6.992888919E0,1.414151937E-1,6.850848794E-1,1.705839932E-1
7.002888919E0,8.704823256E-2,7.589994669E-1,-1.317940801E-1
7.012888919E0,1.740964688E-2,8.359684348E-1,-2.838993967E-1
7.022888919E0,-2.229656465E-2,9.294307828E-1,-3.480401933E-1
7.032888919E0,-2.779434808E-2,1.081536055E0,-3.156643808E-1
7.042888919E0,-7.635809947E-3,1.222645879E0,-2.069304436E-1
7.052888919E0,4.673115537E-2,1.330158114E0,-6.459894776E-2
7.062888919E0,1.273653060E-1,1.423620343E0,5.329795182E-2
7.072888919E0,3.106247485E-1,1.653916359E0,6.979130208E-2
7.082888919E0,3.106247485E-1,1.653916359E0,6.979130208E-2
7.092888919E0,3.106247485E-1,1.653916359E0,6.979130208E-2
7.102888919E0,3.106247485E-1,1.653916359E0,6.979130208E-2
7.112888919E0,3.106247485E-1,1.653916359E0,6.979130208E-2
7.122888919E0,3.106247485E-1,1.653916359E0,6.979130208E-2
7.132888919E0,-3.827067912E-1,1.420566082E0,-3.572031856E-1
7.142888919E0,-3.827067912E-1,1.420566082E0,-3.572031856E-1
7.152888919E0,-3.827067912E-1,1.420566082E0,-3.572031856E-1
7.162888919E0,-3.827067912E-1,1.420566082E0,-3.572031856E-1
7.172888919E0,-3.827067912E-1,1.420566082E0,-3.572031856E-1
7.182888919E0,-9.178243279E-1,9.269872904E-1,-3.077231348E-1
7.192888919E0,-9.129374027E-1,7.070759535E-1,-2.472475171E-1
7.202888919E0,-9.098830819E-1,1.609628648E-1,-1.574503928E-1
7.212888919E0,-9.098830819E-1,1.609628648E-1,-1.574503928E-1
7.222888919E0,-9.098830819E-1,1.609628648E-1,-1.574503928E-1
7.232888919E0,-9.098830819E-1,1.609628648E-1,-1.574503928E-1
7.242888919E0,-3.729329407E-1,8.787289858E-1,-2.900080681E-1
7.252888919E0,-2.348775119E-1,8.335250020E-1,-1.684459597E-1
7.262888919E0,-1.072067693E-1,6.514872909E-1,-3.283398226E-2
7.272888919E0,-8.857538924E-3,3.607156575E-1,7.101303339E-2
7.282888919E0,-8.857538924E-3,3.607156575E-1,7.101303339E-2
7.292888919E0,-8.857538924E-3,3.607156575E-1,7.101303339E-2
7.302888919E0,-8.857538924E-3,3.607156575E-1,7.101303339E-2
7.312888919E0,-8.857538924E-3,3.607156575E-1,7.101303339E-2
7.322888919E0,9.987638891E-2,-1.856112599E0,3.436114267E-2
7.332888919E0,2.507599890E-1,-1.785863161E0,1.070540547E-1
7.342888919E0,3.820959330E-1,-1.558010578E0,2.078467458E-1
7.352888919E0,5.177078843E-1,-7.938187718E-1,4.014908671E-1
7.362888919E0,5.543597937E-1,-3.552178741E-1,4.570795596E-1
7.372888919E0,5.409207344E-1,-5.283980444E-2,4.802924395E-1
7.382888919E0,4.639517963E-1,1.679878123E-2,4.650208056E-1
7.392888919E0,3.161225319E-1,-1.609628648E-1,3.898844421E-1
7.402888919E0,1.127045527E-1,-4.780016840E-1,2.652680278E-1
7.412888919E0,-6.627883017E-2,-8.127555847E-1,1.290451884E-1
7.422888919E0,-1.560759544E-1,-1.392466307E0,3.985892609E-2
7.432888919E0,-1.151480079E-1,-1.319162488E0,1.528689116E-1
7.442888919E0,-3.940077871E-2,-1.111468434E0,3.550651670E-1
7.452888919E0,-1.313359290E-2,-8.512400985E-1,5.493201613E-1
7.462888919E0,-3.145953640E-2,-6.392700076E-1,7.063124180E-1
7.472888919E0,-7.055488229E-2,-4.957167804E-1,8.290961981E-1
7.482888919E0,-1.102610901E-1,-3.930914998E-1,9.048434496E-1
7.492888919E0,-1.163697392E-1,-2.782489061E-1,9.268345833E-1
7.502888919E0,-7.666353136E-2,-2.452622056E-1,8.797979951E-1
7.512888919E0,-1.496618707E-2,-1.988364905E-1,8.107702732E-1
7.522888919E0,6.688969582E-2,-1.169806048E-1,7.582359314E-1
7.532888919E0,1.774562150E-1,-2.046396956E-2,7.570141554E-1
7.542888919E0,2.825249732E-1,-3.054323897E-4,7.869465351E-1
7.552888919E0,3.307832778E-1,-1.744018942E-1,7.802270651E-1
7.562888919E0,3.307832778E-1,-1.744018942E-1,7.802270651E-1
7.572888919E0,3.307832778E-1,-1.744018942E-1,7.802270651E-1
7.582888919E0,3.307832778E-1,-1.744018942E-1,7.802270651E-1
7.592888919E0,3.307832778E-1,-1.744018942E-1,7.802270651E-1
7.602888919E0,2.412915789E-2,-1.682932526E-1,4.418079555E-1
7.612888919E0,-1.924224012E-2,1.682932526E-1,4.900662601E-1
7.622888919E0,-4.673115537E-2,4.780016840E-1,5.725330114E-1
7.632888919E0,-4.673115537E-2,4.780016840E-1,5.725330114E-1
7.642888919E0,-4.673115537E-2,4.780016840E-1,5.725330114E-1
7.652888919E0,-4.673115537E-2,4.780016840E-1,5.725330114E-1
7.662888919E0,5.222893879E-2,1.157894135E0,6.073523164E-1
7.672888919E0,-8.460476995E-2,1.224478483E0,2.310595959E-1
7.682888919E0,-3.375027776E-1,6.966912746E-1,-6.704241037E-2
7.692888919E0,-5.873464942E-1,1.182023361E-1,-2.967275679E-1
7.702888919E0,-5.873464942E-1,1.182023361E-1,-2.967275679E-1
7.712888919E0,-5.873464942E-1,1.182023361E-1,-2.967275679E-1
7.722888919E0,-5.873464942E-1,1.182023361E-1,-2.967275679E-1
7.732888919E0,-8.762855530E-1,-2.092211843E-1,-6.398808211E-2
7.742888919E0,-8.084795475E-1,-7.024944760E-3,3.802633286E-2
7.752888919E0,-7.412844300E-1,1.218675226E-1,9.605848789E-2
7.762888919E0,-6.960803866E-1,1.304196268E-1,7.345648855E-2
7.772888919E0,-6.960803866E-1,1.304196268E-1,7.345648855E-2
7.782888919E0,-6.960803866E-1,1.304196268E-1,7.345648855E-2
7.792888919E0,-8.640682101E-1,-2.159406990E-1,-6.229293346E-1
7.802888919E0,-8.842267394E-1,-2.098320574E-1,-7.066178322E-1
7.812888919E0,-8.842267394E-1,-2.098320574E-1,-7.066178322E-1
7.822888919E0,-7.852666974E-1,-2.229656465E-2,-4.934260249E-1
7.832888919E0,-6.771436334E-1,2.779434808E-2,-2.454149276E-1
7.842888919E0,-6.771436334E-1,2.779434808E-2,-2.454149276E-1
7.852888919E0,-3.820959330E-1,2.092211843E-1,2.939786613E-1
7.862888919E0,-3.784307241E-1,2.196058929E-1,2.457203567E-1
7.872888919E0,-3.869828284E-1,2.391535640E-1,1.113301069E-1
7.882888919E0,-3.704894781E-1,3.075704277E-1,-3.711003438E-2
7.892888919E0,-3.124573231E-1,4.266890585E-1,-1.415679157E-1
7.902888919E0,-2.275471240E-1,5.250383019E-1,-1.733328849E-1
7.912888919E0,-2.275471240E-1,5.250383019E-1,-1.733328849E-1
7.922888919E0,2.229656465E-2,4.908298552E-1,1.374445739E-3
7.932888919E0,6.750056148E-2,4.059196413E-1,-3.100138716E-2
7.942888919E0,7.422006875E-2,3.796524704E-1,-1.470656991E-1
7.952888919E0,1.863137633E-2,3.356702030E-1,-2.777907550E-1
7.962888919E0,-1.212566569E-1,2.104429156E-1,-3.865246773E-1
7.972888919E0,-3.167333901E-1,9.804379940E-2,-5.001455545E-1
7.982888919E0,-7.064651251E-1,-7.788526267E-2,-8.104648590E-1
7.992888919E0,-8.035926223E-1,-1.029307172E-1,-9.418007731E-1
8.002888919E0,-7.944296598E-1,-5.833758786E-2,-9.576832652E-1
8.012888919E0,-6.948586702E-1,3.756818548E-2,-8.538362384E-1
8.022888919E0,-5.476402640E-1,1.511890292E-1,-6.736311316E-1
8.032888919E0,-3.790415823E-1,2.965748608E-1,-4.427242577E-1
8.042888919E0,-2.232710719E-1,4.444041252E-1,-2.154825479E-1
8.052888919E0,1.527161920E-3,4.718930423E-1,1.449276656E-1
8.062888919E0,4.978547990E-2,4.059196413E-1,2.658788860E-1
8.072888919E0,5.955931544E-2,2.996291816E-1,3.367392123E-1
8.082888919E0,6.872228533E-2,1.689041108E-1,3.727802336E-1
8.092888919E0,1.047633067E-1,1.010981202E-1,3.611738086E-1
8.102888919E0,1.603520066E-1,1.023198515E-1,2.945895493E-1
8.112888919E0,2.128863782E-1,1.493564397E-1,2.096793354E-1
8.122888919E0,4.306596518E-2,1.401934624E-1,-3.711003438E-2
8.132888919E0,-1.298087686E-1,1.255327165E-1,-1.812741160E-1
8.142888919E0,-2.977965772E-1,6.933315098E-2,-3.150535226E-1
8.152888919E0,-4.163043499E-1,-2.168569900E-2,-4.207331240E-1
8.162888919E0,-4.480693042E-1,-1.163697392E-1,-4.867065251E-1
8.172888919E0,-3.967566788E-1,-2.177732885E-1,-5.105302334E-1
8.182888919E0,-3.039052188E-1,-3.472766280E-1,-4.683805704E-1
8.192888919E0,-3.039052188E-1,-3.472766280E-1,-4.683805704E-1
8.202888919E0,-3.039052188E-1,-3.472766280E-1,-4.683805704E-1
8.212888919E0,-3.039052188E-1,-3.472766280E-1,-4.683805704E-1
8.222888919E0,-3.039052188E-1,-3.472766280E-1,-4.683805704E-1
8.232888919E0,3.020726442E-1,-3.197877109E-1,2.744309902E-1
8.242888919E0,3.124573231E-1,-2.806923687E-1,2.567159235E-1
8.252888919E0,2.330449075E-1,-3.258963525E-1,2.121227980E-1
8.262888919E0,2.330449075E-1,-3.258963525E-1,2.121227980E-1
8.272888919E0,2.330449075E-1,-3.258963525E-1,2.121227980E-1
8.282888919E0,2.330449075E-1,-3.258963525E-1,2.121227980E-1
8.292888919E0,-2.806923687E-1,-4.639517963E-1,5.268708616E-2
8.302888919E0,-2.813032269E-1,-4.773908257E-1,5.268708616E-2
8.312888919E0,-2.501491308E-1,-5.097666383E-1,3.863719851E-2
8.322888919E0,-1.951712966E-1,-5.519163013E-1,-5.345067009E-3
8.332888919E0,-1.951712966E-1,-5.519163013E-1,-5.345067009E-3
8.342888919E0,-1.951712966E-1,-5.519163013E-1,-5.345067009E-3
8.352888919E0,4.489856213E-2,-7.382301092E-1,-2.441931963E-1
8.362888919E0,1.713475734E-1,-6.966912746E-1,-2.246455252E-1
8.372888919E0,3.069595397E-1,-6.026180983E-1,-1.922696829E-1
8.382888919E0,3.069595397E-1,-6.026180983E-1,-1.922696829E-1
8.392888919E0,5.586358309E-1,-3.478874862E-1,-1.244636998E-1
8.402888919E0,5.586358309E-1,-3.478874862E-1,-1.244636998E-1
8.412888919E0,8.042035103E-1,-1.102610901E-1,2.764163166E-2
8.422888919E0,8.017600179E-1,-6.322450191E-2,4.046979174E-2
8.432888919E0,7.412844300E-1,-7.360920310E-2,8.704823442E-3
8.442888919E0,6.392700076E-1,-1.860083193E-1,-5.360338464E-2
8.452888919E0,5.384773016E-1,-3.900371492E-1,-1.244636998E-1
8.462888919E0,4.749473631E-1,-6.447677612E-1,-1.837175786E-1
8.472888919E0,4.749473631E-1,-6.447677612E-1,-1.837175786E-1
8.482888919E0,5.775726438E-1,-1.375972867E0,-2.069304436E-1
8.492888919E0,5.775726438E-1,-1.375972867E0,-2.069304436E-1
8.502888919E0,6.801979542E-1,-1.587942958E0,-1.165224537E-1
8.512888919E0,7.021890879E-1,-1.581834316E0,-5.971203372E-2
8.522888919E0,7.150171995E-1,-1.531132579E0,-5.955931731E-3
8.532888919E0,7.308996916E-1,-1.468824387E0,4.596757516E-2
8.542888919E0,8.048143387E-1,-1.258686900E0,1.699731201E-1
8.552888919E0,8.695660233E-1,-1.122464061E0,2.475529462E-1
8.562888919E0,9.459241033E-1,-9.972367287E-1,2.939786613E-1
8.572888919E0,1.011286616E0,-8.903354406E-1,2.719875574E-1
8.582888919E0,1.053436279E0,-8.005383015E-1,1.876882017E-1
8.592888919E0,1.068707943E0,-7.046325207E-1,7.895427197E-2
8.602888919E0,1.052214622E0,-5.928442478E-1,-2.428187430E-2
8.612888919E0,9.477567077E-1,-3.765981495E-1,-1.299614757E-1
8.622888919E0,8.817833066E-1,-3.149007857E-1,-1.098029464E-1
8.632888919E0,8.164207935E-1,-2.843575478E-1,-4.444041103E-2
8.642888919E0,7.541125417E-1,-2.690859437E-1,6.123919412E-2
8.652888919E0,7.021890879E-1,-2.739728391E-1,1.901316643E-1
8.662888919E0,6.673697829E-1,-2.880227566E-1,3.141372204E-1
8.672888919E0,6.484329700E-1,-2.886336148E-1,4.082103968E-1
8.682888919E0,6.466003656E-1,-1.640172005E-1,4.589121640E-1
8.692888919E0,6.435460448E-1,-1.069013402E-2,4.204276800E-1
8.702888919E0,6.258309484E-1,1.695149690E-1,3.520108163E-1
8.712888919E0,5.849030018E-1,3.356702030E-1,2.701549530E-1
8.722888919E0,5.177078843E-1,4.358520210E-1,1.876882017E-1
8.732888919E0,4.285216331E-1,4.126391709E-1,1.125518382E-1
8.742888919E0,3.271180987E-1,2.422078848E-1,4.902189970E-2
8.752888919E0,1.096502244E-1,-3.625482321E-1,-5.421425030E-2
8.762888919E0,1.374445762E-2,-6.417134404E-1,-9.514218569E-2
8.772888919E0,-5.955931544E-2,-8.048143387E-1,-1.214093715E-1
8.782888919E0,-9.376774728E-2,-8.188642263E-1,-1.275180280E-1
8.792888919E0,-1.084285006E-1,-7.712168097E-1,-1.049160287E-1
8.802888919E0,-1.139262840E-1,-7.119628787E-1,-7.498364896E-2
8.812888919E0,-1.169806048E-1,-6.398808360E-1,-5.299251899E-2
8.822888919E0,-1.169806048E-1,-6.398808360E-1,-5.299251899E-2
8.832888919E0,-1.169806048E-1,-6.398808360E-1,-5.299251899E-2
8.842888919E0,-1.169806048E-1,-6.398808360E-1,-5.299251899E-2
8.852888919E0,-1.365282834E-1,-1.023198515E-1,2.336557768E-2
8.862888919E0,-1.365282834E-1,-1.023198515E-1,2.336557768E-2
8.872888919E0,-1.078176349E-1,6.994401664E-2,6.872228812E-3
8.882888919E0,-1.065959036E-1,1.053741723E-1,-1.817322709E-2
8.892888919E0,-1.065959036E-1,1.053741723E-1,-1.817322709E-2
8.902888919E0,-1.065959036E-1,1.053741723E-1,-1.817322709E-2
8.912888919E0,-1.065959036E-1,1.053741723E-1,-1.817322709E-2
8.922888919E0,3.207040206E-2,-1.572976857E-1,3.817904973E-3
8.932888919E0,9.315688163E-2,-2.031125426E-1,7.483093534E-3
8.942888919E0,1.438586563E-1,-2.684750557E-1,3.207040019E-3
8.952888919E0,1.756236255E-1,-3.283398151E-1,-1.450803876E-2
8.962888919E0,2.202167511E-1,-3.973675370E-1,-8.597921580E-2
8.972888919E0,2.379318327E-1,-3.814850450E-1,-1.122464016E-1
8.982888919E0,2.629773021E-1,-2.837466896E-1,-1.293506175E-1
8.992888919E0,3.100138903E-1,-9.315688163E-2,-1.348484010E-1
9.002888919E0,3.613265157E-1,1.291978955E-1,-1.153007299E-1
9.012888919E0,4.156934917E-1,3.387245238E-1,-7.620538026E-2
9.022888919E0,4.566214085E-1,4.706713259E-1,-2.794706449E-2
9.032888919E0,3.918697536E-1,4.077522457E-1,2.031125315E-2
9.042888919E0,2.690859437E-1,2.916879356E-1,-2.122755162E-2
9.052888919E0,9.132428467E-2,1.530216336E-1,-9.330959618E-2
9.062888919E0,-1.212566569E-1,1.374445762E-2,-1.721111536E-1
9.072888919E0,-3.265072107E-1,-7.360920310E-2,-2.509126961E-1
9.082888919E0,-4.792234302E-1,-7.299833745E-2,-3.339903057E-1
9.092888919E0,-5.745183229E-1,-3.573558852E-2,-3.969093859E-1
9.102888919E0,-6.227766275E-1,5.803215317E-3,-3.865246773E-1
9.112888919E0,-5.855138898E-1,9.468403645E-3,-3.138317764E-1
9.122888919E0,-5.354229808E-1,-1.527161920E-3,-2.026543915E-1
9.132888919E0,-4.737256467E-1,1.924224012E-2,-6.520981342E-2
9.142888919E0,-4.022544622E-1,1.078176349E-1,6.673697382E-2
9.152888919E0,-3.258963525E-1,2.654207349E-1,1.663079411E-1
9.162888919E0,-2.489273995E-1,4.688387215E-1,2.170097083E-1
9.172888919E0,-1.340848207E-1,7.938187718E-1,1.382081509E-1
9.182888919E0,-1.652389169E-1,7.412844300E-1,4.841103405E-2
9.192888919E0,-1.652389169E-1,7.412844300E-1,4.841103405E-2
9.202888919E0,-1.652389169E-1,7.412844300E-1,4.841103405E-2
9.212888919E0,-4.022544622E-1,2.153298408E-1,-1.635590494E-1
9.222888919E0,-3.558287323E-1,1.481347084E-1,-1.843284518E-1
9.232888919E0,-2.837466896E-1,1.017089859E-1,-1.507308781E-1
9.242888919E0,-2.837466896E-1,1.017089859E-1,-1.507308781E-1
9.252888919E0,-2.837466896E-1,1.017089859E-1,-1.507308781E-1
9.262888919E0,-2.837466896E-1,1.017089859E-1,-1.507308781E-1
9.272888919E0,4.550942779E-2,5.720748901E-1,1.779143661E-1
9.282888919E0,3.573558852E-2,5.568032265E-1,1.418733448E-1
9.292888919E0,-4.184423760E-2,4.541779757E-1,9.972367436E-2
9.302888919E0,-4.184423760E-2,4.541779757E-1,9.972367436E-2
9.312888919E0,-4.184423760E-2,4.541779757E-1,9.972367436E-2
9.322888919E0,-4.184423760E-2,4.541779757E-1,9.972367436E-2
9.332888919E0,-3.924806118E-1,4.553996921E-1,-9.208786488E-2
9.342888919E0,-4.780016840E-1,4.511236250E-1,-8.414662629E-2
9.352888919E0,-4.780016840E-1,4.511236250E-1,-8.414662629E-2
9.362888919E0,-6.655371785E-1,3.808741868E-1,-9.025526792E-2
9.372888919E0,-6.655371785E-1,3.808741868E-1,-9.025526792E-2
9.382888919E0,-6.655371785E-1,3.808741868E-1,-9.025526792E-2
9.392888919E0,-6.655371785E-1,3.808741868E-1,-9.025526792E-2
9.402888919E0,-6.478220820E-1,5.152644515E-1,1.481347065E-2
9.412888919E0,-5.983420610E-1,5.855138898E-1,1.542433538E-2
9.422888919E0,-5.458076596E-1,6.539307237E-1,-1.511890348E-2
9.432888919E0,-4.957167804E-1,7.046325207E-1,-7.742711157E-2
9.442888919E0,-4.957167804E-1,7.046325207E-1,-7.742711157E-2
9.452888919E0,-4.578431547E-1,8.756746650E-1,-3.681987524E-1
9.462888919E0,-5.073232055E-1,1.039997339E0,-4.524980783E-1
9.472888919E0,-5.671879649E-1,1.242193580E0,-4.909825623E-1
9.482888919E0,-6.343830824E-1,1.373529434E0,-5.099193454E-1
9.492888919E0,-7.076868415E-1,1.296560526E0,-5.001455545E-1
9.502888919E0,-7.987056971E-1,9.673043489E-1,-4.518872201E-1
9.512888919E0,-7.987056971E-1,9.673043489E-1,-4.518872201E-1
9.522888919E0,-1.005177975E0,8.451313972E-1,-1.574503928E-1
9.532888919E0,-1.034499526E0,9.117156863E-1,-6.765327603E-2
9.542888919E0,-1.048549414E0,9.324851036E-1,5.039634649E-3
9.552888919E0,-1.060766697E0,8.713986278E-1,5.696314201E-2
9.562888919E0,-1.074205756E0,7.076868415E-1,7.773254067E-2
9.572888919E0,-1.085201263E0,4.737256467E-1,6.551524997E-2
9.582888919E0,-1.050382018E0,5.955931544E-2,6.872228812E-3
9.592888919E0,-1.000291109E0,-5.803215317E-3,-1.206457894E-2
9.602888919E0,-9.416480660E-1,2.657261863E-2,-2.183841541E-2
9.612888919E0,-8.854485154E-1,8.582650125E-2,-1.634063199E-2
9.622888919E0,-8.365793228E-1,1.316413581E-1,8.704823442E-3
9.632888919E0,-7.883210182E-1,1.511890292E-1,5.085449293E-2
9.642888919E0,-7.345649004E-1,1.255327165E-1,1.027780026E-1
9.652888919E0,-6.081159115E-1,-3.145953640E-2,1.852447391E-1
9.662888919E0,-5.287034512E-1,-1.194240674E-1,2.047924101E-1
9.672888919E0,-4.260781705E-1,-1.627954692E-1,2.212857604E-1
9.682888919E0,-3.173442483E-1,-1.548542231E-1,2.292270064E-1
9.692888919E0,-2.110537887E-1,-1.304196268E-1,2.316704690E-1
9.702888919E0,-1.212566569E-1,-9.621120244E-2,2.359465212E-1
9.712888919E0,-5.955931544E-2,-7.788526267E-2,2.188423127E-1
9.722888919E0,-5.955931544E-2,-7.788526267E-2,2.188423127E-1
9.732888919E0,-5.955931544E-2,-7.788526267E-2,2.188423127E-1
9.742888919E0,-5.955931544E-2,-7.788526267E-2,2.188423127E-1
9.752888919E0,-5.955931544E-2,-7.788526267E-2,2.188423127E-1
9.762888919E0,-5.955931544E-2,-7.788526267E-2,2.188423127E-1
9.772888919E0,-8.206968307E-1,-6.435460448E-1,-1.696676910E-1
9.782888919E0,-8.353576064E-1,-4.792234302E-1,-1.458439678E-1
9.792888919E0,-8.353576064E-1,-4.792234302E-1,-1.458439678E-1
9.802888919E0,-8.353576064E-1,-4.792234302E-1,-1.458439678E-1
9.812888919E0,-8.353576064E-1,-4.792234302E-1,-1.458439678E-1
9.822888919E0,-2.721402645E-1,1.450803876E-1,2.628245652E-1
9.832888919E0,-1.737910360E-1,1.536324918E-1,3.483456373E-1
9.842888919E0,-1.279761642E-1,3.817904741E-2,3.807214797E-1
9.852888919E0,-1.316413581E-1,-2.061668634E-1,3.220784664E-1
9.862888919E0,-1.316413581E-1,-2.061668634E-1,3.220784664E-1
9.872888919E0,-1.316413581E-1,-2.061668634E-1,3.220784664E-1
9.882888919E0,-1.316413581E-1,-2.061668634E-1,3.220784664E-1
9.892888919E0,9.315688163E-2,-6.514872909E-1,2.072358727E-1
9.902888919E0,2.073885947E-1,-4.731147587E-1,2.738201320E-1
9.912888919E0,3.063486814E-1,-2.929096520E-1,3.361283541E-1
9.922888919E0,3.753764033E-1,-1.365282834E-1,3.776671588E-1
9.932888919E0,3.753764033E-1,-1.365282834E-1,3.776671588E-1
9.942888919E0,3.753764033E-1,-1.365282834E-1,3.776671588E-1
9.952888919E0,3.106247485E-1,-2.153298408E-1,1.791360974E-1
9.962888919E0,2.910770774E-1,-2.641990185E-1,1.467602700E-1
9.972888919E0,2.819140851E-1,-2.916879356E-1,1.479819864E-1
9.982888919E0,2.635881603E-1,-3.026835024E-1,1.669187993E-1
9.992888919E0,2.116646469E-1,-2.831358314E-1,1.828012913E-1
1.000288892E1,2.116646469E-1,-2.831358314E-1,1.828012913E-1
1.001288892E1,-4.062250629E-2,-5.079340935E-1,1.870773435E-1
1.002288892E1,-6.994401664E-2,-5.702422857E-1,1.968511790E-1
1.003288892E1,-4.245510325E-2,-5.482511520E-1,2.054032832E-1
1.004288892E1,2.107483521E-2,-4.688387215E-1,2.047924101E-1
1.005288892E1,1.029307172E-1,-3.643808365E-1,2.133445293E-1
1.006288892E1,2.061668634E-1,-2.006690800E-1,2.719875574E-1
1.007288892E1,2.061668634E-1,-2.006690800E-1,2.719875574E-1
1.008288892E1,6.203331947E-1,4.291325212E-1,7.301361561E-1
1.009288892E1,7.418952584E-1,7.223476171E-1,8.743002415E-1
1.010288892E1,8.329141140E-1,9.782999158E-1,9.640973210E-1
1.011288892E1,8.994984031E-1,1.118798852E0,1.006857872E0
1.012288892E1,9.092722535E-1,1.000291109E0,9.805907011E-1
1.013288892E1,8.402445316E-1,7.541125417E-1,8.761327863E-1
1.014288892E1,5.421425104E-1,1.701258421E-1,4.674642682E-1
1.015288892E1,3.503309488E-1,-4.917461425E-2,2.182314396E-1
1.016288892E1,1.689041108E-1,-1.456912458E-1,-1.572976820E-2
1.017288892E1,6.200277433E-2,-1.346956789E-1,-1.782197952E-1
1.018288892E1,2.290742844E-2,-1.133154184E-1,-2.258672565E-1
1.019288892E1,3.268126398E-2,-1.127045527E-1,-1.916588247E-1
1.020288892E1,7.483093441E-2,-1.200349256E-1,-1.122464016E-1
1.021288892E1,3.940077871E-2,-2.067777216E-1,-2.916879393E-2
1.022288892E1,-5.955931544E-2,-2.440404743E-1,-1.140789986E-1
1.023288892E1,-1.634063274E-1,-2.617555559E-1,-2.747364342E-1
1.024288892E1,-2.293797284E-1,-2.678641975E-1,-4.506655037E-1
1.025288892E1,-2.360992432E-1,-2.751945853E-1,-5.832231641E-1
1.026288892E1,-1.817322671E-1,-3.167333901E-1,-6.473639607E-1
1.027288892E1,-7.483093441E-2,-3.723220825E-1,-6.424770355E-1
1.028288892E1,2.354883701E-1,-3.973675370E-1,-4.885390997E-1
1.029288892E1,2.354883701E-1,-3.973675370E-1,-4.885390997E-1
1.030288892E1,2.354883701E-1,-3.973675370E-1,-4.885390997E-1
1.031288892E1,2.354883701E-1,-3.973675370E-1,-4.885390997E-1
1.032288892E1,2.354883701E-1,-3.973675370E-1,-4.885390997E-1
1.033288892E1,3.857611120E-1,-6.276635528E-1,-3.413206935E-1
1.034288892E1,3.582721949E-1,-6.001746655E-1,-3.474293351E-1
1.035288892E1,3.582721949E-1,-6.001746655E-1,-3.474293351E-1
1.036288892E1,3.582721949E-1,-6.001746655E-1,-3.474293351E-1
1.037288892E1,3.582721949E-1,-6.001746655E-1,-3.474293351E-1
1.038288892E1,7.394518256E-1,4.673115537E-2,-2.490801066E-1
1.039288892E1,6.466003656E-1,9.010255337E-2,-2.906189263E-1
1.040288892E1,4.511236250E-1,4.428769648E-2,-3.828594983E-1
1.041288892E1,1.970038861E-1,-5.039634556E-2,-5.099193454E-1
1.042288892E1,1.970038861E-1,-5.039634556E-2,-5.099193454E-1
1.043288892E1,1.970038861E-1,-5.039634556E-2,-5.099193454E-1
1.044288892E1,1.970038861E-1,-5.039634556E-2,-5.099193454E-1
1.045288892E1,-2.678641975E-1,-6.838631034E-1,-1.079856157E0
1.046288892E1,-2.122755051E-1,-7.614429593E-1,-1.065195441E0
1.047288892E1,-1.395826042E-1,-7.870992422E-1,-9.845613241E-1
1.048288892E1,-4.367683083E-2,-7.809906006E-1,-8.520036340E-1
1.049288892E1,-4.367683083E-2,-7.809906006E-1,-8.520036340E-1
1.050288892E1,3.796524704E-1,-6.062833071E-1,-3.981311321E-1
1.051288892E1,5.335903764E-1,-4.749473631E-1,-3.095557392E-1
1.052288892E1,6.637045741E-1,-3.436114490E-1,-2.619082630E-1
1.053288892E1,7.596103549E-1,-2.538143098E-1,-2.503018379E-1
1.054288892E1,8.090903759E-1,-2.061668634E-1,-2.564104795E-1
1.055288892E1,8.139773011E-1,-2.208276242E-1,-2.631300092E-1
1.056288892E1,8.139773011E-1,-2.208276242E-1,-2.631300092E-1
1.057288892E1,7.308996916E-1,-6.032289863E-1,-2.081521749E-1
1.058288892E1,7.370083332E-1,-6.569850445E-1,-1.653916389E-1
1.059288892E1,7.968730927E-1,-6.185005903E-1,-1.067486182E-1
1.060288892E1,9.062178731E-1,-5.152644515E-1,-3.039052337E-2
1.061288892E1,1.041218996E0,-3.484983444E-1,4.535670951E-2
1.062288892E1,1.167667985E0,-1.243109852E-1,9.178243577E-2
1.063288892E1,1.341764450E0,3.032943606E-1,1.186604798E-1
1.064288892E1,1.364366531E0,4.321868420E-1,1.308777779E-1
1.065288892E1,1.332601547E0,5.189296007E-1,1.320995092E-1
1.066288892E1,1.254410863E0,5.513054729E-1,1.192713454E-1
1.067288892E1,1.138957381E0,5.219839811E-1,1.021671370E-1
1.068288892E1,9.990693331E-1,4.474584460E-1,8.506292105E-2
1.069288892E1,8.475748897E-1,3.405571282E-1,6.856957078E-2
1.070288892E1,5.158752799E-1,1.114828214E-1,2.825249545E-2
1.071288892E1,3.503309488E-1,1.130099874E-2,1.237001177E-2
1.072288892E1,1.982256174E-1,-4.428769648E-2,-6.566796452E-3
1.073288892E1,6.017018110E-2,-4.245510325E-2,-3.588830680E-2
1.074288892E1,-6.383536756E-2,2.138026757E-3,-7.620538026E-2
1.074288892E1,6.017018110E-2,-4.245510325E-2,-7.620538026E-2
1.076288892E1,-2.360992432E-1,1.395826042E-1,-1.580612659E-1
1.077288892E1,-2.360992432E-1,1.395826042E-1,-1.580612659E-1
1.078288892E1,-2.360992432E-1,1.395826042E-1,-1.580612659E-1
1.079288892E1,-2.360992432E-1,1.395826042E-1,-1.580612659E-1
1.080288892E1,-3.613265157E-1,7.360920310E-2,-2.655734718E-1
1.081288892E1,-3.588830531E-1,3.634645417E-2,-2.454149276E-1
1.082288892E1,-3.576613367E-1,1.863137633E-2,-2.234237939E-1
1.083288892E1,-3.607156575E-1,7.024944760E-3,-2.099847645E-1
1.084288892E1,-3.607156575E-1,7.024944760E-3,-2.099847645E-1
1.085288892E1,-3.607156575E-1,7.024944760E-3,-2.099847645E-1
1.086288892E1,-2.831358314E-1,-1.866191924E-1,-1.324049383E-1
1.087288892E1,-2.031125426E-1,-1.927278340E-1,-7.925970852E-2
1.088288892E1,-9.926552325E-2,-1.664606482E-1,-9.621120058E-3
1.089288892E1,1.374445762E-2,-1.108719558E-1,6.307178736E-2
1.090288892E1,1.169806048E-1,-6.627883017E-2,1.204930767E-1
1.091288892E1,1.169806048E-1,-6.627883017E-2,1.204930767E-1
1.092288892E1,1.664606482E-1,-3.185659945E-1,7.773254067E-2
1.093288892E1,1.664606482E-1,-3.185659945E-1,7.773254067E-2
1.094288892E1,5.039634556E-2,-5.653553605E-1,-4.871646687E-2
1.095288892E1,2.046396956E-2,-6.392700076E-1,-7.803797722E-2
1.096288892E1,2.840521187E-2,-6.484329700E-1,-6.093376130E-2
1.097288892E1,6.811141968E-2,-5.830704570E-1,-4.123337101E-3
1.098288892E1,6.811141968E-2,-5.830704570E-1,-4.123337101E-3
1.099288892E1,2.122755051E-1,-4.059196413E-1,2.390008420E-1
1.100288892E1,2.232710719E-1,-4.218021333E-1,2.952004075E-1
1.101288892E1,2.251036763E-1,-4.132500291E-1,3.452913165E-1
1.102288892E1,2.312123179E-1,-3.692677617E-1,3.947713673E-1
1.103288892E1,2.360992432E-1,-3.026835024E-1,4.381427765E-1
1.104288892E1,2.422078848E-1,-2.287688553E-1,4.747946560E-1
1.105288892E1,2.544251680E-1,-1.450803876E-1,5.047270060E-1
1.106288892E1,2.562577724E-1,-1.676823795E-1,4.857902229E-1
1.107288892E1,2.629773021E-1,-2.122755051E-1,4.552469850E-1
1.108288892E1,2.800815105E-1,-2.599229515E-1,4.210385382E-1
1.109288892E1,3.020726442E-1,-2.849684060E-1,3.843866587E-1
1.110288892E1,3.252854943E-1,-2.751945853E-1,3.428478539E-1
1.111288892E1,3.375027776E-1,-2.422078848E-1,2.890917659E-1
1.112288892E1,3.307832778E-1,-2.177732885E-1,1.632536054E-1
1.113288892E1,3.094030023E-1,-2.489273995E-1,1.052214578E-1
1.114288892E1,2.751945853E-1,-3.026835024E-1,6.429351866E-2
1.115288892E1,2.403752953E-1,-3.649916947E-1,5.513054505E-2
1.116288892E1,2.141081095E-1,-4.059196413E-1,8.323032409E-2
1.117288892E1,1.988364905E-1,-4.101957083E-1,1.333212405E-1
1.118288892E1,1.872300506E-1,-3.833176494E-1,1.846338809E-1
1.119288892E1,1.872300506E-1,-3.833176494E-1,1.846338809E-1
1.120288892E1,1.872300506E-1,-3.833176494E-1,1.846338809E-1
1.121288892E1,1.872300506E-1,-3.833176494E-1,1.846338809E-1
1.122288892E1,1.872300506E-1,-3.833176494E-1,1.846338809E-1
1.123288892E1,-3.451386094E-2,-3.332267404E-1,1.547015011E-1
1.124288892E1,-1.065959036E-1,-3.741546869E-1,1.516471803E-1
1.125288892E1,-1.615737379E-1,-3.802633286E-1,1.815795600E-1
1.126288892E1,-1.615737379E-1,-3.802633286E-1,1.815795600E-1
1.127288892E1,-1.615737379E-1,-3.802633286E-1,1.815795600E-1
1.128288892E1,-1.200349256E-1,-3.668242991E-1,3.636172712E-1
1.129288892E1,-6.383536756E-2,-3.894262910E-1,3.459021747E-1
1.130288892E1,-8.857538924E-3,-3.717112243E-1,2.958112657E-1
1.131288892E1,4.062250629E-2,-3.295615613E-1,2.176205814E-1
1.132288892E1,7.910698652E-2,-2.819140851E-1,1.204930767E-1
1.133288892E1,7.910698652E-2,-2.819140851E-1,1.204930767E-1
1.134288892E1,1.273653060E-1,-7.116574794E-2,-1.440113783E-1
1.135288892E1,1.249218509E-1,-3.878991306E-2,-1.947131455E-1
1.136288892E1,1.139262840E-1,-7.788526267E-2,-2.276998460E-1
1.137288892E1,9.682206810E-2,-1.750127524E-1,-2.466366589E-1
1.138288892E1,6.994401664E-2,-2.843575478E-1,-2.582430840E-1
1.139288892E1,3.390299529E-2,-3.759872615E-1,-2.625191510E-1
1.140288892E1,-3.145953640E-2,-4.431824088E-1,-2.551887631E-1
1.141288892E1,-3.145953640E-2,-4.431824088E-1,-2.551887631E-1
1.142288892E1,-7.422006875E-2,-4.279107749E-1,-2.625191510E-1
1.143288892E1,-8.399390429E-2,-4.083631039E-1,-2.814559340E-1
1.144288892E1,-8.888082206E-2,-3.796524704E-1,-2.973384261E-1
1.145288892E1,-7.666353136E-2,-3.295615613E-1,-2.985601723E-1
1.146288892E1,-4.367683083E-2,-2.452622056E-1,-2.716821134E-1
1.147288892E1,8.277218044E-2,1.435532235E-2,-1.629481763E-1
1.148288892E1,1.554650813E-1,1.511890292E-1,-1.256854236E-1
1.149288892E1,2.403752953E-1,2.470948100E-1,-8.842267841E-2
1.150288892E1,2.403752953E-1,2.470948100E-1,-8.842267841E-2
1.151288892E1,3.937023580E-1,3.662134409E-1,-5.726857483E-2
1.152288892E1,3.937023580E-1,3.662134409E-1,-5.726857483E-2
1.153288892E1,4.547888339E-1,2.012799382E-1,-1.635590494E-1
1.154288892E1,4.547888339E-1,2.012799382E-1,-1.635590494E-1
1.155288892E1,4.547888339E-1,2.012799382E-1,-1.635590494E-1
1.156288892E1,4.547888339E-1,2.012799382E-1,-1.635590494E-1
1.157288892E1,2.599229515E-1,1.285870373E-1,-3.877464235E-1
1.158288892E1,2.599229515E-1,1.285870373E-1,-3.877464235E-1
1.159288892E1,1.004872546E-1,1.615737379E-1,-4.017963111E-1
1.160288892E1,2.351829410E-2,1.524107605E-1,-3.614792228E-1
1.161288892E1,2.351829410E-2,1.524107605E-1,-3.614792228E-1
1.162288892E1,-1.304196268E-1,2.257145345E-1,-9.514218569E-2
1.163288892E1,-1.517999023E-1,2.751945853E-1,-1.572976820E-2
1.164288892E1,-1.634063274E-1,3.362810612E-1,2.641990222E-2
1.165288892E1,-1.731801629E-1,3.869828284E-1,2.886336111E-2
1.166288892E1,-1.817322671E-1,4.046979249E-1,6.872228812E-3
1.167288892E1,-1.963930279E-1,3.992001414E-1,-2.428187430E-2
1.168288892E1,-1.963930279E-1,3.992001414E-1,-2.428187430E-2
1.169288892E1,-2.868010104E-1,2.196058929E-1,-1.421787739E-1
1.170288892E1,-3.228420317E-1,9.498947114E-2,-1.647807807E-1
1.171288892E1,-3.503309488E-1,-1.740964688E-2,-1.629481763E-1
1.172288892E1,-3.601047993E-1,-7.727439702E-2,-1.385135949E-1
1.173288892E1,-3.484983444E-1,-7.544180006E-2,-9.575305134E-2
1.174288892E1,-3.228420317E-1,-9.468403645E-3,-5.115992576E-2
1.175288892E1,-2.452622056E-1,2.379318327E-1,4.108065739E-2
1.176288892E1,-1.908952445E-1,3.759872615E-1,8.872810751E-2
1.177288892E1,-1.377500147E-1,4.786125422E-1,1.253799945E-1
1.178288892E1,-8.949168772E-2,5.183187723E-1,1.412624866E-1
1.179288892E1,-4.734202102E-2,5.085449219E-1,1.443168074E-1
1.180288892E1,-6.414080039E-3,4.694495797E-1,1.449276656E-1
1.181288892E1,3.145953640E-2,4.340194166E-1,1.467602700E-1
1.182288892E1,1.120936871E-1,4.126391709E-1,1.589775532E-1
1.183288892E1,1.603520066E-1,4.230238497E-1,1.711948514E-1
1.184288892E1,2.067777216E-1,4.566214085E-1,1.828012913E-1
1.185288892E1,2.452622056E-1,5.164861679E-1,1.919642538E-1
1.186288892E1,2.727511227E-1,5.775726438E-1,2.023489624E-1
1.187288892E1,2.880227566E-1,6.215549111E-1,2.096793354E-1
1.188288892E1,2.831358314E-1,6.508764029E-1,2.047924101E-1
1.189288892E1,2.079994529E-1,6.398808360E-1,1.656970680E-1
1.190288892E1,1.420260668E-1,5.714640021E-1,1.345429718E-1
1.191288892E1,5.406153202E-2,4.419606626E-1,8.933897316E-2
1.192288892E1,-4.978547990E-2,2.525925934E-1,3.558287397E-2
1.193288892E1,-1.695149690E-1,1.557705179E-2,-2.306014486E-2
1.194288892E1,-2.947422564E-1,-2.452622056E-1,-7.620538026E-2
1.195288892E1,-4.181369543E-1,-4.853320718E-1,-1.189659163E-1
1.196288892E1,-4.181369543E-1,-4.853320718E-1,-1.189659163E-1
1.197288892E1,-4.181369543E-1,-4.853320718E-1,-1.189659163E-1
1.198288892E1,-4.181369543E-1,-4.853320718E-1,-1.189659163E-1
1.199288892E1,-6.032289863E-1,-2.025016695E-1,1.375972927E-1
1.200288892E1,-5.232056975E-1,8.277218044E-2,2.677114904E-1
1.201288892E1,-4.260781705E-1,3.216203153E-1,3.831649423E-1
1.202288892E1,-3.375027776E-1,4.725039005E-1,4.485274553E-1
1.203288892E1,-3.375027776E-1,4.725039005E-1,4.485274553E-1
1.204288892E1,-3.375027776E-1,4.725039005E-1,4.485274553E-1
1.205288892E1,-3.381136656E-1,-3.451386094E-2,1.070540547E-1
1.206288892E1,-3.930914998E-1,-1.933387071E-1,2.397644334E-2
1.207288892E1,-4.456258714E-1,-2.825249732E-1,-1.450803876E-2
1.208288892E1,-4.816668928E-1,-2.892444730E-1,1.527161949E-4
1.209288892E1,-4.926624298E-1,-2.147189677E-1,6.368265301E-2
1.210288892E1,-4.926624298E-1,-2.147189677E-1,6.368265301E-2
1.211288892E1,-4.926624298E-1,-2.147189677E-1,6.368265301E-2
1.212288892E1,-3.167333901E-1,4.010327160E-1,4.143190384E-1
1.213288892E1,-2.654207349E-1,5.103775263E-1,4.619664848E-1
1.214288892E1,-2.336557806E-1,5.641336441E-1,4.790706933E-1
1.215288892E1,-2.226602137E-1,5.794052482E-1,4.595230222E-1
1.216288892E1,-2.360992432E-1,5.519163013E-1,3.892735839E-1
1.217288892E1,-3.790415823E-1,2.012799382E-1,2.641990222E-2
1.218288892E1,-4.896081090E-1,-1.322522312E-1,-2.099847645E-1
1.219288892E1,-5.934551358E-1,-4.535670877E-1,-4.036289155E-1
1.220288892E1,-6.569850445E-1,-6.233875155E-1,-5.105302334E-1
1.221288892E1,-6.783653498E-1,-6.123919487E-1,-5.203040838E-1
1.222288892E1,-6.527090073E-1,-4.321868420E-1,-4.476111531E-1
1.223288892E1,-5.830704570E-1,-1.224783882E-1,-3.168860972E-1
1.224288892E1,-3.619373739E-1,6.557633281E-1,6.261364091E-3
1.225288892E1,-2.605338395E-1,9.990693331E-1,1.308777779E-1
1.226288892E1,-1.951712966E-1,1.182328820E0,2.078467458E-1
1.227288892E1,-1.737910360E-1,1.212261200E0,2.341139317E-1
1.228288892E1,-2.012799382E-1,1.119409680E0,2.170097083E-1
1.229288892E1,-2.690859437E-1,9.184352160E-1,1.693622619E-1
1.230288892E1,-3.796524704E-1,5.965094566E-1,8.567378670E-2
1.231288892E1,-6.093376279E-1,-1.059850380E-1,-1.415679157E-1
1.232288892E1,-6.307178736E-1,-3.417788446E-1,-2.014326602E-1
1.233288892E1,-5.671879649E-1,-4.627300799E-1,-1.629481763E-1
1.234288892E1,-4.248564541E-1,-4.156934917E-1,-2.977965772E-2
1.235288892E1,-2.330449075E-1,-2.672533393E-1,1.589775532E-1
1.236288892E1,-2.412915789E-2,-8.949168772E-2,3.544542789E-1
1.237288892E1,2.715294063E-1,1.499672979E-1,6.214022040E-1
1.238288892E1,2.299905866E-1,-2.535088919E-2,6.073523164E-1
1.239288892E1,4.795288667E-2,-3.704894781E-1,4.735729098E-1
1.240288892E1,-2.214384824E-1,-7.742711306E-1,2.695440948E-1
1.241288892E1,-4.633409381E-1,-1.068707943E0,5.024362728E-2
1.242288892E1,-5.904008150E-1,-1.183550477E0,-1.507308781E-1
1.243288892E1,-6.038398147E-1,-1.174998403E0,-3.065013885E-1
1.244288892E1,-6.038398147E-1,-1.174998403E0,-3.065013885E-1
1.245288892E1,-6.038398147E-1,-1.174998403E0,-3.065013885E-1
1.246288892E1,-6.038398147E-1,-1.174998403E0,-3.065013885E-1
1.247288892E1,-6.038398147E-1,-1.174998403E0,-3.065013885E-1
1.248288892E1,-6.038398147E-1,-1.174998403E0,-3.065013885E-1
1.249288892E1,2.464839369E-1,-3.570504785E-1,1.253799945E-1
1.250288892E1,3.393353820E-1,-2.428187430E-1,2.408334464E-1
1.251288892E1,3.393353820E-1,-2.428187430E-1,2.408334464E-1
1.252288892E1,3.393353820E-1,-2.428187430E-1,2.408334464E-1
1.253288892E1,3.393353820E-1,-2.428187430E-1,2.408334464E-1
1.254288892E1,2.605338395E-1,-7.666353136E-2,2.011272311E-1
1.255288892E1,9.682206810E-2,-2.006690800E-1,7.834340632E-2
1.256288892E1,-4.550942779E-2,-2.678641975E-1,-3.161225095E-2
1.257288892E1,-1.438586563E-1,-2.470948100E-1,-1.116355360E-1
1.258288892E1,-1.438586563E-1,-2.470948100E-1,-1.116355360E-1
1.259288892E1,-1.438586563E-1,-2.470948100E-1,-1.116355360E-1
1.260288892E1,-1.933387071E-1,-1.469129771E-1,-2.942841053E-1
1.261288892E1,-1.383608729E-1,-1.798996776E-1,-3.016144931E-1
1.261288892E1,-1.383608729E-1,-1.798996776E-1,-3.016144931E-1
1.263288892E1,2.412915789E-2,-1.310304999E-1,-2.448040545E-1
1.264288892E1,1.420260668E-1,1.069013402E-2,-1.550069451E-1
1.265288892E1,4.315759540E-1,5.109884143E-1,1.204930767E-1
1.266288892E1,5.641336441E-1,7.486147881E-1,2.444986254E-1
1.267288892E1,6.453786492E-1,8.726203442E-1,3.184132576E-1
1.268288892E1,6.539307237E-1,8.555161357E-1,3.153589368E-1
1.269288892E1,5.824595690E-1,7.101303339E-1,2.499964088E-1
1.270288892E1,4.431824088E-1,5.036579967E-1,1.412624866E-1
1.271288892E1,2.605338395E-1,2.776380479E-1,1.374445739E-3
1.272288892E1,-1.438586563E-1,-1.560759544E-1,-3.810268939E-1
1.273288892E1,-2.984074354E-1,-3.228420317E-1,-5.923861265E-1
1.274288892E1,-4.083631039E-1,-4.914407134E-1,-7.848085165E-1
1.275288892E1,-4.694495797E-1,-6.099484563E-1,-9.411898851E-1
1.276288892E1,-4.718930423E-1,-6.417134404E-1,-1.048702121E0
1.277288892E1,-4.211912751E-1,-5.794052482E-1,-1.079856157E0
1.278288892E1,-3.240637779E-1,-3.937023580E-1,-9.992220402E-1
1.279288892E1,-3.240637779E-1,-3.937023580E-1,-9.992220402E-1
1.280288892E1,8.338304609E-2,4.242455959E-1,-2.533561587E-1
1.281288892E1,2.269362658E-1,7.076868415E-1,7.589995116E-2
1.282288892E1,3.478874862E-1,1.001512766E0,3.550651670E-1
1.283288892E1,4.138608873E-1,1.166446328E0,5.187768936E-1
1.284288892E1,4.199695289E-1,1.160337687E0,5.438223481E-1
1.285288892E1,3.503309488E-1,1.048549414E0,4.625773430E-1
1.286288892E1,-5.650499091E-2,7.229584455E-1,9.056070447E-2
1.287288892E1,-3.051269650E-1,5.574141145E-1,-1.165224537E-1
1.288288892E1,-4.786125422E-1,4.786125422E-1,-2.838993967E-1
1.289288892E1,-5.623010397E-1,4.633409381E-1,-4.011854529E-1
1.290288892E1,-5.855138898E-1,4.474584460E-1,-4.433351159E-1
1.291288892E1,-5.568032265E-1,4.676169753E-1,-4.054614902E-1
1.292288892E1,-4.786125422E-1,5.225948095E-1,-3.010036349E-1
1.293288892E1,-1.939495653E-1,6.954695582E-1,5.513054505E-2
1.294288892E1,2.748891478E-3,8.359684348E-1,2.677114904E-1
1.295288892E1,2.748891478E-3,8.359684348E-1,2.677114904E-1
1.296288892E1,2.748891478E-3,8.359684348E-1,2.677114904E-1
1.297288892E1,2.748891478E-3,8.359684348E-1,2.677114904E-1
1.298288892E1,5.555815101E-1,1.136513948E0,7.319687009E-1
1.299288892E1,4.419606626E-1,9.245438576E-1,6.342303753E-1
1.300288892E1,4.419606626E-1,9.245438576E-1,6.342303753E-1
1.301288892E1,4.419606626E-1,9.245438576E-1,6.342303753E-1
1.302288892E1,4.419606626E-1,9.245438576E-1,6.342303753E-1
1.303288892E1,4.419606626E-1,9.245438576E-1,6.342303753E-1
1.304288892E1,-1.104748964E0,-8.029817343E-1,-7.725912333E-1
1.305288892E1,-1.007621408E0,-7.535017133E-1,-7.353284955E-1
1.306288892E1,-8.396336436E-1,-5.891790986E-1,-5.758927464E-1
1.307288892E1,-8.396336436E-1,-5.891790986E-1,-5.758927464E-1
1.308288892E1,-8.396336436E-1,-5.891790986E-1,-5.758927464E-1
1.309288892E1,-8.396336436E-1,-5.891790986E-1,-5.758927464E-1
1.310288892E1,1.108719558E-1,2.623664141E-1,6.543889046E-1
1.311288892E1,1.212566569E-1,1.065959036E-1,5.933024287E-1
1.312288892E1,7.024944760E-3,-1.621845961E-1,3.709476292E-1
1.313288892E1,-2.189950198E-1,-4.957167804E-1,2.641990222E-2
1.314288892E1,-2.189950198E-1,-4.957167804E-1,2.641990222E-2
1.315288892E1,-2.189950198E-1,-4.957167804E-1,2.641990222E-2
1.316288892E1,-2.189950198E-1,-4.957167804E-1,2.641990222E-2
1.317288892E1,-7.034108043E-1,-3.695731983E-2,-9.283617735E-1
1.318288892E1,-5.916225314E-1,2.342666388E-1,-7.835868001E-1
1.319288892E1,-4.688387215E-1,4.889972508E-1,-5.905535221E-1
1.320288892E1,-3.295615613E-1,6.936369538E-1,-3.535379767E-1
1.321288892E1,-3.295615613E-1,6.936369538E-1,-3.535379767E-1
1.322288892E1,2.458730787E-1,1.129183531E0,4.338667095E-1
1.323288892E1,4.517345130E-1,1.168889761E0,6.165152788E-1
1.324288892E1,6.301070452E-1,1.121853113E0,7.191405892E-1
1.325288892E1,7.779362798E-1,9.746347666E-1,7.637336850E-1
1.326288892E1,8.909462690E-1,7.553343177E-1,7.466294765E-1
1.327288892E1,9.159917235E-1,4.602866173E-1,6.171261668E-1
1.328288892E1,5.232056975E-1,-3.796524704E-1,1.272125840E-1
1.329288892E1,5.232056975E-1,-3.796524704E-1,1.272125840E-1
1.330288892E1,6.261363626E-2,-7.895427346E-1,-1.543960720E-1
1.331288892E1,-6.933315098E-2,-9.086613655E-1,-2.154825479E-1
1.332288892E1,-1.603520066E-1,-1.011286616E0,-2.649625838E-1
1.333288892E1,-2.147189677E-1,-1.089477301E0,-3.193295598E-1
1.334288892E1,-2.373209596E-1,-1.138957381E0,-3.920224607E-1
1.335288892E1,-2.049451321E-1,-1.056490660E0,-6.039925218E-1
1.336288892E1,-1.408043355E-1,-9.092722535E-1,-6.791289449E-1
1.337288892E1,-4.428769648E-2,-7.040216327E-1,-6.889027357E-1
1.338288892E1,7.422006875E-2,-4.663952589E-1,-6.259836555E-1
1.339288892E1,1.957821548E-1,-2.403752953E-1,-5.093085170E-1
1.340288892E1,2.898553312E-1,-9.254601598E-2,-3.743073940E-1
1.341288892E1,3.417788446E-1,-5.650499091E-2,-2.454149276E-1
1.342288892E1,3.668242991E-1,-1.933387071E-1,-3.222311661E-2
1.343288892E1,3.790415823E-1,-2.318231910E-1,6.246092543E-2
1.344288892E1,4.193586707E-1,-1.689041108E-1,1.553123742E-1
1.345288892E1,4.834994674E-1,-4.917461425E-2,2.377791107E-1
1.346288892E1,5.659661889E-1,6.261363626E-2,3.129154742E-1
1.347288892E1,6.539307237E-1,1.701258421E-1,3.801106215E-1
1.348288892E1,7.315105796E-1,2.813032269E-1,4.247037470E-1
1.349288892E1,7.315105796E-1,2.813032269E-1,4.247037470E-1
1.350288892E1,7.315105796E-1,2.813032269E-1,4.247037470E-1
1.351288892E1,7.315105796E-1,2.813032269E-1,4.247037470E-1
1.352288892E1,7.315105796E-1,2.813032269E-1,4.247037470E-1
1.352288892E1,6.533198953E-1,-3.970621154E-3,1.290451884E-1
1.354288892E1,4.034761786E-1,-4.932733178E-1,-9.208786488E-2
1.355288892E1,3.008508980E-1,-6.007854939E-1,-1.562286615E-1
1.356288892E1,3.008508980E-1,-6.007854939E-1,-1.562286615E-1
1.357288892E1,3.008508980E-1,-6.007854939E-1,-1.562286615E-1
1.358288892E1,3.008508980E-1,-6.007854939E-1,-1.562286615E-1
1.359288892E1,-2.159406990E-1,-6.612611413E-1,-2.307541668E-1
1.360288892E1,-3.943132162E-1,-7.571669221E-1,-3.113883138E-1
1.361288892E1,-5.897899270E-1,-8.542944193E-1,-4.030180275E-1
1.362288892E1,-7.773254514E-1,-9.330959320E-1,-4.812087417E-1
1.363288892E1,-1.005788803E0,-9.538653493E-1,-5.044215918E-1
1.364288892E1,-1.018617034E0,-8.542944193E-1,-4.231765866E-1
1.365288892E1,-9.715804458E-1,-6.954695582E-1,-2.826776803E-1
1.366288892E1,-8.811724186E-1,-5.067123175E-1,-1.061377525E-1
1.367288892E1,-7.541125417E-1,-2.947422564E-1,7.467821985E-2
1.368288892E1,-6.081159115E-1,-6.444623321E-2,2.267835438E-1
1.369288892E1,-4.553996921E-1,1.493564397E-1,3.275762498E-1
1.370288892E1,-1.957821548E-1,3.240637779E-1,3.581194878E-1
1.371288892E1,-1.114828214E-1,2.574795187E-1,2.976438701E-1
1.372288892E1,-5.589412898E-2,1.395826042E-1,2.060141414E-1
1.373288892E1,-1.313359290E-2,-3.054323897E-4,1.143844277E-1
1.374288892E1,2.962694131E-2,-1.090393662E-1,5.513054505E-2
1.375288892E1,9.437860548E-2,-1.511890292E-1,4.902189970E-2
1.376288892E1,1.780670881E-1,-1.304196268E-1,8.811724186E-2
1.377288892E1,3.582721949E-1,2.046396956E-2,2.359465212E-1
1.378288892E1,4.309650958E-1,1.432477981E-1,2.872591615E-1
1.379288892E1,4.853320718E-1,2.538143098E-1,2.854265571E-1
1.380288892E1,5.079340935E-1,3.448331654E-1,2.261726856E-1
1.381288892E1,4.871646762E-1,3.961458206E-1,1.021671370E-1
1.382288892E1,4.211912751E-1,3.643808365E-1,-6.765327603E-2
1.383288892E1,3.338375986E-1,2.538143098E-1,-2.374736816E-1
1.384288892E1,1.695149690E-1,5.528326333E-2,-4.280634820E-1
1.385288892E1,1.365282834E-1,2.290742844E-2,-4.396699369E-1
1.386288892E1,1.444695145E-1,6.383536756E-2,-3.993528485E-1
1.387288892E1,1.444695145E-1,6.383536756E-2,-3.993528485E-1
1.388288892E1,1.444695145E-1,6.383536756E-2,-3.993528485E-1
1.389288892E1,3.973675370E-1,5.867356062E-1,1.359174121E-2
1.390288892E1,4.999928176E-1,8.316923976E-1,1.882990748E-1
1.391288892E1,4.999928176E-1,8.316923976E-1,1.882990748E-1
1.392288892E1,4.999928176E-1,8.316923976E-1,1.882990748E-1
1.393288892E1,4.999928176E-1,8.316923976E-1,1.882990748E-1
1.394288892E1,4.999928176E-1,8.316923976E-1,1.882990748E-1
1.395288892E1,-1.884517819E-1,7.461713552E-1,2.060141414E-1
1.396288892E1,-5.500837564E-1,3.937023580E-1,3.130681813E-2
1.397288892E1,-8.353576064E-1,5.772672221E-2,-1.281288862E-1
1.398288892E1,-8.353576064E-1,5.772672221E-2,-1.281288862E-1
1.399288892E1,-8.353576064E-1,5.772672221E-2,-1.281288862E-1
1.400288892E1,-8.353576064E-1,5.772672221E-2,-1.281288862E-1
1.401288892E1,-6.062833071E-1,-2.696968019E-1,7.895427197E-2
1.402288892E1,-3.967566788E-1,-9.682206810E-2,2.414443046E-1
1.403288892E1,-1.939495653E-1,8.216131479E-2,3.593412042E-1
1.404288892E1,-1.191186346E-2,2.171624303E-1,4.069886506E-1
1.405288892E1,-1.191186346E-2,2.171624303E-1,4.069886506E-1
1.406288892E1,-1.191186346E-2,2.171624303E-1,4.069886506E-1
1.407288892E1,2.941313982E-1,2.880227566E-1,2.548833191E-1
1.408288892E1,2.971857190E-1,2.874118686E-1,2.145662606E-1
1.409288892E1,2.965748608E-1,2.904661894E-1,1.919642538E-1
1.410288892E1,3.051269650E-1,3.039052188E-1,1.876882017E-1
1.411288892E1,3.228420317E-1,3.295615613E-1,2.072358727E-1
1.412288892E1,3.833176494E-1,4.621191919E-1,2.689332068E-1
1.413288892E1,3.998109996E-1,5.280926228E-1,2.591593862E-1
1.414288892E1,3.851502538E-1,5.580250025E-1,2.041815519E-1
1.415288892E1,3.558287323E-1,5.470294356E-1,1.186604798E-1
1.416288892E1,3.252854943E-1,5.280926228E-1,2.031125315E-2
1.417288892E1,2.929096520E-1,5.280926228E-1,-9.147699922E-2
1.418288892E1,2.458730787E-1,5.158752799E-1,-2.130390853E-1
1.419288892E1,3.145953640E-2,3.216203153E-1,-4.286743701E-1
1.420288892E1,-1.456912458E-1,1.908952445E-1,-4.799869955E-1
1.421288892E1,-3.362810612E-1,9.437860548E-2,-4.867065251E-1
1.422288892E1,-4.975493550E-1,5.100720748E-2,-4.549415410E-1
1.423288892E1,-6.123919487E-1,4.245510325E-2,-3.981311321E-1
1.424288892E1,-6.911935210E-1,5.283980444E-2,-3.266599476E-1
1.425288892E1,-7.278453708E-1,6.750056148E-2,-2.441931963E-1
1.426288892E1,-7.828232050E-1,3.329212964E-2,-1.201876476E-1
1.427288892E1,-8.335250020E-1,-4.734202102E-2,-1.220202371E-1
1.428288892E1,-8.701768517E-1,-1.682932526E-1,-1.751654744E-1
1.429288892E1,-8.579595685E-1,-2.977965772E-1,-2.612974048E-1
1.430288892E1,-7.767145634E-1,-4.059196413E-1,-3.437641561E-1
1.431288892E1,-6.520981789E-1,-4.896081090E-1,-3.846921027E-1
1.432288892E1,-5.073232055E-1,-5.128209591E-1,-3.779725730E-1
1.433288892E1,-1.860083193E-1,-4.352411628E-1,-2.454149276E-1
1.434288892E1,-2.657261863E-2,-3.466657698E-1,-9.392046183E-2
1.435288892E1,1.328630894E-1,-2.287688553E-1,1.058323234E-1
1.436288892E1,2.788597643E-1,-1.102610901E-1,3.294088244E-1
1.437288892E1,3.979783952E-1,-2.474002354E-2,5.352702737E-1
1.438288892E1,4.645626545E-1,-1.313359290E-2,6.837103963E-1
1.439288892E1,4.743365049E-1,-5.711585656E-2,7.704532146E-1
1.440288892E1,4.743365049E-1,-5.711585656E-2,7.704532146E-1
1.441288892E1,4.743365049E-1,-5.711585656E-2,7.704532146E-1
1.442288892E1,4.743365049E-1,-5.711585656E-2,7.704532146E-1
1.443288892E1,4.743365049E-1,-5.711585656E-2,7.704532146E-1
1.444288892E1,1.548542231E-1,-5.244274139E-1,2.945895493E-1
1.445288892E1,9.621120244E-2,-6.502655745E-1,1.779143661E-1
1.446288892E1,5.650499091E-2,-7.394518256E-1,7.651081681E-2
1.447288892E1,5.650499091E-2,-7.394518256E-1,7.651081681E-2
1.448288892E1,5.650499091E-2,-7.394518256E-1,7.651081681E-2
1.449288892E1,5.650499091E-2,-7.394518256E-1,7.651081681E-2
1.450288892E1,1.847866029E-1,-3.112356067E-1,-6.459894776E-2
1.451288892E1,1.847866029E-1,-3.112356067E-1,-6.459894776E-2
1.452288892E1,8.643736690E-2,-3.173442483E-1,-1.348484010E-1
1.453288892E1,-1.069013402E-2,-4.077522457E-1,-2.441931963E-1
1.454288892E1,-1.069013402E-2,-4.077522457E-1,-2.441931963E-1
1.455288892E1,-1.069013402E-2,-4.077522457E-1,-2.441931963E-1
1.456288892E1,-1.548542231E-1,-5.690205693E-1,-6.473639607E-1
1.457288892E1,-5.772672221E-2,-5.048797131E-1,-6.345357895E-1
1.458288892E1,6.750056148E-2,-4.101957083E-1,-5.496255755E-1
1.459288892E1,2.183841616E-1,-2.745837271E-1,-3.956876695E-1
1.460288892E1,3.869828284E-1,-9.437860548E-2,-1.855501831E-1
1.461288892E1,3.869828284E-1,-9.437860548E-2,-1.855501831E-1
1.462288892E1,8.378010392E-1,4.120282829E-1,4.918988645E-1
1.463288892E1,9.337068200E-1,5.225948095E-1,6.580541134E-1
1.464288892E1,9.795216918E-1,5.812378526E-1,7.362447977E-1
1.465288892E1,9.361502528E-1,5.519163013E-1,7.075341344E-1
1.466288892E1,7.657189965E-1,4.169152081E-1,5.853611827E-1
1.467288892E1,5.061014891E-1,2.348775119E-1,3.819431961E-1
1.468288892E1,-1.004872546E-1,-2.257145345E-1,-1.482874304E-1
1.469288892E1,-3.717112243E-1,-4.560105503E-1,-3.779725730E-1
1.470288892E1,-5.946768522E-1,-6.588176489E-1,-5.453495383E-1
1.471288892E1,-7.498365045E-1,-8.042035103E-1,-6.681333780E-1
1.472288892E1,-8.200859427E-1,-8.634573817E-1,-7.499892116E-1
1.473288892E1,-7.932079434E-1,-8.304706812E-1,-7.970257998E-1
1.474288892E1,-6.936369538E-1,-7.473930717E-1,-7.786998749E-1
1.475288892E1,-3.564395905E-1,-3.307832778E-1,-4.647153914E-1
1.476288892E1,-1.597411335E-1,-1.007926930E-2,-1.996000707E-1
1.477288892E1,2.168569900E-2,3.161225319E-1,6.246092543E-2
1.478288892E1,1.524107605E-1,5.488619804E-1,2.658788860E-1
1.479288892E1,1.963930279E-1,5.977311730E-1,3.776671588E-1
1.480288892E1,1.438586563E-1,4.798342884E-1,3.947713673E-1
1.481288892E1,4.367683083E-2,3.185659945E-1,3.385718167E-1
1.482288892E1,-8.277218044E-2,1.084285006E-1,9.117157012E-2
1.483288892E1,-1.084285006E-1,1.130099874E-2,-3.772090003E-2
1.484288892E1,-1.322522312E-1,-7.849612087E-2,-1.311832070E-1
1.485288892E1,-1.603520066E-1,-1.493564397E-1,-1.867718995E-1
1.486288892E1,-1.798996776E-1,-1.902843714E-1,-2.191477418E-1
1.487288892E1,-1.768453568E-1,-1.970038861E-1,-2.448040545E-1
1.488288892E1,-1.768453568E-1,-1.970038861E-1,-2.448040545E-1
1.489288892E1,-1.768453568E-1,-1.970038861E-1,-2.448040545E-1
1.490288892E1,-1.768453568E-1,-1.970038861E-1,-2.448040545E-1
1.491288892E1,-1.768453568E-1,-1.970038861E-1,-2.448040545E-1
1.492288892E1,-3.390299529E-2,2.306014597E-1,-1.470656991E-1
1.493288892E1,-5.589412898E-2,2.446513474E-1,-1.452330947E-1
1.494288892E1,-8.704823256E-2,2.556469142E-1,-1.586721241E-1
1.495288892E1,-1.047633067E-1,2.825249732E-1,-1.818849891E-1
1.496288892E1,-1.047633067E-1,2.825249732E-1,-1.818849891E-1
1.497288892E1,-1.047633067E-1,2.825249732E-1,-1.818849891E-1
1.498288892E1,8.582650125E-2,3.601047993E-1,-2.435823381E-1
1.499288892E1,1.542433500E-1,3.460549116E-1,-2.179260105E-1
1.500288892E1,2.183841616E-1,3.216203153E-1,-1.794415265E-1
1.501288892E1,2.696968019E-1,2.971857190E-1,-1.317940801E-1
1.502288892E1,2.977965772E-1,2.806923687E-1,-7.192932814E-2
1.503288892E1,2.977965772E-1,2.806923687E-1,-7.192932814E-2
1.504288892E1,2.977965772E-1,2.806923687E-1,-7.192932814E-2
1.505288892E1,1.878409237E-1,2.611446977E-1,1.180496216E-1
1.506288892E1,8.155044913E-2,2.220493406E-1,1.180496216E-1
1.507288892E1,-4.001164436E-2,1.786779463E-1,8.811724186E-2
1.508288892E1,-1.658497900E-1,1.395826042E-1,3.802633286E-2
1.509288892E1,-2.874118686E-1,1.108719558E-1,-1.084284950E-2
1.510288892E1,-2.874118686E-1,1.108719558E-1,-1.084284950E-2
1.511288892E1,-5.268708467E-1,9.865466505E-2,-5.726857483E-2
1.512288892E1,-5.616901517E-1,7.483093441E-2,-4.749473557E-2
1.513288892E1,-5.787943602E-1,4.184423760E-2,-3.588830680E-2
1.514288892E1,-5.818486810E-1,2.138026757E-3,-2.855792828E-2
1.515288892E1,-5.671879649E-1,-4.367683083E-2,-2.672533318E-2
1.516288892E1,-5.342012644E-1,-8.338304609E-2,-2.550360374E-2
1.517288892E1,-4.407389462E-1,-1.591302752E-1,3.207040019E-3
1.518288892E1,-3.759872615E-1,-1.872300506E-1,3.191768378E-2
1.519288892E1,-3.759872615E-1,-1.872300506E-1,3.191768378E-2
1.520288892E1,-1.902843714E-1,-1.371391416E-1,1.589775532E-1
1.521288892E1,-6.872228533E-2,-6.078104675E-2,2.756527364E-1
1.522288892E1,5.894844979E-2,6.566796452E-2,4.198168218E-1
1.523288892E1,1.866191924E-1,2.196058929E-1,5.737547278E-1
1.524288892E1,1.866191924E-1,2.196058929E-1,5.737547278E-1
1.525288892E1,4.028653204E-1,4.914407134E-1,8.345940113E-1
1.526288892E1,3.301724195E-1,3.765981495E-1,8.156571984E-1
1.527288892E1,1.908952445E-1,1.737910360E-1,7.154753804E-1
1.528288892E1,3.329212964E-2,-5.955931544E-2,5.242747068E-1
1.529288892E1,-8.582650125E-2,-2.483165264E-1,2.774853408E-1
1.530288892E1,-1.572976857E-1,-3.625482321E-1,2.764163166E-2
1.531288892E1,-1.798996776E-1,-3.344484568E-1,-3.010036349E-1
1.532288892E1,-1.279761642E-1,-1.621845961E-1,-3.449858725E-1
1.533288892E1,-4.673115537E-2,2.535088919E-2,-3.083339930E-1
1.534288892E1,3.878991306E-2,2.263254076E-1,-1.715002805E-1
1.535288892E1,1.182023361E-1,4.303542376E-1,3.680460155E-2
1.536288892E1,1.762344837E-1,5.922334194E-1,2.567159235E-1
1.537288892E1,1.725693047E-1,6.985238791E-1,4.295906425E-1
1.538288892E1,-2.134972364E-1,3.912588954E-1,4.705185890E-1
1.539288892E1,-2.134972364E-1,3.912588954E-1,4.705185890E-1
1.540288892E1,-2.134972364E-1,3.912588954E-1,4.705185890E-1
1.541288892E1,-2.134972364E-1,3.912588954E-1,4.705185890E-1
1.542288892E1,-1.078481793E0,-3.326158822E-1,-4.688387364E-2
1.543288892E1,-9.563088417E-1,-2.605338395E-1,-2.550360374E-2
1.544288892E1,-9.563088417E-1,-2.605338395E-1,-2.550360374E-2
1.545288892E1,-9.563088417E-1,-2.605338395E-1,-2.550360374E-2
1.546288892E1,-9.563088417E-1,-2.605338395E-1,-2.550360374E-2
1.547288892E1,-9.563088417E-1,-2.605338395E-1,-2.550360374E-2
1.548288892E1,-9.563088417E-1,-2.605338395E-1,-2.550360374E-2
1.549288892E1,8.787289858E-1,5.531380773E-1,1.399033070E0
1.550288892E1,9.856303334E-1,3.478874862E-1,1.372155070E0
1.551288892E1,9.856303334E-1,3.478874862E-1,1.372155070E0
1.552288892E1,9.856303334E-1,3.478874862E-1,1.372155070E0
1.553288892E1,9.856303334E-1,3.478874862E-1,1.372155070E0
1.554288892E1,7.962622643E-1,-2.202167511E-1,7.631227970E-1
1.555288892E1,6.673697829E-1,-2.122755051E-1,6.385064125E-1
1.556288892E1,5.482511520E-1,-2.018908113E-1,5.297724605E-1
1.557288892E1,4.450149834E-1,-2.287688553E-1,4.338667095E-1
1.558288892E1,4.450149834E-1,-2.287688553E-1,4.338667095E-1
1.559288892E1,2.440404743E-1,-3.735437989E-1,1.992946416E-1
1.560288892E1,2.183841616E-1,-4.236347377E-1,1.369864196E-1
1.561288892E1,2.000582218E-1,-4.810560048E-1,7.162389904E-2
1.562288892E1,1.817322671E-1,-5.494728684E-1,-2.290742937E-3
1.563288892E1,1.658497900E-1,-6.087267399E-1,-8.170316368E-2
1.564288892E1,1.469129771E-1,-6.514872909E-1,-1.598938555E-1
1.565288892E1,1.145371497E-1,-6.459894776E-1,-2.753472924E-1
1.566288892E1,1.004872546E-1,-5.928442478E-1,-3.040579557E-1
1.567288892E1,8.093958348E-2,-5.122101307E-1,-3.113883138E-1
1.568288892E1,5.894844979E-2,-4.181369543E-1,-2.924515009E-1
1.569288892E1,3.634645417E-2,-3.240637779E-1,-2.435823381E-1
1.570288892E1,1.435532235E-2,-2.275471240E-1,-1.598938555E-1
1.571288892E1,2.138026757E-3,-1.359174103E-1,-5.849030241E-2
1.572288892E1,2.138026757E-3,-1.359174103E-1,-5.849030241E-2
1.573288892E1,3.634645417E-2,5.955931544E-2,2.005163580E-1
1.574288892E1,5.039634556E-2,8.643736690E-2,2.365573794E-1
1.575288892E1,5.039634556E-2,6.811141968E-2,2.335030586E-1
1.576288892E1,3.329212964E-2,1.313359290E-2,1.980729103E-1
1.577288892E1,-2.748891478E-3,-5.833758786E-2,1.461493969E-1
1.578288892E1,-5.100720748E-2,-1.249218509E-1,8.384118974E-2
1.579288892E1,-1.572976857E-1,-2.281579971E-1,-4.749473557E-2
1.580288892E1,-2.226602137E-1,-2.922987938E-1,-1.098029464E-1
1.581288892E1,-3.075704277E-1,-3.686569035E-1,-1.769980639E-1
1.582288892E1,-4.028653204E-1,-4.395172000E-1,-2.399171442E-1
1.583288892E1,-4.822777510E-1,-4.731147587E-1,-2.875646055E-1
1.584288892E1,-5.305360556E-1,-4.578431547E-1,-3.211621642E-1
1.585288892E1,-5.470294356E-1,-4.040870368E-1,-3.431532979E-1
1.586288892E1,-5.470294356E-1,-4.040870368E-1,-3.431532979E-1
1.587288892E1,-5.470294356E-1,-4.040870368E-1,-3.431532979E-1
1.588288892E1,-5.470294356E-1,-4.040870368E-1,-3.431532979E-1
1.589288892E1,-5.470294356E-1,-4.040870368E-1,-3.431532979E-1
1.590288892E1,-4.022544622E-1,1.069013402E-2,-3.065013885E-1
1.591288892E1,-4.352411628E-1,2.748891478E-3,-3.254382014E-1
1.592288892E1,-5.048797131E-1,-4.612028971E-2,-3.688096106E-1
1.593288892E1,-5.048797131E-1,-4.612028971E-2,-3.688096106E-1
1.594288892E1,-5.048797131E-1,-4.612028971E-2,-3.688096106E-1
1.595288892E1,-5.048797131E-1,-4.612028971E-2,-3.688096106E-1
1.596288892E1,-5.048797131E-1,-4.612028971E-2,-3.688096106E-1
1.597288892E1,-5.995637774E-1,-1.438586563E-1,-7.615956664E-1
1.598288892E1,-4.285216331E-1,5.192350596E-3,-6.589703560E-1
1.599288892E1,-2.196058929E-1,2.354883701E-1,-4.805978537E-1
1.600288892E1,-2.196058929E-1,2.354883701E-1,-4.805978537E-1
1.601288892E1,-2.196058929E-1,2.354883701E-1,-4.805978537E-1
1.602288892E1,4.938841760E-1,8.830050230E-1,2.585485280E-1
1.602288892E1,4.938841760E-1,8.830050230E-1,2.585485280E-1
1.604288892E1,4.590648711E-1,5.702422857E-1,2.322813272E-1
1.605288892E1,3.711003661E-1,4.010327160E-1,1.137735620E-1
1.606288892E1,2.825249732E-1,2.886336148E-1,-4.993819445E-2
1.607288892E1,2.825249732E-1,2.886336148E-1,-4.993819445E-2
1.608288892E1,2.825249732E-1,2.886336148E-1,-4.993819445E-2
1.609288892E1,2.825249732E-1,2.886336148E-1,-4.993819445E-2
1.610288892E1,2.788597643E-1,5.225948095E-1,-4.946477413E-1
1.611288892E1,3.539961278E-1,6.227766275E-1,-4.323395491E-1
1.612288892E1,4.303542376E-1,7.492256761E-1,-3.346011937E-1
1.613288892E1,4.920515716E-1,8.677334189E-1,-2.124282271E-1
1.614288892E1,4.920515716E-1,8.677334189E-1,-2.124282271E-1
1.615288892E1,4.896081090E-1,7.663298845E-1,8.323032409E-2
1.616288892E1,4.205803871E-1,5.629118681E-1,8.872810751E-2
1.617288892E1,3.326158822E-1,3.460549116E-1,3.680460155E-2
1.618288892E1,2.477056682E-1,1.817322671E-1,-5.910116807E-2
1.619288892E1,1.896735132E-1,1.017089859E-1,-1.678351015E-1
1.620288892E1,1.463021189E-1,8.582650125E-2,-2.490801066E-1
1.621288892E1,1.463021189E-1,8.582650125E-2,-2.490801066E-1
1.622288892E1,1.463021189E-1,8.582650125E-2,-2.490801066E-1
1.623288892E1,-3.940077871E-2,1.157588735E-1,-2.612974048E-1
1.624288892E1,-9.498947114E-2,6.078104675E-2,-2.368628234E-1
1.625288892E1,-1.432477981E-1,1.252272818E-2,-2.038761228E-1
1.626288892E1,-1.572976857E-1,1.863137633E-2,-1.617264450E-1
1.627288892E1,-1.230892539E-1,8.399390429E-2,-1.049160287E-1
1.628288892E1,1.313359290E-2,2.794706225E-1,7.834340632E-2
1.629288892E1,9.254601598E-2,3.558287323E-1,1.754709035E-1
1.630288892E1,1.566868126E-1,3.717112243E-1,2.444986254E-1
1.631288892E1,1.670715213E-1,2.996291816E-1,2.805396616E-1
1.632288892E1,1.279761642E-1,1.921169758E-1,2.903134823E-1
1.633288892E1,6.811141968E-2,1.010981202E-1,2.750418782E-1
1.634288892E1,-2.229656465E-2,2.168569900E-2,2.310595959E-1
1.635288892E1,-2.623664141E-1,-3.451386094E-2,6.612611562E-2
1.636288892E1,-3.863719702E-1,-6.444623321E-2,-3.466657549E-2
1.637288892E1,-5.085449219E-1,-1.432477981E-1,-1.434005052E-1
1.638288892E1,-5.958985686E-1,-2.263254076E-1,-2.484692484E-1
1.639288892E1,-6.166679859E-1,-2.733619809E-1,-3.266599476E-1
1.640288892E1,-5.659661889E-1,-2.605338395E-1,-3.608683646E-1
1.641288892E1,-4.621191919E-1,-1.970038861E-1,-3.333794475E-1
1.642288892E1,-1.744018942E-1,5.345066637E-2,-9.330959618E-2
1.643288892E1,-3.329212964E-2,1.860083193E-1,7.467821985E-2
1.644288892E1,6.566796452E-2,2.183841616E-1,2.298378795E-1
1.645288892E1,1.078176349E-1,1.346956789E-1,3.391826749E-1
1.646288892E1,8.826996386E-2,-8.246674202E-3,3.904953003E-1
1.647288892E1,4.856374860E-2,-1.169806048E-1,3.849975169E-1
1.648288892E1,2.412915789E-2,-1.499672979E-1,3.275762498E-1
1.649288892E1,2.748891478E-3,-1.059850380E-1,1.950185746E-1
1.650288892E1,1.130099874E-2,-7.177661359E-2,1.754709035E-1
1.651288892E1,3.878991306E-2,-5.222893879E-2,1.882990748E-1
1.652288892E1,3.878991306E-2,-5.222893879E-2,1.882990748E-1
1.653288892E1,3.878991306E-2,-5.222893879E-2,1.882990748E-1
1.654288892E1,2.263254076E-1,-8.949168772E-2,3.110828996E-1
1.655288892E1,2.904661894E-1,-1.175914705E-1,3.452913165E-1
1.656288892E1,2.904661894E-1,-1.175914705E-1,3.452913165E-1
1.657288892E1,2.904661894E-1,-1.175914705E-1,3.452913165E-1
1.658288892E1,2.904661894E-1,-1.175914705E-1,3.452913165E-1
1.659288892E1,2.904661894E-1,-1.175914705E-1,3.452913165E-1
1.660288892E1,3.662134409E-1,-2.397644222E-1,1.913533956E-1
1.661288892E1,3.295615613E-1,-2.672533393E-1,1.510363221E-1
1.662288892E1,2.977965772E-1,-2.788597643E-1,1.192713454E-1
1.663288892E1,2.977965772E-1,-2.788597643E-1,1.192713454E-1
1.664288892E1,2.977965772E-1,-2.788597643E-1,1.192713454E-1
1.665288892E1,2.977965772E-1,-2.788597643E-1,1.192713454E-1
1.666288892E1,2.977965772E-1,-2.788597643E-1,1.192713454E-1
1.667288892E1,4.550942779E-2,-4.450149834E-1,-1.684459597E-1
1.668288892E1,3.054323897E-4,-4.920515716E-1,-2.154825479E-1
1.669288892E1,-2.168569900E-2,-4.914407134E-1,-2.368628234E-1
1.670288892E1,-2.168569900E-2,-4.914407134E-1,-2.368628234E-1
1.671288892E1,-2.168569900E-2,-4.914407134E-1,-2.368628234E-1
1.672288892E1,2.018908113E-1,-4.489856213E-2,1.082757786E-1
1.673288892E1,2.953531146E-1,7.910698652E-2,2.499964088E-1
1.674288892E1,3.802633286E-1,1.640172005E-1,3.605629504E-1
1.675288892E1,4.480693042E-1,1.841757298E-1,4.259254634E-1
1.676288892E1,4.981602132E-1,1.566868126E-1,4.515817761E-1
1.677288892E1,5.616901517E-1,1.004872546E-1,4.124864340E-1
1.678288892E1,5.775726438E-1,7.910698652E-2,3.581194878E-1
1.679288892E1,5.775726438E-1,7.910698652E-2,3.581194878E-1
1.680288892E1,5.531380773E-1,-1.374445762E-2,2.194531709E-1
1.681288892E1,5.201513767E-1,-5.100720748E-2,1.516471803E-1
1.682288892E1,4.926624298E-1,-5.100720748E-2,9.422589093E-2
1.683288892E1,4.755582213E-1,-2.657261863E-2,5.757400393E-2
1.684288892E1,4.101957083E-1,1.863137633E-2,2.764163166E-2
1.685288892E1,3.436114490E-1,2.657261863E-2,2.031125315E-2
1.686288892E1,2.360992432E-1,2.046396956E-2,-1.069013379E-3
1.687288892E1,7.177661359E-2,-2.412915789E-2,-4.993819445E-2
1.688288892E1,-1.420260668E-1,-1.127045527E-1,-1.354592592E-1
1.689288892E1,-3.729329407E-1,-2.226602137E-1,-2.600756884E-1
1.690288892E1,-5.873464942E-1,-3.222311735E-1,-4.121810198E-1
1.691288892E1,-8.958331943E-1,-4.529562294E-1,-6.931788325E-1
1.692288892E1,-9.685261250E-1,-5.024362803E-1,-7.829759121E-1
1.693288892E1,-9.556979537E-1,-5.219839811E-1,-8.226821423E-1
1.694288892E1,-8.646790981E-1,-5.048797131E-1,-7.927497625E-1
1.695288892E1,-7.150171995E-1,-4.163043499E-1,-6.632464528E-1
1.696288892E1,-5.115992427E-1,-2.000582218E-1,-4.280634820E-1
1.697288892E1,-2.971857190E-1,8.582650125E-2,-1.415679157E-1
1.698288892E1,1.182023361E-1,5.189296007E-1,4.741837978E-1
1.699288892E1,2.745837271E-1,6.783653498E-1,7.057015300E-1
1.700288892E1,3.607156575E-1,6.997455955E-1,8.309288025E-1
1.701288892E1,3.503309488E-1,5.739074349E-1,8.217658401E-1
1.702288892E1,2.422078848E-1,3.692677617E-1,6.940951347E-1
1.703288892E1,6.994401664E-2,1.469129771E-1,4.827359021E-1
1.704288892E1,-1.151480079E-1,-7.360920310E-2,2.286161482E-1
1.705288892E1,-1.151480079E-1,-7.360920310E-2,2.286161482E-1
1.706288892E1,-1.151480079E-1,-7.360920310E-2,2.286161482E-1
1.707288892E1,-1.151480079E-1,-7.360920310E-2,2.286161482E-1
1.708288892E1,-1.151480079E-1,-7.360920310E-2,2.286161482E-1
1.709288892E1,-1.151480079E-1,-7.360920310E-2,2.286161482E-1
1.710288892E1,-2.012799382E-1,-1.496618707E-2,-3.914116025E-1
1.711288892E1,-1.359174103E-1,1.517999023E-1,-3.058905303E-1
1.712288892E1,-1.359174103E-1,1.517999023E-1,-3.058905303E-1
1.713288892E1,-1.359174103E-1,1.517999023E-1,-3.058905303E-1
1.714288892E1,-1.359174103E-1,1.517999023E-1,-3.058905303E-1
1.715288892E1,-1.689041108E-1,2.092211843E-1,-2.240346521E-1
1.716288892E1,-1.689041108E-1,2.281579971E-1,-2.356410921E-1
1.717288892E1,-1.585194170E-1,2.617555559E-1,-2.289215773E-1
1.718288892E1,-1.432477981E-1,3.210094273E-1,-2.026543915E-1
1.719288892E1,-1.432477981E-1,3.210094273E-1,-2.026543915E-1
1.720288892E1,-1.432477981E-1,3.210094273E-1,-2.026543915E-1
1.721288892E1,-2.709185183E-1,1.835648715E-1,-1.605047137E-1
1.722288892E1,-3.283398151E-1,1.017089859E-1,-1.666133702E-1
1.723288892E1,-3.643808365E-1,4.673115537E-2,-1.733328849E-1
1.724288892E1,-3.643808365E-1,4.673115537E-2,-1.733328849E-1
1.725288892E1,-3.533852696E-1,3.512472659E-2,-1.751654744E-1
1.726288892E1,-3.533852696E-1,3.512472659E-2,-1.751654744E-1
1.727288892E1,-3.533852696E-1,3.512472659E-2,-1.751654744E-1
1.728288892E1,-3.390299529E-2,3.203985691E-1,6.062832847E-2
1.729288892E1,8.521563560E-2,4.144717455E-1,1.760817766E-1
1.730288892E1,2.012799382E-1,5.085449219E-1,2.927569449E-1
1.731288892E1,3.124573231E-1,5.763509274E-1,3.978256881E-1
1.732288892E1,3.979783952E-1,6.056724191E-1,4.680751264E-1
1.733288892E1,4.272999167E-1,5.568032265E-1,4.815141559E-1
1.734288892E1,3.808741868E-1,4.951058924E-1,4.192059636E-1
1.735288892E1,3.118464649E-1,4.315759540E-1,3.226893246E-1
1.736288892E1,2.513708472E-1,3.943132162E-1,2.084576041E-1
1.737288892E1,2.067777216E-1,3.729329407E-1,1.009454057E-1
1.738288892E1,1.676823795E-1,3.698786199E-1,1.175914705E-2
1.739288892E1,1.145371497E-1,3.723220825E-1,-5.787943676E-2
1.740288892E1,-8.277218044E-2,3.130682111E-1,-1.666133702E-1
1.741288892E1,-2.312123179E-1,2.281579971E-1,-2.393062711E-1
1.742288892E1,-3.875937164E-1,1.255327165E-1,-3.260490894E-1
1.743288892E1,-5.287034512E-1,1.985310577E-2,-4.121810198E-1
1.744288892E1,-6.447677612E-1,-8.338304609E-2,-4.793761373E-1
1.745288892E1,-7.162389755E-1,-1.627954692E-1,-5.172497630E-1
1.746288892E1,-7.467821836E-1,-2.373209596E-1,-5.380191803E-1
1.747288892E1,-7.272345424E-1,-3.338375986E-1,-5.105302334E-1
1.748288892E1,-6.771436334E-1,-3.625482321E-1,-4.457785785E-1
1.749288892E1,-5.940660238E-1,-3.643808365E-1,-3.443750143E-1
1.750288892E1,-4.761691093E-1,-3.191768527E-1,-2.026543915E-1
1.751288892E1,-3.234528899E-1,-2.000582218E-1,-2.367101051E-2
1.752288892E1,-1.475238502E-1,-2.168569900E-2,1.809686869E-1
1.753288892E1,3.084867075E-2,1.670715213E-1,3.825540543E-1
1.754288892E1,2.990183234E-1,4.059196413E-1,6.507236958E-1
1.755288892E1,3.344484568E-1,3.839285076E-1,6.916516423E-1
1.756288892E1,3.344484568E-1,3.839285076E-1,6.916516423E-1
1.757288892E1,3.344484568E-1,3.839285076E-1,6.916516423E-1
1.758288892E1,1.646280587E-1,1.053741723E-1,5.230529904E-1
1.759288892E1,8.399390429E-2,4.581485875E-3,4.057669342E-1
1.760288892E1,8.857538924E-3,-9.498947114E-2,2.878700197E-1
1.761288892E1,8.857538924E-3,-9.498947114E-2,2.878700197E-1
1.762288892E1,8.857538924E-3,-9.498947114E-2,2.878700197E-1
1.763288892E1,8.857538924E-3,-9.498947114E-2,2.878700197E-1
1.764288892E1,8.857538924E-3,-9.498947114E-2,2.878700197E-1
1.765288892E1,8.460476995E-2,-1.878409237E-1,1.162170246E-1
1.766288892E1,1.469129771E-1,-1.450803876E-1,1.852447391E-1
1.767288892E1,1.976147592E-1,-1.261435747E-1,2.506072819E-1
1.768288892E1,1.976147592E-1,-1.261435747E-1,2.506072819E-1
1.769288892E1,1.976147592E-1,-1.261435747E-1,2.506072819E-1
1.770288892E1,2.886336148E-1,-1.951712966E-1,2.322813272E-1
1.771288892E1,2.904661894E-1,-1.933387071E-1,1.754709035E-1
1.772288892E1,2.904661894E-1,-1.890626550E-1,1.302669197E-1
1.773288892E1,2.837466896E-1,-2.000582218E-1,9.850194305E-2
1.774288892E1,2.703076601E-1,-2.251036763E-1,7.651081681E-2
1.775288892E1,2.703076601E-1,-2.251036763E-1,7.651081681E-2
1.776288892E1,3.265072107E-1,-2.800815105E-1,6.001746282E-2
1.777288892E1,3.741546869E-1,-2.648098767E-1,6.979130208E-2
1.778288892E1,4.370737374E-1,-2.214384824E-1,9.422589093E-2
1.779288892E1,4.981602132E-1,-1.566868126E-1,1.302669197E-1
1.780288892E1,5.342012644E-1,-8.521563560E-2,1.669187993E-1
1.781288892E1,5.262600183E-1,-5.222893879E-2,1.907425225E-1
1.782288892E1,3.949240744E-1,-1.133154184E-1,1.467602700E-1
1.782288892E1,3.949240744E-1,-1.133154184E-1,1.467602700E-1
1.784288892E1,1.475238502E-1,-3.014617562E-1,-4.123337101E-3
1.785288892E1,3.817904741E-2,-3.711003661E-1,-8.720094711E-2
1.786288892E1,-3.573558852E-2,-4.040870368E-1,-1.556178033E-1
1.787288892E1,-7.544180006E-2,-4.046979249E-1,-2.008218020E-1
1.788288892E1,-8.093958348E-2,-3.820959330E-1,-2.215912044E-1
1.789288892E1,-5.222893879E-2,-3.753764033E-1,-2.081521749E-1
1.790288892E1,-2.901607752E-2,-3.662134409E-1,-1.678351015E-1
1.791288892E1,3.359756200E-3,-3.295615613E-1,-9.147699922E-2
1.792288892E1,3.940077871E-2,-2.489273995E-1,2.153298259E-2
1.793288892E1,6.933315098E-2,-1.328630894E-1,1.510363221E-1
1.794288892E1,8.155044913E-2,-3.268126398E-2,2.628245652E-1
1.795288892E1,5.711585656E-2,1.130099874E-2,3.373500705E-1
1.796288892E1,-8.704823256E-2,-8.643736690E-2,3.587303460E-1
1.797288892E1,-8.704823256E-2,-8.643736690E-2,3.587303460E-1
1.798288892E1,-2.257145345E-1,-2.782489061E-1,2.017380893E-1
1.799288892E1,-2.391535640E-1,-3.338375986E-1,1.027780026E-1
1.800288892E1,-2.165515572E-1,-3.423897028E-1,3.436114267E-2
1.801288892E1,-1.817322671E-1,-3.173442483E-1,4.428769462E-3
1.802288892E1,-1.566868126E-1,-2.874118686E-1,1.985310577E-3
1.803288892E1,-1.627954692E-1,-2.177732885E-1,2.153298259E-2
1.804288892E1,-1.878409237E-1,-1.835648715E-1,1.542433538E-2
1.805288892E1,-2.263254076E-1,-1.499672979E-1,-1.145371422E-2
1.806288892E1,-2.733619809E-1,-1.108719558E-1,-5.054906011E-2
1.807288892E1,-3.246746361E-1,-7.360920310E-2,-9.697478265E-2
1.808288892E1,-3.704894781E-1,-5.039634556E-2,-1.501200199E-1
1.809288892E1,-4.230238497E-1,-5.345066637E-2,-2.118173689E-1
1.810288892E1,-5.213730931E-1,-1.401934624E-1,-3.437641561E-1
1.811288892E1,-5.195404887E-1,-1.811214089E-1,-3.889681399E-1
1.812288892E1,-5.195404887E-1,-1.811214089E-1,-3.889681399E-1
1.813288892E1,-5.195404887E-1,-1.811214089E-1,-3.889681399E-1
1.814288892E1,-5.195404887E-1,-1.811214089E-1,-3.889681399E-1
1.815288892E1,-1.127045527E-1,-4.581485875E-3,-2.075413018E-1
1.816288892E1,4.245510325E-2,1.108719558E-1,-8.659008145E-2
1.817288892E1,4.245510325E-2,1.108719558E-1,-8.659008145E-2
1.818288892E1,4.245510325E-2,1.108719558E-1,-8.659008145E-2
1.819288892E1,4.245510325E-2,1.108719558E-1,-8.659008145E-2
1.820288892E1,5.946768522E-1,3.222311735E-1,2.163988501E-1
1.821288892E1,6.673697829E-1,3.417788446E-1,2.218966335E-1
1.822288892E1,7.370083332E-1,3.454440236E-1,2.194531709E-1
1.823288892E1,7.999274135E-1,3.338375986E-1,2.035706937E-1
1.824288892E1,7.999274135E-1,3.338375986E-1,2.035706937E-1
1.825288892E1,7.999274135E-1,3.338375986E-1,2.035706937E-1
1.826288892E1,7.162389755E-1,1.915061027E-1,1.053741761E-2
1.827288892E1,6.319395900E-1,2.196058929E-1,-6.398808211E-2
1.828288892E1,5.342012644E-1,2.519817352E-1,-1.440113783E-1
1.829288892E1,4.095848203E-1,2.538143098E-1,-2.258672565E-1
1.830288892E1,2.580903769E-1,2.189950198E-1,-3.101665974E-1
1.831288892E1,-4.062250629E-2,7.238747925E-2,-4.805978537E-1
1.832288892E1,-1.475238502E-1,-5.192350596E-3,-5.587885380E-1
1.833288892E1,-1.737910360E-1,-3.023780696E-2,-6.107120514E-1
1.834288892E1,-1.188132018E-1,-1.985310577E-2,-6.137663722E-1
1.835288892E1,8.246674202E-3,1.618791744E-2,-5.386300087E-1
1.836288892E1,1.847866029E-1,1.346956789E-1,-3.639226854E-1
1.837288892E1,3.906480372E-1,3.448331654E-1,-1.067486182E-1
1.838288892E1,7.357866168E-1,7.229584455E-1,4.094321132E-1
1.839288892E1,7.858775258E-1,7.522799969E-1,5.505418777E-1
1.840288892E1,6.930260658E-1,6.301070452E-1,5.731438994E-1
1.841288892E1,4.541779757E-1,4.242455959E-1,4.833467603E-1
1.842288892E1,1.646280587E-1,2.330449075E-1,3.061959743E-1
1.843288892E1,-1.004872546E-1,5.711585656E-2,7.712167501E-2
1.844288892E1,-3.118464649E-1,-1.072067693E-1,-1.507308781E-1
1.845288892E1,-3.118464649E-1,-1.072067693E-1,-1.507308781E-1
1.846288892E1,-6.044507027E-1,-3.179551065E-1,-5.349648595E-1
1.847288892E1,-5.934551358E-1,-2.806923687E-1,-5.606211424E-1
1.848288892E1,-5.934551358E-1,-2.806923687E-1,-5.606211424E-1
1.849288892E1,-5.934551358E-1,-2.806923687E-1,-5.606211424E-1
1.850288892E1,-3.430005610E-1,4.856374860E-2,-3.217730224E-1
1.851288892E1,-3.430005610E-1,4.856374860E-2,-3.217730224E-1
1.852288892E1,-3.430005610E-1,4.856374860E-2,-3.217730224E-1
1.853288892E1,-3.430005610E-1,4.856374860E-2,-3.217730224E-1
1.854288892E1,-3.430005610E-1,4.856374860E-2,-3.217730224E-1
1.855288892E1,1.811214089E-1,1.988364905E-1,2.481638193E-1
1.856288892E1,1.841757298E-1,1.963930279E-1,2.096793354E-1
1.857288892E1,1.774562150E-1,2.055560052E-1,1.498145908E-1
1.858288892E1,1.774562150E-1,2.055560052E-1,1.498145908E-1
1.859288892E1,1.774562150E-1,2.055560052E-1,1.498145908E-1
1.860288892E1,-4.612028971E-2,2.819140851E-1,-4.566214234E-2
1.861288892E1,-1.078176349E-1,3.570504785E-1,-6.520981342E-2
1.862288892E1,-1.701258421E-1,4.700604379E-1,-6.459894776E-2
1.863288892E1,-2.373209596E-1,5.971203446E-1,-4.627300799E-2
1.864288892E1,-3.161225319E-1,6.973021626E-1,-1.817322709E-2
1.865288892E1,-3.161225319E-1,6.973021626E-1,-1.817322709E-2
1.866288892E1,-6.808087826E-1,5.904008150E-1,-1.878409274E-2
1.867288892E1,-8.176425099E-1,3.924806118E-1,-1.146898642E-1
1.868288892E1,-9.318742156E-1,1.798996776E-1,-2.435823381E-1
1.869288892E1,-9.886846542E-1,1.313359290E-2,-3.590357602E-1
1.870288892E1,-9.703587294E-1,-1.120936871E-1,-4.347830117E-1
1.871288892E1,-8.878919482E-1,-1.957821548E-1,-4.604393244E-1
1.872288892E1,-8.878919482E-1,-1.957821548E-1,-4.604393244E-1
1.873288892E1,-5.323686600E-1,-4.248564541E-1,-2.374736816E-1
1.874288892E1,-4.694495797E-1,-5.268708467E-1,-1.293506175E-1
1.875288892E1,-4.334085584E-1,-6.111702323E-1,-3.222311661E-2
1.876288892E1,-4.022544622E-1,-6.588176489E-1,4.902189970E-2
1.877288892E1,-3.546070158E-1,-6.545416117E-1,1.186604798E-1
1.878288892E1,-2.788597643E-1,-5.952877402E-1,1.864664704E-1
1.879288892E1,-7.544180006E-2,-3.613265157E-1,3.171915412E-1
1.880288892E1,3.023780696E-2,-2.171624303E-1,3.801106215E-1
1.881288892E1,1.359174103E-1,-9.560033679E-2,4.430296719E-1
1.882288892E1,2.281579971E-1,-1.374445762E-2,4.943423271E-1
1.883288892E1,2.971857190E-1,1.557705179E-2,5.248855352E-1
1.884288892E1,3.436114490E-1,-3.359756200E-3,5.303833485E-1
1.885288892E1,3.772090077E-1,-6.017018110E-2,5.157225728E-1
1.886288892E1,4.266890585E-1,-2.043342739E-1,4.295906425E-1
1.887288892E1,4.584540129E-1,-2.483165264E-1,3.697259128E-1
1.888288892E1,4.883863926E-1,-2.727511227E-1,3.068068326E-1
1.889288892E1,5.177078843E-1,-2.819140851E-1,2.530507445E-1
1.890288892E1,5.500837564E-1,-2.721402645E-1,2.218966335E-1
1.891288892E1,5.891790986E-1,-2.397644222E-1,2.121227980E-1
1.892288892E1,6.386591196E-1,-1.860083193E-1,2.243400961E-1
1.893288892E1,6.386591196E-1,-1.860083193E-1,2.243400961E-1
1.894288892E1,6.386591196E-1,-1.860083193E-1,2.243400961E-1
1.895288892E1,6.386591196E-1,-1.860083193E-1,2.243400961E-1
1.896288892E1,6.386591196E-1,-1.860083193E-1,2.243400961E-1
1.897288892E1,4.560105503E-1,2.229656465E-2,2.237292230E-1
1.898288892E1,3.008508980E-1,-9.468403645E-3,1.333212405E-1
1.899288892E1,3.008508980E-1,-9.468403645E-3,1.333212405E-1
1.900288892E1,3.008508980E-1,-9.468403645E-3,1.333212405E-1
1.901288892E1,3.008508980E-1,-9.468403645E-3,1.333212405E-1
1.902288892E1,3.008508980E-1,-9.468403645E-3,1.333212405E-1
1.903288892E1,-2.122755051E-1,-1.798996776E-1,-1.843284518E-1
1.904288892E1,-2.452622056E-1,-1.896735132E-1,-1.238528341E-1
1.905288892E1,-3.002400398E-1,-2.232710719E-1,-6.337722391E-2
1.906288892E1,-3.924806118E-1,-3.039052188E-1,-3.711003438E-2
1.907288892E1,-3.924806118E-1,-3.039052188E-1,-3.711003438E-2
1.908288892E1,-3.924806118E-1,-3.039052188E-1,-3.711003438E-2
1.909288892E1,-9.813542962E-1,-7.596103549E-1,-3.101665974E-1
1.910288892E1,-1.027169108E0,-7.418952584E-1,-3.975202441E-1
1.911288892E1,-9.923498631E-1,-6.472112536E-1,-4.524980783E-1
1.912288892E1,-9.080504775E-1,-5.287034512E-1,-4.427242577E-1
1.913288892E1,-7.932079434E-1,-4.169152081E-1,-3.614792228E-1
1.914288892E1,-7.932079434E-1,-4.169152081E-1,-3.614792228E-1
1.915288892E1,-7.932079434E-1,-4.169152081E-1,-3.614792228E-1
1.916288892E1,-1.902843714E-1,-1.108719558E-1,2.994764447E-1
1.917288892E1,-2.046396956E-2,-2.412915789E-2,4.204276800E-1
1.918288892E1,1.530216336E-1,9.498947114E-2,5.090031028E-1
1.919288892E1,3.338375986E-1,2.489273995E-1,5.725330114E-1
1.920288892E1,5.109884143E-1,4.260781705E-1,6.177369952E-1
1.921288892E1,5.109884143E-1,4.260781705E-1,6.177369952E-1
1.922288892E1,5.109884143E-1,4.260781705E-1,6.177369952E-1
1.923288892E1,7.828232050E-1,6.447677612E-1,6.293434501E-1
1.924288892E1,7.394518256E-1,6.203331947E-1,5.945241451E-1
1.925288892E1,7.192932963E-1,5.824595690E-1,5.364919901E-1
1.926288892E1,7.400626540E-1,5.061014891E-1,4.552469850E-1
1.927288892E1,8.011491299E-1,3.979783952E-1,3.538434207E-1
1.928288892E1,1.019838691E0,1.725693047E-1,1.797469556E-1
1.929288892E1,1.105970740E0,6.383536756E-2,1.211039424E-1
1.930288892E1,1.083979607E0,-8.216131479E-2,5.574141070E-2
1.931288892E1,9.337068200E-1,-2.513708472E-1,-2.428187430E-2
1.932288892E1,6.838631034E-1,-3.992001414E-1,-1.134681329E-1
1.933288892E1,3.607156575E-1,-5.140427351E-1,-2.002109289E-1
1.934288892E1,-2.718348242E-2,-6.227766275E-1,-2.997818887E-1
1.935288892E1,-7.962622643E-1,-7.480039001E-1,-5.936078429E-1
1.936288892E1,-1.043051600E0,-6.765327454E-1,-7.560978532E-1
1.937288892E1,-1.168278933E0,-5.885682106E-1,-8.990402222E-1
1.938288892E1,-1.159115911E0,-4.169152081E-1,-9.833396077E-1
1.939288892E1,-1.043662429E0,-1.860083193E-1,-9.772309065E-1
1.940288892E1,-8.671225309E-1,4.489856213E-2,-8.587231636E-1
1.941288892E1,-6.496546865E-1,2.874118686E-1,-6.235402226E-1
1.942288892E1,-1.890626550E-1,7.528908253E-1,3.558287397E-2
1.943288892E1,4.581485875E-3,8.830050230E-1,3.617846668E-1
1.944288892E1,4.581485875E-3,8.830050230E-1,3.617846668E-1
1.945288892E1,4.581485875E-3,8.830050230E-1,3.617846668E-1
1.946288892E1,1.591302752E-1,7.938187718E-1,7.319687009E-1
1.946288892E1,1.591302752E-1,7.938187718E-1,7.319687009E-1
1.948288892E1,-1.438586563E-1,3.533852696E-1,3.782780170E-1
1.949288892E1,-1.438586563E-1,3.533852696E-1,3.782780170E-1
1.950288892E1,-1.438586563E-1,3.533852696E-1,3.782780170E-1
1.951288892E1,-1.438586563E-1,3.533852696E-1,3.782780170E-1
1.952288892E1,-1.414151937E-1,2.574795187E-1,-1.036942974E-1
1.953288892E1,-5.039634556E-2,3.216203153E-1,-2.367101051E-2
1.954288892E1,5.283980444E-2,4.059196413E-1,7.773254067E-2
1.955288892E1,1.536324918E-1,4.737256467E-1,1.638644785E-1
1.956288892E1,1.536324918E-1,4.737256467E-1,1.638644785E-1
1.957288892E1,1.536324918E-1,4.737256467E-1,1.638644785E-1
1.958288892E1,1.536324918E-1,4.737256467E-1,1.638644785E-1
1.959288892E1,1.536324918E-1,4.737256467E-1,1.638644785E-1
1.960288892E1,1.762344837E-1,1.860083193E-1,6.185005978E-2
1.961288892E1,1.627954692E-1,2.214384824E-1,8.704823442E-3
1.962288892E1,1.450803876E-1,2.623664141E-1,-2.550360374E-2
1.963288892E1,1.450803876E-1,2.623664141E-1,-2.550360374E-2
1.964288892E1,1.450803876E-1,2.623664141E-1,-2.550360374E-2
1.965288892E1,1.450803876E-1,2.623664141E-1,-2.550360374E-2
1.966288892E1,-2.428187430E-1,-6.933315098E-2,-5.482511222E-2
1.967288892E1,-2.428187430E-1,-6.933315098E-2,-5.482511222E-2
1.968288892E1,-4.272999167E-1,-2.959639728E-1,-1.629481763E-1
1.969288892E1,-4.987711012E-1,-3.680460155E-1,-2.350302190E-1
1.970288892E1,-4.987711012E-1,-3.680460155E-1,-2.350302190E-1
1.971288892E1,-4.816668928E-1,-3.759872615E-1,-3.865246773E-1
1.972288892E1,-4.816668928E-1,-3.759872615E-1,-3.865246773E-1
1.973288892E1,-2.709185183E-1,-9.865466505E-2,-2.643517256E-1
1.974288892E1,-1.328630894E-1,1.120936871E-1,-9.758564830E-2
1.975288892E1,2.748891478E-3,3.167333901E-1,1.052214578E-1
1.976288892E1,1.078176349E-1,4.663952589E-1,2.988655865E-1
1.977288892E1,1.554650813E-1,4.920515716E-1,5.499309897E-1
1.978288892E1,1.023198515E-1,4.053087831E-1,5.725330114E-1
1.979288892E1,1.252272818E-2,2.776380479E-1,5.169443488E-1
1.980288892E1,-1.053741723E-1,1.102610901E-1,3.966039717E-1
1.981288892E1,-2.415970266E-1,-7.605266571E-2,2.396117151E-1
1.982288892E1,-3.753764033E-1,-2.525925934E-1,8.323032409E-2
1.983288892E1,-4.682278633E-1,-3.784307241E-1,-3.527744114E-2
