"Time (s)","Linear Acceleration x (m/s^2)","Linear Acceleration y (m/s^2)","Linear Acceleration z (m/s^2)"
3.089303400E-2,0.000000000E0,0.000000000E0,0.000000000E0
4.089303400E-2,4.266691208E-2,6.082725525E-2,-4.140715599E-1
5.089303400E-2,2.179529667E-1,2.013080120E-1,-6.578483582E-1
6.089303400E-2,1.282129288E-1,3.280923367E-1,-6.193952560E-1
7.089303400E-2,-1.458077431E-1,1.468312740E-1,-4.724740982E-1
8.089303400E-2,1.960194111E-1,4.018697739E-1,-3.735718727E-1
9.089303400E-2,3.219985962E-2,3.457281590E-1,1.392364502E-4
1.008930340E-1,1.636116505E-1,1.548581123E-1,3.614912033E-1
1.108930340E-1,1.764371395E-1,-5.811429024E-2,6.398143768E-1
1.208930340E-1,3.389835358E-2,-1.960697174E-1,6.928186417E-1
1.308930340E-1,-8.298635483E-3,-2.734861374E-1,4.190778732E-1
1.408930340E-1,3.551220894E-2,-2.084484100E-1,-7.521533966E-2
1.508930340E-1,4.799175262E-2,2.716255188E-2,-4.261755943E-1
1.608930340E-1,9.375357628E-2,-4.985570908E-3,-4.941296577E-1
1.708930340E-1,2.101776600E-1,-2.060310841E-1,-6.688165665E-2
1.808930340E-1,-3.068501949E-1,-3.827893734E-1,9.170308113E-1
1.908930340E-1,-8.095684052E-1,-5.324864388E-1,1.658995152E0
2.008930340E-1,-8.707220554E-1,-8.681945801E-1,2.742486000E0
2.108930340E-1,-5.419812202E-1,-1.326430440E0,3.277677536E0
2.208930340E-1,-2.039027214E-1,-1.649962187E0,2.913838387E0
2.308930340E-1,1.335680485E-1,-1.676015973E0,1.959524155E0
2.408930340E-1,4.909229279E-2,-1.454564691E0,1.393354416E0
2.508930340E-1,-1.273114681E-1,-9.839223623E-1,1.513789177E0
2.608930340E-1,-9.958529472E-2,-3.267946243E-1,1.785634995E0
2.708930340E-1,-1.502583027E-1,-1.552206278E-1,1.564096451E0
2.808930340E-1,-4.037530422E-1,1.379457712E-1,1.330354691E0
2.908930340E-1,-4.995222092E-1,3.446915150E-1,1.075028419E0
3.008930340E-1,-3.935389519E-1,5.177730322E-1,7.015304565E-1
3.108930340E-1,-2.108945847E-1,5.867069960E-1,3.970851898E-1
3.208930340E-1,-1.218693256E-1,5.823577642E-1,2.349014282E-1
3.308930340E-1,-1.693942547E-1,4.074827433E-1,8.328437805E-2
3.408930340E-1,-1.835302114E-1,3.204376698E-1,8.207416534E-2
3.508930340E-1,-3.753232956E-2,4.605506659E-1,1.028156281E-2
3.608930340E-1,1.031899452E-1,7.314976454E-1,-2.845582962E-1
3.708930340E-1,2.970676422E-1,9.115366936E-1,-5.269422531E-1
3.808930340E-1,3.669059277E-1,9.644191265E-1,-6.756858826E-1
3.908930340E-1,1.827372313E-1,9.327489138E-1,-5.546836853E-1
4.008930340E-1,-1.481442451E-1,8.739603758E-1,-2.277879715E-1
4.108930340E-1,-5.474004745E-1,8.257832527E-1,-4.481410980E-2
4.208930340E-1,-8.448362350E-1,7.036104202E-1,1.866722107E-2
4.308930340E-1,-1.092907071E0,5.251374245E-1,-1.444816589E-2
4.408930340E-1,-1.256256461E0,3.576251268E-1,-4.150676727E-2
4.508930340E-1,-1.112691045E0,1.352468729E-1,-9.054565430E-2
4.608930340E-1,-1.239655256E0,5.844104290E-2,-2.571878433E-1
4.708930340E-1,-1.244433284E0,1.377618313E-1,-5.944080353E-1
4.808930340E-1,-1.240143299E0,2.072676420E-1,-7.157258987E-1
4.908930340E-1,-1.277691364E0,2.709343433E-1,-6.707000732E-1
5.008930340E-1,-1.018965602E0,1.922369003E-1,-7.297277451E-1
5.108930340E-1,-1.031117439E0,2.377913594E-1,-7.440414429E-1
5.208930340E-1,-9.155902863E-1,3.553805351E-1,-9.633693695E-1
5.308930340E-1,-8.597912788E-1,4.026294947E-1,-1.205115318E0
5.408930340E-1,-7.577490807E-1,4.063234329E-1,-1.287434578E0
5.508930340E-1,-5.415748358E-1,3.777484596E-1,-8.629980087E-1
5.608930340E-1,-3.118586540E-1,3.104507923E-1,-2.119922638E-2
5.708930340E-1,-3.286862373E-2,2.384644002E-1,1.112413406E0
5.808930340E-1,-4.662215710E-2,1.633466184E-1,1.666193008E0
5.908930340E-1,-3.030351996E-1,1.745700836E-1,1.752970695E0
6.008930340E-1,-6.813017130E-1,2.113397121E-1,1.689509392E0
6.108930340E-1,-1.094312429E0,2.264750600E-1,1.733354568E0
6.208930340E-1,-1.460912228E0,2.998728156E-1,1.660852432E0
6.308930340E-1,-1.735866904E0,3.241850138E-1,1.144624710E0
6.408930340E-1,-1.811717749E0,3.050899506E-1,5.108871460E-1
6.508930340E-1,-1.689337969E0,3.116638660E-1,-2.843914032E-1
6.608930340E-1,-1.537615061E0,3.214956522E-1,-5.172786713E-1
6.708930340E-1,-1.058995008E0,4.507954717E-1,-8.074855804E-2
6.808930340E-1,-3.598818481E-1,5.457088351E-1,1.471748352E-1
6.908930340E-1,1.047625542E-1,4.259940982E-1,7.669448853E-2
7.008930340E-1,6.321383715E-1,5.252850056E-2,9.421539307E-2
7.108930340E-1,1.058752894E0,-5.350584984E-1,5.221405029E-1
7.208930340E-1,1.150912762E0,-1.073760390E0,8.800659180E-1
7.308930340E-1,1.049430370E0,-1.434577465E0,4.600830078E-1
7.408930340E-1,7.660365105E-1,-1.433813334E0,-2.338991165E-1
7.508930340E-1,8.142712712E-1,-1.336898685E0,-5.586280823E-1
7.608930340E-1,1.091101289E0,-1.283662319E0,-3.371877670E-1
7.708930340E-1,1.218703508E0,-1.095249891E0,3.629970551E-1
7.808930340E-1,1.065075159E0,-8.419731855E-1,8.914289474E-1
7.908930340E-1,6.759893894E-1,-6.338177323E-1,9.061737061E-1
8.008930340E-1,1.394080371E-1,-4.844057560E-1,4.330043793E-1
8.108930340E-1,-2.841166854E-1,-5.301191807E-1,-2.204046249E-1
8.208930340E-1,-5.891970396E-1,-7.235395908E-1,-6.878185272E-1
8.308930340E-1,-6.828129292E-1,-8.913671970E-1,-8.250312805E-1
8.408930340E-1,-4.557680488E-1,-7.688966990E-1,-5.314006805E-1
8.508930340E-1,-1.334204674E-1,-6.184870005E-1,1.226976395E0
8.608930340E-1,-1.458539963E-1,-5.629636645E-1,3.794059753E0
8.708930340E-1,-1.716500401E0,9.528891742E-2,5.778617859E-1
8.808930340E-1,-1.979414701E0,4.148128629E-2,-1.312543869E0
8.908930340E-1,-1.436877489E0,2.995318174E-2,-1.686643600E0
9.008930340E-1,-9.945138693E-1,2.494856715E-2,-1.687667847E0
9.108930340E-1,-1.120700717E0,-2.980369329E-2,-1.467110634E0
9.208930340E-1,-7.463631630E-1,-4.136423171E-1,-5.939950943E-1
9.308930340E-1,6.347358227E-2,-1.053819656E0,1.692819595E-1
9.408930340E-1,7.556018233E-1,-1.342789292E0,4.838695526E-1
9.508930340E-1,8.384653330E-1,-1.350426555E0,7.349586487E-2
9.608930340E-1,6.723439693E-1,-1.144884944E0,1.878614426E-1
9.708930340E-1,1.156915426E-1,-1.976164281E-1,8.225955963E-1
9.808930340E-1,-2.774487734E-1,1.105996013E0,1.790596008E0
9.908930340E-1,-2.209627628E-2,1.771054983E0,2.445901871E0
1.000893034E0,-1.809263229E-2,1.564238667E0,2.192965508E0
1.010893034E0,-1.930088997E-1,1.028795481E0,1.426161766E0
1.020893034E0,-5.193240643E-1,4.868460000E-1,1.037277222E0
1.030893034E0,-1.212029576E0,3.478353024E-1,1.024615288E0
1.040893034E0,-1.764013171E0,8.619813621E-2,1.246691704E0
1.050893034E0,-1.401706696E0,-4.215781391E-1,1.011916161E0
1.060893034E0,-3.618598580E-1,-1.047161579E0,5.142145157E-1
1.070893034E0,4.739094675E-1,-1.676568389E0,5.547370911E-1
1.080893034E0,9.772816896E-1,-2.251067638E0,1.017359734E0
1.090893034E0,1.021388531E0,-2.648905754E0,1.149286270E0
1.100893034E0,3.263198137E-1,-2.360252857E0,2.201948166E-1
1.110893034E0,-7.403038740E-1,-1.499531746E0,-1.601598740E0
1.120893034E0,-1.362732053E0,-6.958414316E-1,-3.523932457E0
1.130893034E0,-1.146397948E0,-2.781996727E-1,-4.871864796E0
1.140893034E0,-7.509068251E-1,1.147483587E-1,-5.286248207E0
1.150893034E0,-6.237543821E-1,5.898733139E-1,-4.598615646E0
1.160893034E0,-5.318490267E-1,5.826754570E-1,-3.032328606E0
1.170893034E0,-4.832811058E-1,3.768531084E-1,-9.932250977E-1
1.180893034E0,-5.908247232E-1,8.684098721E-2,7.795381546E-1
1.190893034E0,-7.668986917E-1,-4.301320314E-1,1.766527176E0
1.200893034E0,-8.553984761E-1,-5.305972099E-1,2.033555031E0
1.210893034E0,-3.113667965E-1,-4.651858807E-1,1.493295670E0
1.220893034E0,4.729135334E-1,-3.886446953E-1,7.290916443E-1
1.230893034E0,7.728596330E-1,-1.391507387E-1,5.198764801E-2
1.240893034E0,7.759656906E-1,-1.023240089E-1,-2.115888596E-1
1.250893034E0,3.265413642E-1,-2.455401421E-2,6.270217896E-2
1.260893034E0,-8.180902898E-2,8.647203445E-3,4.444637299E-1
1.270893034E0,-5.333238095E-2,-2.930011749E-1,7.138748169E-1
1.280893034E0,1.267799884E-1,-4.670233727E-1,7.745981216E-1
1.290893034E0,-5.912682414E-2,-2.701265812E-1,8.443670273E-1
1.300893034E0,-1.631655544E-1,-7.974410057E-2,6.791543961E-1
1.310893034E0,-2.077976763E-1,5.537605286E-2,4.186735153E-1
1.320893034E0,7.314726710E-2,-2.222591639E-1,-1.161146164E-1
1.330893034E0,2.306067944E-1,-3.955969810E-1,-5.939712524E-1
1.340893034E0,6.494760513E-2,-2.497160435E-1,-9.904518127E-1
1.350893034E0,4.048832059E-1,1.022124290E-1,-1.124754906E0
1.360893034E0,3.301208615E-1,-1.944565773E-2,-1.207260132E0
1.370893034E0,3.309676647E-1,2.206194401E-1,-9.939594269E-1
1.380893034E0,3.235974610E-1,1.955139637E-1,-8.075952530E-1
1.390893034E0,3.021242917E-1,1.363260746E-1,-7.227210999E-1
1.400893034E0,2.147412598E-1,5.185294151E-2,-7.159500122E-1
1.410893034E0,1.386106610E-1,7.081747055E-3,-9.025688171E-1
1.420893034E0,1.295624226E-1,-4.526448250E-2,-1.226570129E0
1.430893034E0,9.183225036E-2,-1.129653454E-1,-1.364011765E0
1.440893034E0,1.819813997E-2,-1.065568924E-1,-1.210249901E0
1.450893034E0,-1.391727626E-1,-5.591368675E-2,-1.120795250E0
1.460893034E0,-1.573804319E-1,3.198862076E-2,-1.176882744E0
1.470893034E0,1.960719675E-1,-6.429958344E-2,-1.147489548E0
1.480893034E0,6.439923048E-1,-3.498699665E-1,-8.156690598E-1
1.490893034E0,1.011350513E0,-5.698912144E-1,-3.296499252E-1
1.500893034E0,1.312031031E0,-8.244061470E-1,-1.102647781E-1
1.510893034E0,1.515308022E0,-1.177049160E0,-1.139955521E-1
1.520893034E0,1.392499089E0,-1.307090044E0,-2.746934891E-1
1.530893034E0,9.808387160E-1,-1.123599291E0,-3.632249832E-1
1.540893034E0,4.904372990E-1,-6.366778612E-1,-3.444299698E-1
1.550893034E0,1.996143162E-1,-5.467653275E-1,-9.232683182E-1
1.560893034E0,8.235090226E-2,-4.950662851E-1,-1.116368294E0
1.570893034E0,-1.091267020E-1,-1.492512226E-2,-1.000267982E0
1.580893034E0,-3.033037484E-1,5.311670303E-1,-1.088690758E0
1.590893034E0,-3.358310759E-1,8.502796888E-1,-9.847469330E-1
1.600893034E0,-2.475151420E-2,9.054132700E-1,-8.002853394E-1
1.610893034E0,1.805183291E-1,7.898707390E-1,-6.290254593E-1
1.620893034E0,3.306728005E-1,6.410722733E-1,-3.637933731E-1
1.630893034E0,5.465950966E-1,4.536015987E-1,-8.371639252E-2
1.640893034E0,6.193079948E-1,3.145432472E-1,2.791309357E-2
1.650893034E0,6.172933578E-1,1.255416870E-1,-9.916305542E-2
1.660893034E0,5.881606340E-1,-9.389889240E-2,-1.077976227E-1
1.670893034E0,5.415869355E-1,-1.059715748E-1,-7.755565643E-2
1.680893034E0,4.530417323E-1,3.964459896E-2,-4.211425781E-3
1.690893034E0,4.740180373E-1,2.541739941E-1,-6.998825073E-2
1.700893034E0,2.519768476E-1,5.848791599E-1,4.431343079E-2
1.710893034E0,2.407388389E-2,8.078759909E-1,4.364967346E-2
1.720893034E0,-8.491475880E-2,8.179966211E-1,-5.945396423E-2
1.730893034E0,2.643550932E-1,3.869932890E-1,-1.373767853E-1
1.740893034E0,1.050240636E0,-3.169653416E-1,-1.481409073E-1
1.750893034E0,1.497832417E0,-7.880145311E-1,-5.954551697E-2
1.760893034E0,1.528071165E0,-9.250879288E-1,1.803140640E-1
1.770893034E0,1.234537125E0,-7.249565125E-1,7.779054642E-1
1.780893034E0,4.404831231E-1,-2.353730202E-1,1.515646935E0
1.790893034E0,-1.618747562E-1,5.566251278E-2,1.810738564E0
1.800893034E0,-2.127105594E-1,-1.156461239E-1,1.544631004E0
1.810893034E0,-3.418275714E-2,-2.103123665E-1,1.171369553E0
1.820893034E0,4.102784395E-2,-9.983539581E-2,9.414548874E-1
1.830893034E0,3.159215450E-1,-2.151370049E-2,1.118935585E0
1.840893034E0,6.268432736E-1,1.565654278E-1,1.686099052E0
1.850893034E0,6.474027634E-1,4.857288599E-1,2.214435577E0
1.860893034E0,6.388136744E-1,8.043762445E-1,2.359950066E0
1.870893034E0,6.038634777E-1,9.623916149E-1,2.194218636E0
1.880893034E0,5.796253085E-1,8.851382732E-1,1.704241753E0
1.890893034E0,6.343978643E-1,6.207510233E-1,1.144359589E0
1.900893034E0,6.163152456E-1,3.531069756E-1,7.277078629E-1
1.910893034E0,5.527187586E-1,2.424649000E-1,4.609756470E-1
1.920893034E0,4.126041532E-1,2.616080046E-1,2.923994064E-1
1.930893034E0,3.128993511E-1,3.014843464E-1,1.463804245E-1
1.940893034E0,1.006044447E-3,3.836234808E-1,1.781845093E-1
1.950893034E0,-3.444445431E-1,4.702404737E-1,3.020772934E-1
1.960893034E0,-4.822120368E-1,4.264999628E-1,3.346138000E-1
1.970893034E0,-3.306592107E-1,2.412724495E-1,3.014287949E-1
1.980893034E0,3.967949003E-2,1.179540157E-2,4.295721054E-1
1.990893034E0,3.891453743E-1,-1.898486614E-1,5.156154633E-1
2.000893034E0,5.340453982E-1,-3.103280067E-1,6.796693802E-1
2.010893034E0,4.720053077E-1,-2.866905928E-1,8.811683655E-1
2.020893034E0,3.971334100E-1,-2.488844395E-1,7.851676941E-1
2.030893034E0,1.367842257E-1,-1.550976038E-1,5.021476746E-1
2.040893034E0,-5.811476707E-2,-2.310025692E-2,-6.756973267E-2
2.050893034E0,2.875331044E-2,7.635235786E-3,-6.017837524E-1
2.060893034E0,1.340413392E-1,-2.137279510E-2,-8.960752487E-1
2.070893034E0,1.847059578E-1,3.056645393E-3,-9.236669540E-1
2.080893034E0,3.855238557E-1,-5.688309669E-3,-9.521322250E-1
2.090893034E0,5.062253475E-1,-1.119554043E-2,-1.046195030E0
2.100893034E0,4.868779182E-1,-4.305112362E-2,-1.115064621E0
2.110893034E0,4.187524915E-1,-1.824569702E-1,-1.153155327E0
2.120893034E0,3.475500047E-1,-3.363928795E-1,-1.249818802E0
2.130893034E0,2.362874150E-1,-4.588117599E-1,-1.274191856E0
2.140893034E0,7.010856271E-2,-5.297908783E-1,-1.171135902E0
2.150893034E0,-9.968310595E-3,-5.721600056E-1,-1.022015572E0
2.160893034E0,-8.492085338E-2,-6.311452389E-1,-8.146066666E-1
2.170893034E0,-1.734709442E-1,-6.455960274E-1,-4.069366455E-1
2.180893034E0,-2.489169538E-1,-6.045123339E-1,4.131984711E-2
2.190893034E0,-2.578674853E-1,-5.706462860E-1,3.176889420E-1
2.200893034E0,-2.168899775E-1,-4.930698872E-1,4.154033661E-1
2.210893034E0,-3.622606397E-2,-4.252049923E-1,3.319807053E-1
2.220893034E0,5.723753572E-2,-2.303624153E-1,2.392854691E-1
2.230893034E0,1.126762033E-1,-3.806734085E-2,3.480625153E-2
2.240893034E0,1.357512772E-1,4.401373863E-2,-6.604099274E-2
2.250893034E0,9.790429473E-2,1.291489601E-2,-6.924819946E-2
2.260893034E0,-1.674669981E-1,-6.467986107E-2,-2.668762207E-2
2.270893034E0,-3.332070708E-1,3.361916542E-2,1.565885544E-1
2.280893034E0,-5.753317475E-1,1.263244152E-1,9.341716766E-2
2.290893034E0,-7.299906015E-1,2.190957069E-1,-5.029487610E-2
2.300893034E0,-8.479391336E-1,3.052449226E-1,-1.645059586E-1
2.310893034E0,-8.752486706E-1,4.570434093E-1,-2.411823273E-1
2.320893034E0,-6.910142899E-1,4.789130688E-1,-3.484296799E-1
2.330893034E0,-3.595433235E-1,3.614499569E-1,-3.924980164E-1
2.340893034E0,4.103046656E-2,1.426782608E-1,-3.484258652E-1
2.350893034E0,3.311882317E-1,-8.310031891E-2,1.212215424E-2
2.360893034E0,5.764029026E-1,-5.616593361E-2,7.064132690E-1
2.370893034E0,3.729758263E-1,-6.999278069E-2,1.216944695E0
2.380893034E0,-5.963575840E-2,-1.040184498E-2,1.560118675E0
2.390893034E0,-6.321637034E-1,4.820716381E-2,1.710305214E0
2.400893034E0,-8.938158154E-1,-2.924382687E-2,1.385004997E0
2.410893034E0,-9.916357398E-1,-4.830956459E-3,8.642616272E-1
2.420893034E0,-9.256861806E-1,3.021919727E-2,3.635654449E-1
2.430893034E0,-5.859488845E-1,-6.152892113E-2,7.442855835E-2
2.440893034E0,-2.230628729E-1,-1.756787300E-1,5.292320251E-2
2.450893034E0,-2.014085054E-1,-7.866644859E-2,2.812519073E-1
2.460893034E0,-5.090422034E-1,1.759414673E-1,4.081792831E-1
2.470893034E0,-8.268198967E-1,3.492386341E-1,3.732137680E-1
2.480893034E0,-9.663234353E-1,3.190255165E-1,2.976837158E-1
2.490893034E0,-8.042017817E-1,1.893115044E-2,7.599925995E-2
2.500893034E0,-4.136324227E-1,-3.040966988E-1,-1.465377808E-1
2.510893034E0,6.934398413E-2,-5.177448988E-1,-2.540588379E-1
2.520893034E0,4.566340148E-1,-4.953975677E-1,-1.305484772E-1
2.530893034E0,4.708284140E-1,-3.097112179E-1,9.505367279E-2
2.540893034E0,9.257052094E-2,3.626382351E-2,1.971225739E-1
2.550893034E0,-4.191275835E-1,3.419675827E-1,6.600379944E-2
2.560893034E0,-7.033016086E-1,4.703905582E-1,-3.568592072E-1
2.570893034E0,-6.467036009E-1,4.433640242E-1,-1.045570374E0
2.580893034E0,1.227978617E-1,1.079400778E-1,-1.697709084E0
2.590893034E0,9.390308261E-1,-3.034769297E-1,-1.737030983E0
2.600893034E0,1.305622935E0,-5.142083168E-1,-8.591775894E-1
2.610893034E0,1.080538511E0,-4.747837782E-1,4.404535294E-1
2.620893034E0,1.415373087E-1,-3.780145645E-1,1.188065529E0
2.630893034E0,-7.738611698E-1,-4.229851961E-1,1.253425598E0
2.640893034E0,-1.114176989E0,-7.497742176E-1,7.670831680E-1
2.650893034E0,-8.309443593E-1,-1.099259138E0,1.026382446E-1
2.660893034E0,-6.436975002E-1,-9.541426897E-1,-4.008388519E-1
2.670893034E0,-4.632085562E-1,-5.912815332E-1,-8.552522659E-1
2.680893034E0,7.584786415E-2,-4.008871317E-1,-1.038474083E0
2.690893034E0,7.123787999E-1,-3.312103748E-1,-6.345663071E-1
2.700893034E0,9.662491083E-1,-2.116695642E-1,-4.234123230E-2
2.710893034E0,7.664393783E-1,-3.436779976E-2,2.578563690E-1
2.720893034E0,3.106888831E-1,1.247372627E-1,4.451780319E-1
2.730893034E0,-3.721127659E-2,1.554681063E-1,5.101623535E-1
2.740893034E0,5.311291665E-3,-9.947526455E-2,3.311281204E-1
2.750893034E0,2.632037699E-1,-4.865533113E-1,1.185636520E-1
2.760893034E0,4.060653150E-1,-7.138032317E-1,1.459569931E-1
2.770893034E0,2.361756116E-1,-6.424796581E-1,3.194837570E-1
2.780893034E0,-6.313715875E-2,-3.044663668E-1,3.661489487E-1
2.790893034E0,-3.755528331E-1,3.734016418E-2,7.337951660E-2
2.800893034E0,-4.743860364E-1,2.195593119E-1,-4.641122818E-1
2.810893034E0,-4.563729763E-1,3.780722618E-1,-6.730880737E-1
2.820893034E0,-5.876169354E-2,3.960117102E-1,-5.382814407E-1
2.830893034E0,6.252253056E-1,3.197338581E-1,-2.692728043E-1
2.840893034E0,9.725342989E-1,3.431429863E-1,2.674264908E-1
2.850893034E0,9.653508663E-1,4.424736500E-1,8.512086868E-1
2.860893034E0,5.691626668E-1,5.020670891E-1,1.154330254E0
2.870893034E0,8.878163993E-2,4.008831978E-1,1.403214455E0
2.880893034E0,-8.304616809E-2,4.847645760E-2,1.642184258E0
2.890893034E0,-1.281718314E-1,-3.345941305E-1,1.765565872E0
2.900893034E0,-2.175081372E-1,-5.734398365E-1,1.898746490E0
2.910893034E0,-4.068610668E-1,-7.117245197E-1,1.958205223E0
2.920893034E0,-5.563563108E-1,-6.740630269E-1,1.889755249E0
2.930893034E0,-9.496909380E-1,-1.607228518E-1,1.630866051E0
2.940893034E0,-8.179749250E-1,3.720028400E-1,1.192732811E0
2.950893034E0,-4.846377373E-1,7.245612144E-1,6.698589325E-1
2.960893034E0,-7.821434736E-2,9.368844032E-1,-1.116895676E-1
2.970893034E0,7.731975317E-1,6.753293276E-1,-8.266277313E-1
2.980893034E0,1.194569945E0,5.776544809E-1,-5.938138962E-1
2.990893034E0,1.207792759E0,4.988318682E-1,-9.424018860E-2
3.000893034E0,1.002017379E0,3.276448250E-1,1.081085205E-1
3.010893034E0,5.119568110E-1,2.677561045E-1,-9.329795837E-2
3.020893034E0,-2.183943540E-1,4.384571314E-1,-4.629030228E-1
3.030893034E0,-7.577906847E-1,5.347809792E-1,-9.100646973E-1
3.040893034E0,-7.147922516E-1,4.483983517E-1,-1.263708115E0
3.050893034E0,-1.583267748E-1,2.071652412E-1,-1.330230713E0
3.060893034E0,3.337355852E-1,2.515232563E-2,-1.103488922E0
3.070893034E0,5.059875250E-1,-7.493007183E-2,-7.583990097E-1
3.080893034E0,4.568758905E-1,-1.259528399E-1,-3.814382553E-1
3.090893034E0,-1.595747471E-2,-8.415853977E-2,1.135711670E-1
3.100893034E0,-6.456307173E-1,1.406061649E-2,5.456838608E-1
3.110893034E0,-1.079715490E0,1.951038837E-2,5.832109451E-1
3.120893034E0,-1.095453143E0,-9.974765778E-2,2.026834488E-1
3.130893034E0,-8.323842883E-1,-1.907538176E-1,-4.021654129E-1
3.140893034E0,-6.749475002E-1,-2.332878113E-2,-9.607095718E-1
3.150893034E0,-4.335420430E-1,1.264940500E-1,-1.404598236E0
3.160893034E0,-5.047304183E-2,1.270222664E-1,-1.620595455E0
3.170893034E0,3.679801822E-1,4.713606834E-2,-1.409162521E0
3.180893034E0,4.474782944E-1,7.620346546E-2,-8.847846985E-1
3.190893034E0,3.771869242E-1,9.980952740E-2,-4.267263412E-1
3.200893034E0,3.632017970E-1,-4.464221001E-2,-3.051719666E-1
3.210893034E0,4.065383077E-1,-2.712544203E-1,-5.870733261E-1
3.220893034E0,3.657620549E-1,-5.476893187E-1,-1.101397514E0
3.230893034E0,3.609336615E-1,-8.215726018E-1,-1.414812088E0
3.240893034E0,3.930251002E-1,-1.048066497E0,-1.362511635E0
3.250893034E0,3.423157334E-1,-1.085622072E0,-9.786624908E-1
3.260893034E0,1.420328617E-1,-9.352310896E-1,-4.008293152E-1
3.270893034E0,-1.993842125E-1,-6.722366810E-1,2.385902405E-2
3.280893034E0,-5.539035201E-1,-4.396069050E-1,1.847410202E-1
3.290893034E0,-8.593543172E-1,-2.919826508E-1,1.559858322E-1
3.300893034E0,-9.318981767E-1,-3.970407248E-1,3.924942017E-2
3.310893034E0,-6.932820678E-1,-5.899475813E-1,-1.791534424E-1
3.320893034E0,-4.506386518E-1,-6.092672348E-1,-4.230279922E-1
3.330893034E0,-3.273015618E-1,-3.968076706E-1,-4.531803131E-1
3.340893034E0,-4.276775122E-1,-9.464645386E-2,-1.087284088E-1
3.350893034E0,2.320849895E-2,-2.301046848E-1,2.005109787E-1
3.360893034E0,2.758768797E-1,-3.484396935E-1,5.863142014E-1
3.370893034E0,5.508148670E-2,-2.176128626E-1,8.008165359E-1
3.380893034E0,-3.659168482E-1,-1.153707504E-1,8.539876938E-1
3.390893034E0,-7.173008919E-1,-7.953333855E-2,7.657594681E-1
3.400893034E0,-8.746442795E-1,-9.308958054E-2,5.133199692E-1
3.410893034E0,-6.644680500E-1,-7.693481445E-2,2.299318314E-1
3.420893034E0,-3.275632858E-1,2.245950699E-2,-1.898670197E-2
3.430893034E0,-2.101569176E-1,7.549095154E-2,-1.048374176E-1
3.440893034E0,8.518016338E-2,2.164273262E-1,-8.777618408E-2
3.450893034E0,3.421456814E-1,2.984213829E-1,-5.168724060E-2
3.460893034E0,5.150805116E-1,3.749773502E-1,3.191947937E-3
3.470893034E0,7.559270859E-1,2.685093880E-1,2.553367615E-2
3.480893034E0,8.775342703E-1,1.678524017E-1,8.254432678E-2
3.490893034E0,7.982311249E-1,1.405279636E-1,2.261037827E-1
3.500893034E0,6.752227545E-1,1.049590111E-2,3.833370209E-1
3.510893034E0,4.966228008E-1,-1.633204222E-1,4.533939362E-1
3.520893034E0,2.655245066E-1,-2.767897844E-1,4.518861771E-1
3.530893034E0,7.026481628E-2,-2.943575382E-1,3.464469910E-1
3.540893034E0,-4.981315136E-2,-2.798751593E-1,3.148565292E-1
3.550893034E0,3.646552563E-2,-3.264429569E-1,3.187179565E-1
3.560893034E0,7.000160217E-2,-2.791587114E-1,1.987743378E-1
3.570893034E0,3.159701824E-2,-1.365950108E-1,-2.566337585E-3
3.580893034E0,-3.509402275E-3,3.401851654E-2,-2.828950882E-1
3.590893034E0,-3.420126438E-2,1.768684387E-1,-5.107574463E-1
3.600893034E0,7.337462902E-2,2.367818356E-1,-6.315355301E-1
3.610893034E0,2.022293806E-1,3.489441872E-1,-7.160367966E-1
3.620893034E0,1.690721512E-1,5.694112778E-1,-7.059993744E-1
3.630893034E0,1.145956516E-1,7.924580574E-1,-6.391296387E-1
3.640893034E0,2.224558592E-1,8.122990131E-1,-5.506563187E-1
3.650893034E0,5.562472343E-1,6.086931229E-1,-2.538366318E-1
3.660893034E0,7.301694155E-1,4.231257439E-1,2.813901901E-1
3.670893034E0,5.114669800E-1,3.729798794E-1,1.097420692E0
3.680893034E0,2.779186964E-1,1.556746960E-1,1.824251175E0
3.690893034E0,8.583867550E-2,-1.831796169E-1,2.198369026E0
3.700893034E0,-2.453936338E-1,-4.125151634E-1,2.222205162E0
3.710893034E0,-7.925411463E-1,-2.347683907E-1,1.827594757E0
3.720893034E0,-1.125667930E0,-2.214848995E-2,1.239377975E0
3.730893034E0,-8.292127848E-1,4.600286484E-4,5.072364807E-1
3.740893034E0,-8.850800991E-2,-2.015509605E-1,-7.207202911E-2
3.750893034E0,7.312842607E-1,-4.096342325E-1,-3.722867966E-1
3.760893034E0,1.080089569E0,-2.485483885E-1,-4.893846512E-1
3.770893034E0,1.084708691E0,-3.403329849E-2,-5.145826340E-1
3.780893034E0,8.871454597E-1,4.293942451E-2,-5.827779770E-1
3.790893034E0,5.555614233E-1,1.060373783E-1,-9.846277237E-1
3.800893034E0,2.879050970E-1,8.188247681E-3,-1.462104321E0
3.810893034E0,2.907873988E-1,-2.865999937E-1,-1.709313393E0
3.820893034E0,5.520439148E-1,-5.538123846E-1,-1.759560585E0
3.830893034E0,7.782167792E-1,-6.533989906E-1,-1.741383076E0
3.840893034E0,1.001423001E0,-6.931988001E-1,-1.505004883E0
3.850893034E0,9.943941832E-1,-5.997612476E-1,-1.071775436E0
3.860893034E0,5.714697838E-1,-3.931503296E-1,-6.065273285E-1
3.870893034E0,-1.570689678E-2,-1.382272243E-1,-1.266069412E-1
3.880893034E0,-3.950793147E-1,-4.491448402E-2,1.662521362E-1
3.890893034E0,-4.826580882E-1,-5.428886414E-2,1.809539795E-1
3.900893034E0,-4.070594311E-1,-2.512884140E-2,-1.049613953E-1
3.910893034E0,-9.971684217E-2,-4.324674606E-3,-4.237585068E-1
3.920893034E0,2.770775855E-1,6.343007088E-2,-5.682764053E-1
3.930893034E0,2.738036513E-1,2.906172276E-1,-3.636360168E-1
3.940893034E0,2.209917307E-1,4.042048454E-1,-2.342586517E-1
3.950893034E0,1.429173648E-1,3.193974495E-1,-3.702564240E-1
3.960893034E0,1.640176773E-1,8.348178864E-2,-3.478517532E-1
3.970893034E0,8.843964338E-2,-2.166976929E-1,5.213451385E-2
3.980893034E0,-2.341520786E-1,-3.127510548E-1,5.217218399E-1
3.990893034E0,-6.421397924E-1,-2.293782234E-1,8.917589188E-1
4.000893034E0,-9.410930872E-1,-1.058282852E-1,1.077185631E0
4.010893034E0,-1.054931164E0,1.197102070E-1,8.745002747E-1
4.020893034E0,-8.279242516E-1,3.469042778E-1,5.845699310E-1
4.030893034E0,-2.582301795E-1,3.975172043E-1,3.152828217E-1
4.040893034E0,4.829775691E-1,9.327244759E-2,-4.957962036E-1
4.050893034E0,8.485298157E-1,2.430596352E-1,6.050910950E-1
4.060893034E0,8.899669647E-1,6.402001381E-1,7.666769028E-1
4.070893034E0,7.569323182E-1,1.005058527E0,6.825494766E-1
4.080893034E0,8.644392490E-1,1.218396187E0,1.010701180E0
4.090893034E0,1.149335146E0,1.037688017E0,8.616905212E-1
4.100893034E0,1.311808348E0,4.673864841E-1,2.665395737E-1
4.110893034E0,9.927338958E-1,-3.018212318E-1,-2.454671860E-1
4.120893034E0,4.240019917E-1,-7.229006290E-1,-5.881690979E-1
4.130893034E0,-5.163428187E-2,-6.980156898E-1,-9.239492416E-1
4.140893034E0,-4.899364710E-1,-3.528951406E-1,-9.924211502E-1
4.150893034E0,-4.816215634E-1,-3.421556950E-2,-7.611799240E-1
4.160893034E0,3.496488929E-2,1.567101479E-2,-4.432888031E-1
4.170893034E0,6.095234156E-1,-5.144083500E-2,-2.207775116E-1
4.180893034E0,9.791035652E-1,-3.920018673E-2,-2.942848206E-2
4.190893034E0,1.029520035E0,5.906093121E-2,7.221031189E-2
4.200893034E0,8.665367365E-1,1.453523636E-1,1.840667725E-1
4.210893034E0,6.883015633E-1,1.248935461E-1,3.829736710E-1
4.220893034E0,4.585864842E-1,9.959745407E-2,4.291839600E-1
4.230893034E0,1.075630486E-1,7.304680347E-2,2.722759247E-1
4.240893034E0,-1.052549183E-1,2.957856655E-2,1.013965607E-1
4.250893034E0,-3.370417655E-1,3.487217426E-2,1.339502335E-1
4.260893034E0,-4.877757430E-1,5.458700657E-2,2.112045288E-1
4.270893034E0,-5.713317990E-1,1.654603481E-1,3.504228592E-1
4.280893034E0,-5.565992594E-1,3.936064243E-1,5.383071899E-1
4.290893034E0,-3.668765128E-1,6.240859032E-1,4.589529037E-1
4.300893034E0,-1.680893600E-1,7.749283314E-1,2.347621918E-1
4.310893034E0,1.344886422E-1,8.479692936E-1,9.828281403E-2
4.320893034E0,8.095664382E-1,5.006341934E-1,4.195499420E-2
4.330893034E0,1.511665344E0,-7.113718987E-2,-4.224491119E-1
4.340893034E0,1.424386621E0,-2.774722576E-1,4.389953613E-2
4.350893034E0,8.003860712E-1,1.682095528E-1,3.858022690E-1
4.360893034E0,-2.317994833E-3,5.931870937E-1,6.409711838E-1
4.370893034E0,-4.502692819E-1,6.015641689E-1,1.155259132E0
4.380893034E0,-3.164465725E-1,1.976931095E-2,1.210392952E0
4.390893034E0,-1.689267457E-1,-4.342205524E-1,1.042020798E0
4.400893034E0,-3.009717464E-1,-3.376083374E-1,8.564348221E-1
4.410893034E0,-4.468010664E-1,-1.327881813E-1,5.765562057E-1
4.420893034E0,-4.462287128E-1,-3.404641151E-2,2.788887024E-1
4.430893034E0,-5.158240795E-1,1.368461847E-1,1.693916321E-2
4.440893034E0,-6.544077396E-1,4.217078686E-1,-3.031110764E-1
4.450893034E0,-7.247933149E-1,5.682464838E-1,-6.227569580E-1
4.460893034E0,-6.163443327E-1,4.949827194E-1,-8.833227158E-1
4.470893034E0,-4.394779801E-1,2.578234673E-1,-1.038084030E0
4.480893034E0,-3.974862695E-1,1.809148788E-1,-9.892606735E-1
4.490893034E0,-3.756519556E-1,1.658945084E-1,-8.739032745E-1
4.500893034E0,-2.750911713E-1,2.342443466E-1,-5.090103149E-1
4.510893034E0,-1.916275918E-1,3.670579195E-1,-1.343603134E-1
4.520893034E0,-1.180893034E-1,5.038625002E-1,-3.329563141E-2
4.530893034E0,-3.204319254E-2,5.758643150E-1,1.388788223E-1
4.540893034E0,4.171814770E-2,6.072542667E-1,3.569841385E-1
4.550893034E0,1.721692532E-1,2.812258005E-1,3.688774109E-1
4.560893034E0,1.935596764E-1,-1.230137348E-1,2.749910355E-1
4.570893034E0,2.961433232E-1,-5.309224129E-1,8.850574493E-2
4.580893034E0,3.143713772E-1,-7.361695766E-1,8.669662476E-2
4.590893034E0,7.630693913E-2,-6.185244322E-1,2.372007370E-1
4.600893034E0,-1.051786393E-1,-5.363376141E-1,3.800306320E-1
4.610893034E0,-2.228660882E-2,-4.610755444E-1,6.219520569E-1
4.620893034E0,1.684519649E-2,-4.239820242E-1,8.324432373E-1
4.630893034E0,2.288036942E-1,-4.327733517E-1,8.414258957E-1
4.640893034E0,3.700326681E-1,-4.456138611E-1,6.935501099E-1
4.650893034E0,3.363069892E-1,-4.055618048E-1,4.460182190E-1
4.660893034E0,3.164984882E-1,-4.123313427E-1,1.374044418E-1
4.670893034E0,2.318668962E-1,-3.950927258E-1,-2.297363281E-1
4.680893034E0,9.749758244E-2,-2.658677101E-1,-6.420049667E-1
4.690893034E0,-7.326078415E-2,-8.194971085E-2,-9.672384262E-1
4.700893034E0,-2.407081723E-1,1.389522552E-1,-1.095385551E0
4.710893034E0,-1.776515841E-1,2.493345737E-1,-7.913389206E-1
4.720893034E0,1.192135811E-1,1.397140026E-1,-3.314132690E-1
4.730893034E0,3.701610565E-1,7.659912109E-2,1.604747772E-2
4.740893034E0,5.199829340E-1,2.795026302E-1,9.495353699E-2
4.750893034E0,6.032425761E-1,3.725001812E-1,3.567018509E-1
4.760893034E0,5.461262465E-1,1.202197075E-1,-4.241285324E-1
4.770893034E0,-4.256325960E-2,7.387542725E-2,-2.573900223E-1
4.780893034E0,6.812423468E-2,-1.018238068E-2,-4.523849487E-1
4.790893034E0,3.028849363E-1,3.259515762E-2,-4.584388733E-1
4.800893034E0,3.110389113E-1,5.696778297E-1,5.379009247E-2
4.810893034E0,3.782165051E-1,8.501539230E-1,4.139957428E-1
4.820893034E0,5.948756933E-1,6.967358589E-1,5.094242096E-1
4.830893034E0,6.332588792E-1,3.352921009E-1,1.458168030E-2
4.840893034E0,5.062621832E-2,-1.721285582E-1,-8.134155273E-1
4.850893034E0,-1.027588367E0,-4.439976215E-1,-6.609172821E-1
4.860893034E0,-1.741516352E0,-2.733235359E-1,-2.431745529E-1
4.870893034E0,-1.851081252E0,5.307602882E-2,1.573066711E-1
4.880893034E0,-1.388696432E0,2.986717224E-2,5.064678192E-1
4.890893034E0,-7.472622395E-1,-2.471425533E-1,8.190774918E-1
4.900893034E0,-2.144660354E-1,-3.840861320E-1,9.318237305E-1
4.910893034E0,-8.409422636E-2,-3.166180849E-1,1.027651787E0
4.920893034E0,5.638165772E-2,-1.220738888E-1,1.083959579E0
4.930893034E0,5.130360126E-1,-1.941508055E-1,1.240341187E0
4.940893034E0,9.456262589E-1,-4.241740704E-1,1.326292992E0
4.950893034E0,9.567203522E-1,-3.962297440E-1,1.356418610E0
4.960893034E0,7.963138223E-1,-3.201351166E-1,1.181624413E0
4.970893034E0,4.119691253E-1,-1.544315815E-1,1.019028664E0
4.980893034E0,-5.535244942E-3,4.735350609E-3,7.810821533E-1
4.990893034E0,-1.895286441E-1,3.930687904E-3,6.029977798E-1
5.000893034E0,-1.226474941E-1,-5.014491081E-2,4.516839981E-1
5.010893034E0,1.111223996E-1,-9.299600124E-2,2.963275909E-1
5.020893034E0,3.829689920E-1,-1.423326731E-1,6.963825226E-2
5.030893034E0,5.953936577E-1,-2.300179005E-1,-2.239789963E-1
5.040893034E0,6.665903330E-1,-2.922475338E-1,-3.060674667E-1
5.050893034E0,5.993864536E-1,-2.942928076E-1,-1.414194107E-1
5.060893034E0,4.111524224E-1,-2.007200718E-1,-8.357048035E-3
5.070893034E0,2.363457382E-1,-1.233122349E-1,-4.144697189E-1
5.080893034E0,1.061573774E-1,-1.843256950E-1,-9.848766327E-1
5.090893034E0,8.370169997E-2,-5.515620708E-1,-2.382827759E0
5.100893034E0,1.558703780E-1,-9.238052368E-1,-1.854667664E0
5.110893034E0,-1.718431711E-2,-5.592566729E-1,-1.272294044E0
5.120893034E0,1.513004005E-1,2.536201477E-2,-1.565732956E0
5.130893034E0,3.182379007E-1,3.629915714E-1,-1.477144718E0
5.140893034E0,5.399541259E-1,5.248973370E-1,-1.372942924E0
5.150893034E0,7.007904649E-1,4.685351849E-1,-1.230590820E0
5.160893034E0,7.472765446E-1,3.477432728E-1,-8.925065994E-1
5.170893034E0,5.926212072E-1,5.387830734E-2,-3.316745758E-1
5.180893034E0,3.129729331E-1,-2.018165588E-1,2.473859787E-1
5.190893034E0,2.609682679E-1,-4.738140106E-1,5.344305038E-1
5.200893034E0,3.712691069E-1,-5.358161926E-1,5.408973694E-1
5.210893034E0,2.166294456E-1,-1.847131252E-1,5.261888504E-1
5.220893034E0,-1.145594716E-1,3.510766029E-1,6.552696228E-2
5.230893034E0,7.848203182E-3,5.739498138E-1,-7.455720901E-1
5.240893034E0,5.555755496E-1,5.338025093E-1,-7.725391388E-1
5.250893034E0,1.343861580E0,-6.011199951E-2,5.405931473E-1
5.260893034E0,1.635896444E0,-6.721053123E-1,2.012704849E0
5.270893034E0,1.159314275E0,-9.847941399E-1,2.664362907E0
5.280893034E0,5.623908043E-1,-1.186063051E0,2.383330345E0
5.290893034E0,3.686218858E-1,-1.404413700E0,1.526907921E0
5.300893034E0,2.343969792E-1,-1.261535406E0,5.355463028E-1
5.310893034E0,1.260814071E-2,-7.079886198E-1,-1.980247498E-1
5.320893034E0,-3.478268981E-1,2.727415562E-1,-3.467035294E-1
5.330893034E0,-6.115256548E-1,1.014932156E0,1.104669571E-1
5.340893034E0,-2.380845547E-1,1.138998508E0,4.825096130E-1
5.350893034E0,4.904486537E-1,5.989778042E-1,3.379783630E-1
5.360893034E0,9.211053848E-1,1.224827766E-1,3.010940552E-2
5.370893034E0,1.050740838E0,-1.263768673E-1,-4.016561508E-1
5.380893034E0,1.022590399E0,-6.346082687E-2,-5.239048004E-1
5.390893034E0,9.311280251E-1,1.286544800E-1,-5.599699020E-1
5.400893034E0,7.229739428E-1,2.993829250E-1,-1.376876831E-1
5.410893034E0,1.853148490E-1,4.728274345E-1,2.365207672E-1
5.420893034E0,-3.151670396E-1,5.055072308E-1,5.095014572E-1
5.430893034E0,-6.238887906E-1,4.307680130E-1,8.716907501E-1
5.440893034E0,-7.439839244E-1,2.597050667E-1,1.099806786E0
5.450893034E0,-6.722611189E-1,6.655097008E-2,1.063577652E0
5.460893034E0,-3.635852039E-1,-1.232783794E-1,7.912254333E-1
5.470893034E0,4.708108306E-2,-2.463543415E-1,2.706289291E-1
5.480893034E0,4.299311638E-1,-2.993701696E-1,-3.234472275E-1
5.490893034E0,5.739122033E-1,-1.604309082E-1,-5.028324127E-1
5.500893034E0,2.459921539E-1,1.957180500E-1,-1.967010498E-1
5.510893034E0,8.555585146E-2,4.646866322E-1,-4.333887100E-1
5.520893034E0,-8.964627981E-2,7.500040531E-1,-6.387605667E-1
5.530893034E0,1.278569698E-1,9.780716896E-1,-8.511333466E-1
5.540893034E0,1.711412072E-1,1.131947041E0,-1.078846931E0
5.550893034E0,2.453902662E-1,7.791988850E-1,-1.155694008E0
5.560893034E0,1.131666899E-1,4.354207516E-1,-7.780513763E-1
5.570893034E0,-1.726570725E-1,7.101225853E-2,-4.151487350E-1
5.580893034E0,-4.183297753E-1,-1.028015614E-1,-2.393436432E-2
5.590893034E0,-6.335451007E-1,1.983976364E-2,1.545438766E-1
5.600893034E0,-5.665535927E-1,-1.215972900E-1,3.801765442E-1
5.610893034E0,-2.944726348E-1,-2.566754818E-1,5.051984787E-1
5.620893034E0,-5.724966526E-3,-1.765038967E-1,5.558023453E-1
5.630893034E0,1.807872355E-1,-3.656172752E-2,4.527330399E-1
5.640893034E0,2.194247842E-1,4.485321045E-2,1.296319962E-1
5.650893034E0,1.018659770E-1,1.859583855E-1,-2.501239777E-1
5.660893034E0,-4.799795151E-2,3.780698776E-1,-6.411609650E-1
5.670893034E0,1.438850164E-2,4.567935467E-1,-1.047909737E0
5.680893034E0,6.812351942E-2,4.263198376E-1,-1.217330933E0
5.690893034E0,-9.642505646E-2,2.971174717E-1,-1.071912766E0
5.700893034E0,-5.204659104E-1,1.816608906E-1,-4.726200104E-1
5.710893034E0,-1.054790258E0,9.270548820E-2,2.520799637E-1
5.720893034E0,-1.405279398E0,-1.373138428E-1,7.174968719E-1
5.730893034E0,-1.260583401E0,-4.796471596E-1,9.384117126E-1
5.740893034E0,-8.206837773E-1,-6.826981306E-1,7.740631104E-1
5.750893034E0,-4.559917450E-1,-6.342974901E-1,2.456960678E-1
5.760893034E0,-1.510996222E-1,-4.223244190E-1,5.117816925E-1
5.770893034E0,4.861368239E-1,-4.342715740E-1,2.100791931E-1
5.780893034E0,8.002356291E-1,-2.828543186E-1,-2.854242325E-1
5.790893034E0,9.243017435E-1,1.820108891E-1,-2.765741348E-1
5.800893034E0,1.214383602E0,3.411982059E-1,-1.773538589E-1
5.810893034E0,1.636564732E0,-9.140491486E-2,-2.115182877E-1
5.820893034E0,1.669951558E0,-5.457429886E-1,-4.527416229E-1
5.830893034E0,1.376628995E0,-7.446804047E-1,-7.138576508E-1
5.840893034E0,1.110286713E0,-7.811284065E-1,-6.622686386E-1
5.850893034E0,9.585973620E-1,-8.025443554E-1,-3.743848801E-1
5.860893034E0,7.438440323E-1,-7.918927670E-1,2.469539642E-2
5.870893034E0,5.879953504E-1,-6.670742035E-1,6.029415131E-1
5.880893034E0,3.634348810E-1,-4.573497772E-1,1.197813034E0
5.890893034E0,1.881719828E-1,-2.347016335E-1,1.407585144E0
5.900893034E0,-2.576661110E-2,-5.856537819E-2,1.242482185E0
5.910893034E0,-6.611222029E-2,-8.454680443E-2,8.260507584E-1
5.920893034E0,-7.804751396E-2,-1.162080765E-1,4.134616852E-1
5.930893034E0,-1.983746886E-1,-6.165719032E-2,2.407360077E-2
5.940893034E0,-3.476342559E-1,2.943968773E-2,-1.616926193E-1
5.950893034E0,-3.528629541E-1,6.184816360E-2,-1.934661865E-1
5.960893034E0,-2.462276220E-1,6.413364410E-2,-1.416378021E-1
5.970893034E0,-2.116173506E-1,9.817361832E-2,-1.327219009E-1
5.980893034E0,-2.132402062E-1,2.131664753E-1,-2.663993835E-1
5.990893034E0,-1.829901934E-1,3.890595436E-1,-4.665269852E-1
6.000893034E0,-5.510687828E-2,4.877212048E-1,-6.175088882E-1
6.010893034E0,1.028051376E-1,5.509812832E-1,-7.170743942E-1
6.020893034E0,4.972398281E-2,6.545751095E-1,-8.351011276E-1
6.030893034E0,-9.445655346E-2,7.087595463E-1,-9.484491348E-1
6.040893034E0,-7.877147198E-2,6.597380638E-1,-1.044870377E0
6.050893034E0,1.740379333E-1,4.915671349E-1,-1.082241058E0
6.060893034E0,3.416842222E-1,3.158197403E-1,-8.729782104E-1
6.070893034E0,4.599295855E-1,1.877384186E-1,-3.122625351E-1
6.080893034E0,7.281227708E-1,-1.079845428E-1,4.908123016E-1
6.090893034E0,6.510426402E-1,-4.037303925E-1,1.249279976E0
6.100893034E0,2.895506024E-1,-5.174530745E-1,1.746193886E0
6.110893034E0,-1.838493347E-2,-6.790279150E-1,1.741896629E0
6.120893034E0,4.581058025E-2,-8.939307928E-1,1.366868973E0
6.130893034E0,3.545084000E-1,-1.138170242E0,7.490453720E-1
6.140893034E0,8.052264452E-1,-1.204092979E0,-7.064723969E-2
6.150893034E0,1.273469448E0,-1.010592103E0,-1.034234047E0
6.160893034E0,1.438666821E0,-4.812228680E-1,-1.770740032E0
6.170893034E0,1.346100807E0,1.434862614E-1,-2.080523491E0
6.180893034E0,1.087149024E0,6.074821949E-1,-1.856134892E0
6.190893034E0,7.249938250E-1,9.597120285E-1,-1.658912659E0
6.200893034E0,9.561359882E-2,1.188821316E0,-1.288694859E0
6.210893034E0,-4.629515409E-1,1.105959415E0,-8.433065414E-1
6.220893034E0,-2.394835949E-1,2.827990055E-1,-4.271526337E-1
6.230893034E0,2.384704351E-1,-5.653433800E-1,2.068529129E-1
6.240893034E0,1.676688194E-1,-7.125561237E-1,1.050300598E0
6.250893034E0,-1.327160597E-1,-5.533981323E-1,1.777866364E0
6.260893034E0,-4.358962774E-1,-3.358428478E-1,2.283699989E0
6.270893034E0,-5.829833746E-1,-2.140705585E-1,1.829303741E0
6.280893034E0,-8.210813999E-1,-1.778538227E-1,7.725811005E-1
6.290893034E0,-7.447416782E-1,-2.117524147E-1,-2.638149261E-1
6.300893034E0,-1.463150978E-1,-3.553588390E-1,-1.159639359E0
6.310893034E0,5.354523659E-2,-2.698564529E-1,-1.633100986E0
6.320893034E0,1.255291700E-1,-5.865812302E-2,-1.343442917E0
6.330893034E0,1.319702864E-1,2.575671673E-1,-2.846984863E-1
6.340893034E0,2.448334694E-1,3.279604912E-1,6.252956390E-2
6.350893034E0,1.232556105E-1,3.139483929E-1,-2.536153793E-1
6.360893034E0,-2.051358223E-1,3.853225708E-1,-8.099651337E-2
6.370893034E0,-2.082885504E-1,-2.155780792E-2,7.509984970E-1
6.380893034E0,-1.811674833E-1,-7.481956482E-1,1.523626328E0
6.390893034E0,-3.137345314E-1,-1.274500370E0,1.822532654E0
6.400893034E0,-7.566559315E-1,-1.136132836E0,2.267543793E0
6.410893034E0,-8.175203800E-1,-5.164003372E-1,2.233630180E0
6.420893034E0,-6.917642355E-1,1.837801933E-2,2.077416420E0
6.430893034E0,-4.499183893E-1,3.541636467E-1,1.612936974E0
6.440893034E0,-1.924502850E-1,4.939746857E-1,8.209218979E-1
6.450893034E0,-2.226078510E-2,5.893719196E-1,-4.719448090E-2
6.460893034E0,1.260949373E-1,7.308495045E-1,-9.479961395E-1
6.470893034E0,2.770931721E-1,8.648369312E-1,-1.764110565E0
6.480893034E0,3.119843006E-1,9.871044159E-1,-2.301189423E0
6.490893034E0,3.272354603E-1,1.033190966E0,-2.405789375E0
6.500893034E0,2.277675867E-1,1.026329756E0,-2.199180603E0
6.510893034E0,8.998990059E-3,9.830319881E-1,-1.717654705E0
6.520893034E0,-1.716482639E-2,6.894454956E-1,-1.028133392E0
6.530893034E0,1.285898089E-1,1.146359444E-1,-1.357545853E-1
6.540893034E0,1.089726686E-1,-4.066286087E-1,8.779315948E-1
6.550893034E0,4.280918837E-2,-8.009288311E-1,1.776571274E0
6.560893034E0,-3.204780817E-1,-7.512135506E-1,2.249791145E0
6.570893034E0,-5.966629982E-1,-6.088273525E-1,2.043217659E0
6.580893034E0,-5.870795250E-1,-4.145603180E-1,1.561870575E0
6.590893034E0,-4.270174503E-1,-1.640374660E-1,9.600610733E-1
6.600893034E0,-8.486914635E-2,2.399921417E-2,1.896791458E-1
6.610893034E0,4.351916313E-1,4.809260368E-2,-6.985797882E-1
6.620893034E0,9.593966603E-1,1.795005798E-1,-1.405110359E0
6.630893034E0,1.306816578E0,2.980687618E-1,-1.729228497E0
6.640893034E0,1.341504097E0,1.554274559E-1,-1.629462242E0
6.650893034E0,8.837269545E-1,-9.243655205E-2,-9.517421722E-1
6.660893034E0,8.521080017E-2,-2.475912571E-1,6.762790680E-2
6.670893034E0,-5.930801630E-1,-3.752317429E-1,1.009000778E0
6.680893034E0,-9.637427330E-1,-4.913609028E-1,1.533289909E0
6.690893034E0,-1.200286388E0,-3.755648136E-1,1.578346252E0
6.700893034E0,-1.306560040E0,-9.483623505E-2,1.434465408E0
6.710893034E0,-1.193840027E0,2.350978851E-1,1.058585167E0
6.720893034E0,-6.106238365E-1,2.664518356E-1,6.397600174E-1
6.730893034E0,3.267252445E-2,8.713388443E-2,2.830991745E-1
6.740893034E0,2.015182972E-1,1.509439945E-1,-1.913213730E-1
6.750893034E0,5.941927433E-2,2.825291157E-1,-4.392309189E-1
6.760893034E0,-3.255724907E-3,2.866134644E-1,-2.854642868E-1
6.770893034E0,1.266705990E-2,3.692443371E-1,3.288269043E-3
6.780893034E0,5.018513203E-1,2.136476040E-1,-1.387042999E-1
6.790893034E0,5.022857189E-1,2.562267780E-1,-8.269748688E-1
6.800893034E0,-4.837656021E-2,3.158123493E-1,-1.423187256E0
6.810893034E0,1.561801434E-1,2.450613976E-1,-2.040082455E0
6.820893034E0,6.906397343E-1,-9.559369087E-2,-2.317165375E0
6.830893034E0,1.059977412E0,-1.641774178E-1,-2.127271652E0
6.840893034E0,3.402545452E-1,5.279831886E-1,-1.018941879E0
6.850893034E0,-1.834430695E-1,6.782844067E-1,8.152542114E-1
6.860893034E0,-5.519069433E-1,1.344013214E-2,2.473705292E0
6.870893034E0,-5.519098043E-1,-8.202939034E-1,2.922159195E0
6.880893034E0,-1.148145199E-1,-1.267771244E0,2.297806740E0
6.890893034E0,5.309007168E-1,-1.349397659E0,1.587040901E0
6.900893034E0,2.243511677E-1,-9.741117954E-1,1.248526573E0
6.910893034E0,2.331097126E-1,-2.792499065E-1,1.056341171E0
6.920893034E0,2.734147310E-1,1.326794624E-1,1.135155678E0
6.930893034E0,-9.952735901E-2,2.803344727E-1,1.061422348E0
6.940893034E0,-2.999440432E-1,2.103290558E-1,6.908941269E-1
6.950893034E0,9.787917137E-2,-6.252098083E-2,1.119594574E-1
6.960893034E0,3.927038908E-1,-2.116355896E-1,-3.525571823E-1
6.970893034E0,7.928227186E-1,-1.552145481E-1,-9.612607956E-1
6.980893034E0,1.187314987E0,2.023026943E-1,-1.462418556E0
6.990893034E0,1.314847946E0,7.983028889E-1,-1.808179855E0
7.000893034E0,9.846272469E-1,1.062749147E0,-1.805887699E0
7.010893034E0,2.137997150E-1,7.098033428E-1,-1.126652718E0
7.020893034E0,-5.278494358E-1,-2.621630430E-1,-3.057708740E-1
7.030893034E0,-7.405571938E-1,-1.117505312E0,1.331834793E-1
7.040893034E0,-5.911204815E-1,-1.314101934E0,3.549947739E-1
7.050893034E0,-2.246284485E-1,-1.048486710E0,3.380641937E-1
7.060893034E0,1.449732780E-1,-4.783366919E-1,1.420602798E-1
7.070893034E0,3.657028675E-1,1.055791378E-1,-2.404813766E-1
7.080893034E0,6.800818443E-1,5.163798332E-1,-6.370582581E-1
7.090893034E0,6.370475292E-1,7.246937752E-1,-7.808685303E-1
7.100893034E0,-4.177551270E-1,7.441852093E-1,-9.284286499E-1
7.110893034E0,-2.166406155E0,6.026701927E-1,-1.084227562E0
7.120893034E0,-3.207145691E0,4.469578266E-1,-1.097831249E0
7.130893034E0,-2.512289047E0,2.152590752E-1,-4.405927658E-1
7.140893034E0,-8.075003624E-1,-6.611633301E-1,1.278247833E-1
7.150893034E0,-4.870827198E-1,-4.249062538E-1,1.411437988E-4
7.160893034E0,-5.879783630E-1,-4.787092209E-1,4.111289978E-3
7.170893034E0,-8.056583405E-1,-6.116108894E-1,1.506137848E-2
7.180893034E0,-8.420734406E-1,-5.972470045E-1,-7.248687744E-2
7.190893034E0,-8.970594406E-1,-2.905400991E-1,-5.250639915E-1
7.200893034E0,-4.255700111E-1,-5.099558830E-2,-2.043123245E-1
7.210893034E0,1.062795162E0,1.058346033E-1,1.346445084E0
7.220893034E0,1.685087204E0,9.214186668E-2,1.895071983E0
7.230893034E0,1.239709377E0,-2.866029739E-2,1.285332680E0
7.240893034E0,5.833714008E-1,4.984366894E-2,2.679567337E-1
7.250893034E0,1.237912178E-1,3.465178013E-1,-5.992631912E-1
7.260893034E0,-9.734010696E-2,5.737243891E-1,-1.238357544E0
7.270893034E0,1.380739212E-1,6.909164190E-1,-1.675141811E0
7.280893034E0,5.400736332E-1,3.764644861E-1,-1.762112617E0
7.290893034E0,6.504058838E-1,1.757922173E-1,-1.540467739E0
7.300893034E0,1.776471138E-1,1.471230984E-1,-9.346103668E-1
7.310893034E0,-3.612928391E-1,-7.888770103E-2,1.149005890E-1
7.320893034E0,-6.572365761E-1,-7.585871220E-2,8.585968018E-1
7.330893034E0,-7.409124374E-1,4.837703705E-2,7.589454651E-1
7.340893034E0,-7.060716152E-1,1.823437214E-2,2.391157150E-1
7.350893034E0,-7.135102749E-1,-1.546752453E-1,-1.348600388E-1
7.360893034E0,-6.911468506E-1,-2.576469183E-1,-3.429412842E-1
7.370893034E0,-5.875186920E-1,-2.102408409E-1,-5.030460358E-1
7.380893034E0,-1.756315231E-1,-1.351028681E-1,-6.663761139E-1
7.390893034E0,-1.889562607E-2,7.025241852E-3,-8.809814453E-1
7.400893034E0,-3.348922729E-1,5.802953243E-2,-3.986110687E-1
7.410893034E0,-1.115139961E0,1.038647890E-1,8.301305771E-1
7.420893034E0,-2.298020363E0,1.431703568E-1,2.046620369E0
7.430893034E0,-3.285652637E0,-3.302121162E-2,2.698207855E0
7.440893034E0,-2.628431320E0,-7.477059364E-1,2.403630257E0
7.450893034E0,-9.890000820E-1,-1.180079699E0,1.605363846E0
7.460893034E0,4.409623146E-1,-1.279786110E0,7.842988968E-1
7.470893034E0,1.171869278E0,-1.164714575E0,1.576976776E-1
7.480893034E0,1.226457596E0,-9.849803448E-1,-2.013473511E-1
7.490893034E0,1.102180004E0,-1.143695116E0,-6.726455688E-1
7.500893034E0,1.036086559E0,-1.029633880E0,-1.149247646E0
7.510893034E0,7.612984180E-1,-5.603104830E-1,-1.323969841E0
7.520893034E0,9.140968323E-4,1.349854469E-2,-8.305988312E-1
7.530893034E0,-6.047143936E-1,3.539395332E-2,-2.156629562E-1
7.540893034E0,-4.002726078E-1,3.706479073E-2,2.755374908E-1
7.550893034E0,2.504117489E-1,2.022075653E-1,1.052532196E-1
7.560893034E0,7.402381897E-1,5.263953209E-1,-1.947956085E-1
7.570893034E0,1.147545576E0,6.675868034E-1,-4.875640869E-1
7.580893034E0,1.481534719E0,4.634146690E-1,-6.717395782E-1
7.590893034E0,1.428194046E0,1.079244614E-1,-7.683506012E-1
7.600893034E0,1.020711899E0,-2.641253471E-1,-8.237333298E-1
7.610893034E0,5.784590244E-1,-4.842360020E-1,-6.123723984E-1
7.620893034E0,2.253737450E-1,-4.138276577E-1,-2.420091629E-1
7.630893034E0,7.671046257E-2,-1.589460373E-1,2.893447876E-3
7.640893034E0,6.819716692E-1,6.927442551E-2,-4.966430664E-1
7.650893034E0,2.399014235E0,-4.400064945E-1,-2.006463051E0
7.660893034E0,3.310438395E0,-5.451097488E-1,-3.021219254E0
7.670893034E0,2.277245998E0,5.355830193E-1,-1.604882240E0
7.680893034E0,1.620157361E0,9.533705711E-1,-2.258994102E0
7.690893034E0,5.658175945E-1,8.506374359E-1,-1.171903610E0
7.700893034E0,-3.730900288E-1,4.236118793E-1,-4.124231339E-1
7.710893034E0,-3.195574284E-1,-4.279558659E-1,1.238260269E-1
7.720893034E0,2.803909779E-1,-1.397104502E0,3.769741058E-1
7.730893034E0,8.700550795E-1,-1.645737171E0,1.046419144E-1
7.740893034E0,1.331242442E0,-1.264778614E0,-1.669473648E-1
7.750893034E0,1.744194388E0,-7.582736611E-1,-3.149976730E-1
7.760893034E0,1.694747329E0,7.054960728E-2,-4.370279312E-1
7.770893034E0,1.624678135E0,7.757803202E-1,-3.341732025E-1
7.780893034E0,1.449866295E0,9.921498299E-1,1.485176086E-1
7.790893034E0,8.842904568E-1,7.355855703E-1,6.963367462E-1
7.800893034E0,1.786363125E-1,2.225681543E-1,8.235740662E-1
7.810893034E0,-9.466671944E-1,3.098595142E-2,9.286441803E-1
7.820893034E0,-1.199731588E0,-2.919808626E-1,1.056600571E0
7.830893034E0,-1.233733654E0,-3.548834324E-1,1.112247467E0
7.840893034E0,-8.455021381E-1,-2.989313006E-1,1.003475189E0
7.850893034E0,3.618001938E-3,-8.346045017E-2,9.425935745E-1
7.860893034E0,7.658385038E-1,3.759270310E-1,1.043643951E0
7.870893034E0,1.115913391E0,8.561818600E-1,1.401918411E0
7.880893034E0,9.489505291E-1,1.037050247E0,1.512063026E0
7.890893034E0,4.799861908E-1,9.370085001E-1,1.292039871E0
7.900893034E0,3.536581993E-2,7.517627478E-1,7.162103653E-1
7.910893034E0,-1.334266663E-1,5.838366151E-1,1.610841751E-1
7.920893034E0,8.564448357E-2,4.912066460E-1,-1.766271591E-1
7.930893034E0,2.840349674E-1,4.902032614E-1,-6.240367889E-1
7.940893034E0,-1.866450310E-1,8.803022504E-1,-8.793992996E-1
7.950893034E0,-3.259932995E-1,1.396836042E0,-1.040630341E0
7.960893034E0,-2.090997696E-1,1.452351809E0,-1.029224396E0
7.970893034E0,4.411697388E-3,8.322713375E-1,-4.498720169E-1
7.980893034E0,5.752301216E-2,-8.529788256E-2,5.954484940E-1
7.990893034E0,-4.345378876E-1,-6.452337503E-1,1.770747185E0
8.000893034E0,-1.283364534E0,-8.164373040E-1,2.607192039E0
8.010893034E0,-1.684991837E0,-1.098437786E0,2.679131508E0
8.020893034E0,-1.729855061E0,-1.280795813E0,2.084457397E0
8.030893034E0,-1.349065542E0,-1.391553402E0,1.156119347E0
8.040893034E0,-7.254211903E-1,-1.144992948E0,2.775049210E-1
8.050893034E0,-2.288079262E-1,-5.505629778E-1,-4.515991211E-1
8.060893034E0,8.279800415E-3,1.654665619E-1,-8.474254608E-1
8.070893034E0,1.249604225E-1,6.165781617E-1,-9.642190933E-1
8.080893034E0,2.881326675E-1,8.064156771E-1,-8.716907501E-1
8.090893034E0,5.872581005E-1,7.169612646E-1,-9.948768616E-1
8.100893034E0,7.384700775E-1,5.641522408E-1,-1.318455219E0
8.110893034E0,1.032361269E0,4.184453189E-1,-2.014786243E0
8.120893034E0,1.064125061E0,2.361050248E-1,-2.368575096E0
8.130893034E0,9.272911549E-1,8.052319288E-2,-2.119500637E0
8.140893034E0,7.173109055E-1,1.052328944E-2,-1.480008125E0
8.150893034E0,3.636064529E-1,-1.134704053E-1,-6.449871063E-1
8.160893034E0,-4.327893257E-2,-2.903695107E-1,9.755706787E-2
8.170893034E0,-6.284091473E-1,-3.511932492E-1,4.564199448E-1
8.180893034E0,-1.070473909E0,-3.220139444E-1,3.046503067E-1
8.190893034E0,-1.298633337E0,-2.846242785E-1,6.608963013E-4
8.200893034E0,-1.330127001E0,-2.420221567E-1,-1.708784103E-1
8.210893034E0,-1.059735060E0,-2.903483510E-1,-2.532501221E-1
8.220893034E0,-7.077033520E-1,-3.763137460E-1,-2.593774796E-1
8.230893034E0,-5.605800152E-1,-3.180154562E-1,-3.837289810E-1
8.240893034E0,-7.498772144E-1,3.681251407E-2,-7.132759094E-1
8.250893034E0,-9.772903919E-1,3.218072653E-1,-9.254579544E-1
8.260893034E0,-9.555380344E-1,1.572916806E-1,-7.095651627E-1
8.270893034E0,-7.522337437E-1,-2.302271724E-1,-1.881074905E-1
8.280893034E0,-6.361687183E-1,-5.329338312E-1,4.060506821E-1
8.290893034E0,-6.725950241E-1,-5.626214743E-1,1.066043854E0
8.300893034E0,-5.026454926E-1,-6.333063245E-1,1.675168991E0
8.310893034E0,-3.611676693E-1,-6.173830628E-1,2.062962532E0
8.320893034E0,-2.734341621E-1,-6.390125155E-1,2.153223991E0
8.330893034E0,-4.185574055E-1,-5.437939167E-1,2.381998062E0
8.340893034E0,-8.190472126E-1,-3.741892874E-1,2.659021378E0
8.350893034E0,-1.108698368E0,-1.453539729E-1,2.857037544E0
8.360893034E0,-1.154769182E0,-1.839909405E-1,2.599627495E0
8.370893034E0,-9.200797081E-1,-2.516374886E-1,2.035830498E0
8.380893034E0,-7.881655693E-1,-1.568622887E-1,1.526244164E0
8.390893034E0,-8.703992367E-1,4.658047855E-2,1.014043808E0
8.400893034E0,-8.883898258E-1,3.228448629E-1,4.174270630E-1
8.410893034E0,-7.335867882E-1,6.689902544E-1,-2.256813049E-1
8.420893034E0,-5.427973270E-1,9.898731709E-1,-7.005386353E-1
8.430893034E0,-4.579718113E-1,1.189904690E0,-7.756299973E-1
8.440893034E0,-5.260682106E-1,1.222669601E0,-4.488763809E-1
8.450893034E0,-7.096800804E-1,1.043909550E0,7.673263550E-2
8.460893034E0,-8.732774258E-1,7.997853160E-1,5.955209732E-1
8.470893034E0,-8.740463257E-1,5.077744126E-1,8.944787979E-1
8.480893034E0,-7.477996349E-1,1.883205771E-1,9.586906433E-1
8.490893034E0,-5.273345709E-1,-1.434958577E-1,7.980995178E-1
8.500893034E0,-2.277429104E-1,-4.512036145E-1,6.534786224E-1
8.510893034E0,3.287339211E-2,-7.274993658E-1,6.322317123E-1
8.520893034E0,1.308790445E-1,-9.114837050E-1,6.666965485E-1
8.530893034E0,3.039312363E-2,-8.642612696E-1,4.384145737E-1
8.540893034E0,-2.031227350E-1,-6.386021972E-1,1.422882080E-2
8.550893034E0,-3.276578188E-1,-4.554008245E-1,-2.659320831E-1
8.560893034E0,-1.840639114E-1,-4.626677036E-1,-4.115161896E-1
8.570893034E0,6.767237186E-2,-4.790052772E-1,-3.665237427E-1
8.580893034E0,1.905062795E-1,-3.739415407E-1,-1.802473068E-1
8.590893034E0,2.427854240E-1,-3.120857477E-1,-2.324485779E-2
8.600893034E0,2.615467310E-1,-3.493170738E-1,6.700801849E-2
8.610893034E0,2.231961489E-1,-4.568194151E-1,4.099464417E-2
8.620893034E0,1.037257910E-1,-6.406291723E-1,-6.895828247E-2
8.630893034E0,-1.140631437E-1,-8.316909075E-1,-3.582963943E-1
8.640893034E0,-2.777398229E-1,-8.599296808E-1,-6.061878204E-1
8.650893034E0,-3.501690626E-1,-7.298457623E-1,-7.938690186E-1
8.660893034E0,-3.158111274E-1,-5.147067308E-1,-9.350528717E-1
8.670893034E0,-1.720472574E-1,-2.319474220E-1,-9.493932724E-1
8.680893034E0,-2.575582266E-2,7.696270943E-2,-1.047464371E0
8.690893034E0,1.129491329E-1,2.773351669E-1,-1.152803421E0
8.700893034E0,1.807283461E-1,3.579900265E-1,-1.278057098E0
8.710893034E0,2.420313060E-1,3.050570488E-1,-1.400252342E0
8.720893034E0,2.549853921E-1,2.703888416E-1,-1.292296410E0
8.730893034E0,2.165462375E-1,2.383298874E-1,-9.549121857E-1
8.740893034E0,2.096209526E-1,1.505043507E-1,-6.451931000E-1
8.750893034E0,2.536090314E-1,-1.718807220E-2,-3.376274109E-1
8.760893034E0,2.215669304E-1,-2.083795071E-1,-2.571201324E-2
8.770893034E0,9.387376904E-2,-3.891563416E-1,1.419296265E-1
8.780893034E0,-4.132035375E-2,-4.883577824E-1,2.764081955E-1
8.790893034E0,-3.823256493E-2,-5.784354210E-1,3.264141083E-1
8.800893034E0,-6.874307990E-3,-5.538713932E-1,3.416700363E-1
8.810893034E0,-2.945072949E-3,-4.183895588E-1,2.896356583E-1
8.820893034E0,-2.295956016E-3,-2.656166553E-1,1.316986084E-1
8.830893034E0,3.499192744E-2,-1.030583382E-1,-6.040000916E-2
8.840893034E0,6.329189986E-2,5.387258530E-2,-2.044315338E-1
8.850893034E0,1.313760281E-1,1.896052361E-1,-3.311128616E-1
8.860893034E0,2.418163568E-1,2.065412998E-1,-5.634117126E-1
8.870893034E0,2.928371131E-1,1.778714657E-1,-7.308053970E-1
8.880893034E0,2.130504847E-1,2.040297985E-1,-6.308917999E-1
8.890893034E0,3.939983249E-2,2.668497562E-1,-5.696849823E-1
8.900893034E0,-7.691759616E-2,2.762284279E-1,-6.070775986E-1
8.910893034E0,-3.863196075E-2,1.996011734E-1,-5.206909180E-1
8.920893034E0,5.173585936E-2,1.068737507E-1,-3.693332672E-1
8.930893034E0,1.218908653E-1,7.976436615E-2,-2.187147141E-1
8.940893034E0,2.981483340E-1,3.790616989E-2,-7.239341736E-2
8.950893034E0,4.569567442E-1,-1.251935959E-2,2.904615402E-1
8.960893034E0,4.984987378E-1,-7.258701324E-2,5.731124878E-1
8.970893034E0,4.830160141E-1,-1.470348835E-1,6.981182098E-1
8.980893034E0,4.523385763E-1,-2.123663425E-1,6.804666519E-1
8.990893034E0,1.903880388E-1,-2.190887928E-1,4.153327942E-1
9.000893034E0,-1.171775982E-1,-1.761538982E-1,5.615425110E-2
9.010893034E0,-3.245389462E-1,-7.890033722E-2,-3.005275726E-1
9.020893034E0,-2.830946743E-1,2.189040184E-2,-7.460498810E-1
9.030893034E0,-1.684346795E-2,3.664231300E-2,-1.211688042E0
9.040893034E0,1.706292331E-1,1.234250069E-1,-1.492814064E0
9.050893034E0,1.693815589E-1,2.591748238E-1,-1.529045105E0
9.060893034E0,1.122663990E-1,2.914991379E-1,-1.299249649E0
9.070893034E0,1.832082123E-1,1.188642979E-1,-8.550443649E-1
9.080893034E0,8.432255685E-2,-6.327152252E-2,-2.757863998E-1
9.090893034E0,-2.473020256E-1,-1.611816883E-1,2.237062454E-1
9.100893034E0,-6.040921807E-1,-1.831171513E-1,6.063394547E-1
9.110893034E0,-8.874366879E-1,-2.135269642E-1,7.772827148E-1
9.120893034E0,-1.096910357E0,-1.090881824E-1,6.841335297E-1
9.130893034E0,-1.106530070E0,8.284330368E-2,3.807630539E-1
9.140893034E0,-9.033898711E-1,3.258588314E-1,-7.228469849E-2
9.150893034E0,-5.884369016E-1,5.433251858E-1,-4.616441727E-1
9.160893034E0,-1.089219302E-1,5.718038082E-1,-7.511806488E-1
9.170893034E0,2.201548964E-1,5.110771656E-1,-9.391603470E-1
9.180893034E0,1.181247830E-1,5.215280056E-1,-1.162203789E0
9.190893034E0,-7.286491990E-2,4.979171753E-1,-1.090325356E0
9.200893034E0,-1.847521663E-1,3.773496151E-1,-5.020608902E-1
9.210893034E0,-2.035428882E-1,1.416778564E-1,1.830673218E-1
9.220893034E0,-4.286547005E-1,-3.475308418E-2,3.533029556E-1
9.230893034E0,-7.025873065E-1,-1.393001080E-1,1.643590927E-1
9.240893034E0,-7.423975468E-1,-2.567749023E-1,-1.372098923E-1
9.250893034E0,-4.627619982E-1,-4.298959970E-1,-4.412317276E-1
9.260893034E0,-7.625830173E-2,-5.389425755E-1,-5.462503433E-1
9.270893034E0,2.022767663E-1,-4.510228634E-1,-6.746654510E-1
9.280893034E0,2.191807628E-1,-1.512660980E-1,-8.596515656E-1
9.290893034E0,2.449334562E-1,4.544496536E-2,-9.284315109E-1
9.300893034E0,1.801092625E-1,4.256248474E-2,-8.750333786E-1
9.310893034E0,-4.609858990E-2,2.398276329E-2,-7.669944763E-1
9.320893034E0,-2.643610835E-1,-1.440763474E-3,-6.788053513E-1
9.330893034E0,-3.164048791E-1,-1.273844242E-1,-7.508077621E-1
9.340893034E0,-2.469535470E-1,-2.231227160E-1,-6.724157333E-1
9.350893034E0,-1.469165087E-1,-2.304284573E-1,-2.382907867E-1
9.360893034E0,-1.899383664E-1,-1.510936022E-1,3.662738800E-1
9.370893034E0,-2.859072685E-1,-8.390545845E-2,7.809305191E-1
9.380893034E0,-4.201105833E-1,-3.346061707E-2,7.979803085E-1
9.390893034E0,-4.026378393E-1,-7.282161713E-2,6.346836090E-1
9.400893034E0,-2.095842361E-1,-1.827372313E-1,4.483261108E-1
9.410893034E0,-9.486675262E-4,-2.820643187E-1,3.590240479E-1
9.420893034E0,2.491039038E-1,-3.798036575E-1,3.677825928E-1
9.430893034E0,5.046077967E-1,-4.480003119E-1,3.533535004E-1
9.440893034E0,6.043906212E-1,-3.826497793E-1,2.639331818E-1
9.450893034E0,5.598602295E-1,-3.169988394E-1,-2.783489227E-2
9.460893034E0,2.189384699E-1,-2.896596193E-1,-2.677478790E-1
9.470893034E0,-1.493071318E-1,-4.310824275E-1,-8.749389648E-2
9.480893034E0,-4.585869312E-1,-5.979946852E-1,2.217931747E-1
9.490893034E0,-8.947349787E-1,-5.830526352E-1,5.067253113E-1
9.500893034E0,-1.310859442E0,-5.297550559E-1,9.644603729E-2
9.510893034E0,-1.232529879E0,-3.768340349E-1,1.217241287E-1
9.520893034E0,-9.830477238E-1,-2.601536512E-1,1.364307404E-1
9.530893034E0,-7.166731358E-1,-1.603330970E-1,8.282566071E-2
9.540893034E0,-5.009717941E-1,-1.317862868E-1,1.003656387E-1
9.550893034E0,-3.333384991E-1,-1.799172163E-1,2.515258789E-1
9.560893034E0,-2.132420540E-1,-2.565549910E-1,5.174818039E-1
9.570893034E0,-1.859369278E-1,-2.270200551E-1,8.413324356E-1
9.580893034E0,-2.305090427E-1,-1.600673199E-1,1.078570366E0
9.590893034E0,-2.854232788E-1,-1.015065238E-1,1.088277817E0
9.600893034E0,-3.286585808E-1,-1.193386018E-1,9.757289886E-1
9.610893034E0,-4.354331493E-1,-1.219547987E-1,8.267030716E-1
9.620893034E0,-5.350451469E-1,-4.124659300E-2,6.947240829E-1
9.630893034E0,-5.549545288E-1,8.054949343E-2,6.512889862E-1
9.640893034E0,-4.620757103E-1,1.991422474E-1,5.899343491E-1
9.650893034E0,-2.540762424E-1,2.959427536E-1,6.047849655E-1
9.660893034E0,-1.460978985E-1,4.306844771E-1,6.125030518E-1
9.670893034E0,-6.344270706E-2,5.491364598E-1,5.496702194E-1
9.680893034E0,7.215762138E-2,6.179059148E-1,3.204450607E-1
9.690893034E0,9.930133820E-2,7.464852333E-1,8.388996124E-2
9.700893034E0,3.485569954E-1,7.043925524E-1,-9.839248657E-2
9.710893034E0,3.357844353E-1,6.897218823E-1,-3.027420044E-1
9.720893034E0,4.040870667E-1,6.206990480E-1,-4.945602417E-1
9.730893034E0,5.735929012E-1,5.063552260E-1,-3.896446228E-1
9.740893034E0,5.866670609E-1,2.826848328E-1,-2.329158783E-2
9.750893034E0,1.495728493E-1,1.882179081E-1,3.881826401E-1
9.760893034E0,-2.024588585E-1,1.775407195E-1,6.404228210E-1
9.770893034E0,-1.749584675E-1,2.382824123E-1,9.836826324E-1
9.780893034E0,-1.341822147E-1,3.533277512E-1,1.142369270E0
9.790893034E0,-5.778717995E-2,5.907406807E-1,9.987468719E-1
9.800893034E0,-6.709647179E-2,8.900017142E-1,8.601942062E-1
9.810893034E0,-1.986618042E-1,1.111063361E0,7.585763931E-1
9.820893034E0,-3.413786888E-1,1.219158292E0,7.175493240E-1
9.830893034E0,-2.273166180E-1,1.115685225E0,6.520786285E-1
9.840893034E0,3.233995438E-1,8.523961306E-1,7.750864029E-1
9.850893034E0,1.495757103E-1,4.378690720E-1,7.107095718E-1
9.860893034E0,2.510983944E-1,8.982187510E-2,8.719434738E-1
9.870893034E0,-1.176202297E-1,-9.124314785E-2,1.014269829E0
9.880893034E0,-3.423401117E-1,-3.128382564E-1,9.111642838E-1
9.890893034E0,-1.305334568E-1,-3.757305145E-1,5.202198029E-1
9.900893034E0,1.917371750E-1,-3.173749447E-1,-1.190185547E-3
9.910893034E0,5.105719566E-1,-2.551095486E-1,-5.388793945E-1
9.920893034E0,7.119027376E-1,-2.729191184E-1,-8.313188553E-1
9.930893034E0,7.756307125E-1,-3.374869823E-1,-9.863529205E-1
9.940893034E0,6.162269115E-1,-2.692785263E-1,-1.140521049E0
9.950893034E0,2.609744072E-1,-1.544455886E-1,-1.215441704E0
9.960893034E0,2.362239361E-2,-1.149256229E-1,-1.458399773E0
9.970893034E0,6.278693676E-2,-9.431451559E-2,-1.873277664E0
9.980893034E0,1.599775553E-1,-2.016862035E-1,-2.404629230E0
9.990893034E0,2.936409712E-1,-4.600369930E-1,-2.602608681E0
1.000089303E1,3.613965511E-1,-6.339541674E-1,-2.419377327E0
1.001089303E1,2.987437248E-1,-7.116566896E-1,-1.904367447E0
1.002089303E1,2.745374441E-1,-7.723005414E-1,-1.229199409E0
1.003089303E1,4.369885921E-1,-8.881163597E-1,-7.721891403E-1
1.004089303E1,5.476155281E-1,-8.748572469E-1,-6.556816101E-1
1.005089303E1,2.314769030E-1,-3.902677894E-1,-7.055540085E-1
1.006089303E1,-3.138589859E-2,1.067804098E-1,-5.938596725E-1
1.007089303E1,-1.772111654E-1,3.780964911E-1,-3.248758316E-1
1.008089303E1,-2.247159481E-1,5.326606035E-1,-2.296924591E-2
1.009089303E1,7.703053951E-2,4.708184600E-1,3.195238113E-1
1.010089303E1,5.205338001E-1,2.646546662E-1,7.656688690E-1
1.011089303E1,9.040291309E-1,-1.456354856E-1,1.406040192E0
1.012089303E1,1.034135580E0,-5.980836749E-1,1.824237823E0
1.013089303E1,1.060712218E0,-8.810819983E-1,2.264919281E0
1.014089303E1,9.883074760E-1,-9.125198722E-1,2.453019142E0
1.015089303E1,7.658171654E-1,-7.532138824E-1,2.060309410E0
1.016089303E1,4.352737665E-1,-5.377628207E-1,1.715197563E0
1.017089303E1,-5.878841877E-2,-3.476437628E-1,1.440720558E0
1.018089303E1,-1.284296513E-1,-5.346046686E-1,9.838237762E-1
1.019089303E1,7.788968086E-2,-5.355638266E-1,5.537452698E-1
1.020089303E1,3.198723793E-1,-2.661109269E-1,-7.999420166E-3
1.021089303E1,6.847974062E-1,1.579851061E-1,-5.004425049E-1
1.022089303E1,1.029639244E0,6.090016365E-1,-7.022352219E-1
1.023089303E1,1.073033333E0,8.819125295E-1,-5.754652023E-1
1.024089303E1,7.838953733E-1,8.007429242E-1,-2.634439468E-1
1.025089303E1,4.342638254E-1,4.701988995E-1,1.514091492E-1
1.026089303E1,1.515707970E-1,1.505797207E-1,3.180007935E-1
1.027089303E1,-3.721296787E-2,5.381038040E-2,2.425289154E-1
1.028089303E1,-1.160769463E-1,1.041519642E-1,-3.544425964E-2
1.029089303E1,2.130556107E-2,1.804111451E-1,-4.667224884E-1
1.030089303E1,1.542019844E-1,3.125683069E-1,-8.314208984E-1
1.031089303E1,1.266977787E-1,5.278486609E-1,-9.842777252E-1
1.032089303E1,-6.503891945E-2,7.297270894E-1,-8.313026428E-1
1.033089303E1,-3.267811537E-1,8.121421933E-1,-4.118461609E-1
1.034089303E1,-4.101763964E-1,7.292952538E-1,3.685092926E-2
1.035089303E1,-3.074787855E-1,5.545233488E-1,2.282886505E-1
1.036089303E1,-2.413800955E-1,4.948098361E-1,3.362369537E-2
1.037089303E1,-1.081081629E-1,5.936485529E-1,-3.901004791E-1
1.038089303E1,1.933225393E-1,6.929689646E-1,-8.985452652E-1
1.039089303E1,2.749580145E-1,8.818443418E-1,-1.229964256E0
1.040089303E1,1.794056892E-1,9.343468547E-1,-1.222369194E0
1.041089303E1,4.040122032E-2,6.745908260E-1,-5.874261856E-1
1.042089303E1,-1.416394711E-1,2.139185667E-1,4.807615280E-1
1.043089303E1,-2.908920050E-1,-2.727501690E-1,1.593783379E0
1.044089303E1,-3.469115496E-1,-6.429428458E-1,2.300326347E0
1.045089303E1,-6.019580364E-1,-7.994742393E-1,2.356183052E0
1.046089303E1,-7.586663961E-1,-8.152381182E-1,2.253954887E0
1.047089303E1,-8.306623697E-1,-6.722323895E-1,1.954705238E0
1.048089303E1,-8.236464858E-1,-4.788204432E-1,1.500218391E0
1.049089303E1,-6.680181026E-1,-3.444311619E-1,1.247158051E0
1.050089303E1,-5.379087925E-1,-1.284796000E-1,1.217098236E0
1.051089303E1,-4.748128653E-1,1.027900279E-1,1.167975426E0
1.052089303E1,-2.979574800E-1,2.282695174E-1,1.126141548E0
1.053089303E1,-1.841436625E-1,2.657656670E-1,8.951539993E-1
1.054089303E1,-1.140173674E-1,2.339903116E-1,6.319627762E-1
1.055089303E1,-1.414006948E-2,8.828818798E-2,5.613231659E-1
1.056089303E1,4.514187574E-2,1.884686947E-2,7.106256485E-1
1.057089303E1,7.787460089E-2,3.512597084E-2,7.531280518E-1
1.058089303E1,5.736613274E-2,7.179212570E-2,8.169832230E-1
1.059089303E1,-5.674099922E-2,1.030582190E-1,8.080387115E-1
1.060089303E1,-5.815076828E-2,3.121435642E-2,4.693756104E-1
1.061089303E1,1.025424898E-1,-2.321034670E-1,-5.222511292E-2
1.062089303E1,2.117184103E-1,-4.088783264E-1,-4.469804764E-1
1.063089303E1,7.255142927E-2,-2.684806585E-1,-6.871175766E-1
1.064089303E1,-3.750395775E-2,-1.108024120E-1,-1.016854286E0
1.065089303E1,-4.166442156E-2,-4.367923737E-2,-1.301258087E0
1.066089303E1,-1.373704672E-1,6.167495251E-2,-1.530306816E0
1.067089303E1,-2.438250184E-1,9.144866467E-2,-1.687658310E0
1.068089303E1,-2.377055883E-1,3.602457047E-2,-1.813214302E0
1.069089303E1,-2.081776857E-1,-5.857682228E-2,-1.915967941E0
1.070089303E1,-1.896718740E-1,-1.433105469E-1,-1.881546021E0
1.071089303E1,-1.747834086E-1,-9.150242805E-2,-1.669627190E0
1.072089303E1,2.547979355E-3,-7.161474228E-2,-1.324649811E0
1.073089303E1,1.866376400E-1,-6.026625633E-2,-1.000150681E0
1.074089303E1,1.973728538E-1,-3.406763077E-2,-6.329126358E-1
1.075089303E1,8.276551962E-2,-3.629779816E-2,-3.071022034E-1
1.076089303E1,-4.515820742E-2,-1.111023426E-1,-8.199691772E-2
1.077089303E1,-1.713842750E-1,-1.957236528E-1,7.356548309E-2
1.078089303E1,-3.427720666E-1,-2.403395176E-1,1.642065048E-1
1.079089303E1,-5.455136895E-1,-2.450916767E-1,1.709451675E-1
1.080089303E1,-6.588664651E-1,-2.207698822E-1,1.652240753E-1
1.081089303E1,-6.314443946E-1,-2.305510044E-1,8.392620087E-2
1.082089303E1,-5.710581541E-1,-2.669100761E-1,5.322647095E-2
1.083089303E1,-5.672304034E-1,-2.321070433E-1,1.260747910E-1
1.084089303E1,-6.184760332E-1,-2.000938654E-1,2.775230408E-1
1.085089303E1,-6.529289484E-1,-1.823182106E-1,3.925247192E-1
1.086089303E1,-7.048397660E-1,-1.981338263E-1,3.226871490E-1
1.087089303E1,-7.569581270E-1,-2.242796421E-1,1.247720718E-1
1.088089303E1,-7.478234172E-1,-2.549629211E-1,-1.915397644E-1
1.089089303E1,-6.226842403E-1,-2.617652416E-1,-4.970960617E-1
1.090089303E1,-3.861371279E-1,-2.306292057E-1,-6.866168976E-1
1.091089303E1,-1.378285289E-1,-1.653132439E-1,-8.381700516E-1
1.092089303E1,-8.780419827E-3,-7.284700871E-2,-8.571834564E-1
1.093089303E1,-2.501404285E-2,5.430686474E-2,-6.817922592E-1
1.094089303E1,-2.187799215E-1,1.854081154E-1,-3.021764755E-1
1.095089303E1,-4.855367541E-1,2.277053595E-1,-7.473087311E-2
1.096089303E1,-6.488954425E-1,5.467009544E-2,-8.770084381E-2
1.097089303E1,-7.159938812E-1,-2.111420631E-1,-1.557598114E-1
1.098089303E1,-6.767146587E-1,-3.678159714E-1,-1.176776886E-1
1.099089303E1,-5.733833313E-1,-3.251665831E-1,-2.679824829E-4
1.100089303E1,-5.052163601E-1,-1.224485636E-1,1.021795273E-1
1.101089303E1,-5.292354822E-1,1.477876902E-1,2.053899765E-1
1.102089303E1,-4.944403172E-1,3.049994707E-1,2.082090378E-1
1.103089303E1,-3.996619582E-1,2.960885763E-1,1.044015884E-1
1.104089303E1,-1.619288027E-1,2.095100880E-1,8.635902405E-2
1.105089303E1,1.890222132E-1,1.256923676E-1,1.903362274E-1
1.106089303E1,4.574860930E-1,1.376757622E-1,4.283418655E-1
1.107089303E1,5.724272132E-1,2.316486835E-1,6.478366852E-1
1.108089303E1,6.773863435E-1,2.824094296E-1,7.161540985E-1
1.109089303E1,7.474883199E-1,2.424724102E-1,6.234941483E-1
1.110089303E1,8.880913854E-1,1.233766079E-1,4.288635254E-1
1.111089303E1,1.037897229E0,3.015995026E-3,3.202638626E-1
1.112089303E1,1.057211161E0,-7.905244827E-2,2.095298767E-1
1.113089303E1,9.381236434E-1,-1.578369141E-1,7.923221588E-2
1.114089303E1,6.677628160E-1,-1.737999916E-1,2.964496613E-2
1.115089303E1,3.123498261E-1,-1.321849823E-1,-1.176071167E-2
1.116089303E1,1.410952359E-1,-1.324770451E-1,-1.207399368E-1
1.117089303E1,1.279623210E-1,-1.564826965E-1,-2.704563141E-1
1.118089303E1,1.909127533E-1,-1.875584126E-1,-4.847784042E-1
1.119089303E1,4.022102058E-1,-2.329468727E-1,-6.683635712E-1
1.120089303E1,6.663022637E-1,-2.538225651E-1,-7.389850616E-1
1.121089303E1,8.219673634E-1,-1.578872204E-1,-6.764745712E-1
1.122089303E1,8.292005062E-1,1.324009895E-2,-4.311227798E-1
1.123089303E1,7.167436481E-1,2.248289585E-1,-2.231082916E-1
1.124089303E1,4.880532026E-1,3.773097992E-1,-2.185993195E-1
1.125089303E1,3.495898247E-1,3.734111786E-1,-3.200292587E-1
1.126089303E1,3.631548882E-1,2.696120739E-1,-3.839473724E-1
1.127089303E1,5.780989528E-1,2.162127495E-1,-2.679557800E-1
1.128089303E1,8.354185224E-1,2.663612366E-1,-1.379461288E-1
1.129089303E1,1.098906755E0,3.613471985E-1,-3.374099731E-2
1.130089303E1,1.378150225E0,4.912495613E-1,1.409196854E-1
1.131089303E1,1.554718971E0,6.321804523E-1,3.741292953E-1
1.132089303E1,1.543589592E0,6.569364071E-1,3.915338516E-1
1.133089303E1,1.456152678E0,5.288875103E-1,2.654666901E-1
1.134089303E1,1.234592199E0,3.294601440E-1,1.763420105E-1
1.135089303E1,9.926849008E-1,1.516499519E-1,2.490243912E-1
1.136089303E1,8.298217058E-1,3.781867027E-2,4.335250854E-1
1.137089303E1,7.546954155E-1,5.724430084E-3,5.318326950E-1
1.138089303E1,7.199985981E-1,-1.325488091E-2,5.983266830E-1
1.139089303E1,6.738039255E-1,-6.063294411E-2,5.662937164E-1
1.140089303E1,6.435354948E-1,-1.232481003E-1,5.157985687E-1
1.141089303E1,7.070964575E-1,-1.769824028E-1,5.312366486E-1
1.142089303E1,7.685379982E-1,-1.988041401E-1,6.200618744E-1
1.143089303E1,7.399640083E-1,-1.539094448E-1,7.010812759E-1
1.144089303E1,5.329726934E-1,-1.749682426E-2,7.347755432E-1
1.145089303E1,2.453703880E-1,9.124803543E-2,5.910768509E-1
1.146089303E1,2.823102474E-2,1.174192429E-1,2.223691940E-1
1.147089303E1,-6.104731560E-2,7.259511948E-2,-2.411947250E-1
1.148089303E1,-1.207427979E-1,1.346130371E-1,-6.282587051E-1
1.149089303E1,-2.903088927E-1,3.899483681E-1,-8.907814026E-1
1.150089303E1,-2.599143982E-1,5.124201775E-1,-1.021265984E0
1.151089303E1,-8.537608385E-2,5.239512920E-1,-9.354209900E-1
1.152089303E1,4.426491261E-2,5.149209499E-1,-8.569831848E-1
1.153089303E1,7.406526804E-2,5.492715836E-1,-7.718410492E-1
1.154089303E1,2.173906565E-2,5.635759830E-1,-7.868289948E-1
1.155089303E1,2.257508039E-2,4.038767815E-1,-8.775157928E-1
1.156089303E1,1.652938128E-2,1.048588753E-1,-9.447526932E-1
1.157089303E1,-8.763539791E-2,-1.286077499E-1,-8.222951889E-1
1.158089303E1,-2.816527486E-1,-2.063553333E-1,-5.385532379E-1
1.159089303E1,-6.149240732E-1,-1.205163002E-1,-2.472162247E-1
1.160089303E1,-8.764908910E-1,-2.528572083E-2,-2.711582184E-2
1.161089303E1,-9.708468914E-1,-3.144550323E-2,6.245899200E-2
1.162089303E1,-9.088758230E-1,-1.025710106E-1,-2.674579620E-2
1.163089303E1,-6.353953481E-1,-1.545257568E-1,-1.609535217E-1
1.164089303E1,-2.999029160E-1,-1.837203503E-1,-2.162685394E-1
1.165089303E1,-8.300167322E-2,-1.263332367E-1,-1.848335266E-1
1.166089303E1,5.405902863E-3,-1.589751244E-2,-1.790008545E-1
1.167089303E1,2.003967762E-2,6.014084816E-2,-2.307853699E-1
1.168089303E1,2.321004868E-3,1.561450958E-2,-2.052087784E-1
1.169089303E1,-7.285591960E-2,-8.723330498E-2,-7.240581512E-2
1.170089303E1,-2.184742689E-1,-1.438138485E-1,1.022367477E-1
1.171089303E1,-4.297658801E-1,-1.222782135E-1,2.992086411E-1
1.172089303E1,-5.816171169E-1,-1.495690346E-1,4.152135849E-1
1.173089303E1,-5.595967174E-1,-2.916164398E-1,3.580608368E-1
1.174089303E1,-5.037360191E-1,-4.217634201E-1,2.600393295E-1
1.175089303E1,-5.227432251E-1,-4.246132374E-1,1.148443222E-1
1.176089303E1,-5.129433870E-1,-3.799030781E-1,-5.195617676E-3
1.177089303E1,-3.825250566E-1,-3.414657116E-1,-1.967048645E-2
1.178089303E1,-2.771094441E-1,-2.533335686E-1,3.636932373E-2
1.179089303E1,-2.527701557E-1,-1.136367321E-1,4.046058655E-2
1.180089303E1,-2.531544864E-1,-2.764773369E-2,-3.977775574E-3
1.181089303E1,-2.663068473E-1,2.708435059E-4,-6.168460846E-2
1.182089303E1,-2.904880345E-1,-3.682279587E-2,-1.050548553E-1
1.183089303E1,-2.589390874E-1,-8.483362198E-2,-2.297668457E-1
1.184089303E1,-2.550669909E-1,-8.299851418E-2,-4.200859070E-1
1.185089303E1,-3.291305006E-1,-2.865648270E-2,-5.467891693E-1
1.186089303E1,-3.833752871E-1,5.795431137E-2,-6.272048950E-1
1.187089303E1,-4.300516546E-1,1.788196564E-1,-6.874437332E-1
1.188089303E1,-4.525608420E-1,3.227782249E-1,-7.007703781E-1
1.189089303E1,-4.472379386E-1,4.354267120E-1,-7.297277451E-1
1.190089303E1,-3.391067386E-1,4.354774952E-1,-6.891765594E-1
1.191089303E1,-2.062633932E-1,3.614332676E-1,-6.069622040E-1
1.192089303E1,-1.154668182E-1,2.146892548E-1,-4.695854187E-1
1.193089303E1,1.152710617E-2,-1.049566269E-2,-2.286472321E-1
1.194089303E1,1.525631249E-1,-2.374973297E-1,9.197902679E-2
1.195089303E1,1.095328704E-1,-3.430774212E-1,4.225635529E-1
1.196089303E1,-1.227546334E-1,-3.945143223E-1,6.337213516E-1
1.197089303E1,-5.022491217E-1,-4.039359093E-1,6.528348923E-1
1.198089303E1,-9.041617513E-1,-3.647810221E-1,4.703788757E-1
1.199089303E1,-1.229576945E0,-2.598240376E-1,9.047222137E-2
1.200089303E1,-1.313264132E0,-1.153433323E-1,-3.270740509E-1
1.201089303E1,-9.204903841E-1,-1.147096157E-1,-6.079139709E-1
1.202089303E1,-1.769707352E-1,-1.770225763E-1,-5.274896622E-1
1.203089303E1,3.943729103E-1,-2.525830269E-2,-2.880210876E-1
1.204089303E1,7.244431973E-1,9.040927887E-2,-1.768074036E-1
1.205089303E1,8.845676184E-1,-2.022552490E-2,-1.735849380E-1
1.206089303E1,8.777961731E-1,-2.604479790E-1,-2.898139954E-1
1.207089303E1,7.221869230E-1,-5.032471418E-1,-5.025405884E-1
1.208089303E1,4.177858829E-1,-7.454550266E-1,-8.598012924E-1
1.209089303E1,1.047102660E-1,-9.060977697E-1,-1.223317146E0
1.210089303E1,-1.291596293E-1,-9.260625243E-1,-1.491197586E0
1.211089303E1,-2.556056380E-1,-8.680232763E-1,-1.599042416E0
1.212089303E1,-2.466001064E-1,-7.051579952E-1,-1.631237984E0
1.213089303E1,-1.923872232E-1,-4.362660646E-1,-1.436655045E0
1.214089303E1,-5.858231336E-2,-9.331846237E-2,-1.109190941E0
1.215089303E1,4.242647290E-1,1.574310064E-1,-6.584205627E-1
1.216089303E1,1.190139055E0,2.222110033E-1,-1.089067459E-1
1.217089303E1,1.813834071E0,1.864795685E-1,5.445213318E-1
1.218089303E1,2.005867720E0,1.418195963E-1,1.111897469E0
1.219089303E1,1.674300909E0,2.374804020E-2,1.307517052E0
1.220089303E1,1.026491642E0,-8.034515381E-2,1.256873131E0
1.221089303E1,3.217580616E-1,-2.943950891E-1,9.999103546E-1
1.222089303E1,-3.266945481E-1,-3.999649882E-1,6.244668961E-1
1.223089303E1,-7.664696574E-1,-2.838817835E-1,2.932462692E-1
1.224089303E1,-9.125075340E-1,-4.669797421E-2,3.569316864E-2
1.225089303E1,-8.492840528E-1,2.504189014E-1,5.168533325E-2
1.226089303E1,-6.973077059E-1,6.037937403E-1,1.482105255E-1
1.227089303E1,-5.933012962E-1,1.000721335E0,1.895437241E-1
1.228089303E1,-4.891494513E-1,1.278997898E0,2.305908203E-1
1.229089303E1,-2.161112428E-1,1.207448244E0,2.396364212E-1
1.230089303E1,1.659224033E-1,7.971773148E-1,3.181276321E-1
1.231089303E1,2.867334783E-1,3.177920580E-1,7.048358917E-1
1.232089303E1,-5.618047714E-2,2.716362476E-2,1.322103500E0
1.233089303E1,-6.989971995E-1,1.136451960E-1,1.515142441E0
1.234089303E1,-1.165875912E0,2.820054889E-1,1.352160454E0
1.235089303E1,-1.349267960E0,4.959616661E-1,9.976272583E-1
1.236089303E1,-1.298383713E0,8.271397352E-1,4.815111160E-1
1.237089303E1,-8.774533272E-1,1.016569614E0,-8.220481873E-2
1.238089303E1,-2.993001342E-1,1.127872586E0,-6.264381409E-1
1.239089303E1,2.749729753E-1,1.276158333E0,-9.271221161E-1
1.240089303E1,7.501894832E-1,1.167039037E0,-5.647420883E-1
1.241089303E1,1.115985870E0,6.005813479E-1,4.371728897E-1
1.242089303E1,1.080960631E0,6.512778997E-2,1.445307732E0
1.243089303E1,7.858542204E-1,-3.280757666E-1,1.958393097E0
1.244089303E1,4.526587427E-1,-6.498869658E-1,2.041862488E0
1.245089303E1,4.282450676E-2,-8.271033168E-1,1.811662674E0
1.246089303E1,-2.089724988E-1,-9.814437628E-1,1.332930565E0
1.247089303E1,-3.310011029E-1,-1.097292423E0,8.201379776E-1
1.248089303E1,-5.373089314E-1,-8.864936829E-1,3.253498077E-1
1.249089303E1,-7.216858864E-1,-5.320877433E-1,-1.810560226E-1
1.250089303E1,-6.944648027E-1,-2.433125973E-1,-7.178621292E-1
1.251089303E1,-4.915052652E-1,-3.027534485E-2,-1.198500633E0
1.252089303E1,-2.185034156E-1,1.317842007E-1,-1.647326469E0
1.253089303E1,7.703962922E-2,2.548924685E-1,-1.966222763E0
1.254089303E1,3.508672714E-1,3.682065606E-1,-1.888999939E0
1.255089303E1,4.316934943E-1,5.312543511E-1,-1.389019012E0
1.256089303E1,3.972321749E-1,5.484504104E-1,-8.353424072E-1
1.257089303E1,4.039888382E-1,3.213313222E-1,-3.323183060E-1
1.258089303E1,3.326332569E-1,9.707003832E-2,2.128553391E-1
1.259089303E1,1.766307354E-1,-6.838196516E-2,7.767486572E-1
1.260089303E1,8.552548289E-2,-2.273668051E-1,1.182308197E0
1.261089303E1,-1.866987348E-2,-4.091443121E-1,1.415364265E0
1.262089303E1,-2.236680388E-1,-4.720637798E-1,1.573159218E0
1.263089303E1,-4.902845621E-1,-4.132839739E-1,1.509645462E0
1.264089303E1,-6.799849272E-1,-2.515829206E-1,1.162248611E0
1.265089303E1,-6.976933479E-1,1.950210333E-2,7.250928879E-1
1.266089303E1,-5.577370524E-1,3.267426491E-1,2.521772385E-1
1.267089303E1,-1.150348932E-1,5.151022673E-1,-1.810531616E-1
1.268089303E1,1.894621700E-1,8.626787663E-1,-6.222448349E-1
1.269089303E1,3.070259392E-1,1.271596432E0,-9.439582825E-1
1.270089303E1,4.628443122E-1,1.506232500E0,-1.069139481E0
1.271089303E1,8.507580757E-1,1.334992886E0,-9.251604080E-1
1.272089303E1,1.268941879E0,8.706151247E-1,-2.832317352E-1
1.273089303E1,1.523006439E0,4.353320599E-1,7.724685669E-1
1.274089303E1,1.537291169E0,-2.138459682E-2,1.632854462E0
1.275089303E1,1.340312600E0,-4.916024804E-1,2.344141960E0
1.276089303E1,7.641330957E-1,-9.367420673E-1,2.766790390E0
1.277089303E1,-1.187403649E-1,-1.199632287E0,2.534953117E0
1.278089303E1,-9.589979649E-1,-1.342645168E0,1.782100677E0
1.279089303E1,-1.469410419E0,-1.445363760E0,7.240495682E-1
1.280089303E1,-1.809682012E0,-1.197539568E0,-4.182701111E-1
1.281089303E1,-1.904018521E0,-7.181738019E-1,-1.387277603E0
1.282089303E1,-1.287061095E0,-4.810108542E-1,-1.745090485E0
1.283089303E1,-3.475339711E-1,-3.261109591E-1,-1.725576401E0
1.284089303E1,3.542499244E-1,3.844583035E-2,-1.937728882E0
1.285089303E1,8.440003395E-1,5.097146034E-1,-2.283994675E0
1.286089303E1,1.145222068E0,7.353061438E-1,-2.438521385E0
1.287089303E1,1.208097219E0,6.062238216E-1,-2.074253082E0
1.288089303E1,1.146909714E0,5.909144878E-2,-1.460879326E0
1.289089303E1,7.614963651E-1,-4.365191460E-1,-8.884162903E-1
1.290089303E1,1.585333943E-1,-6.464513540E-1,-4.791326523E-1
1.291089303E1,-4.209900200E-1,-7.263768911E-1,-2.628326416E-2
1.292089303E1,-8.881659508E-1,-6.506937146E-1,4.285011292E-1
1.293089303E1,-1.290307641E0,-3.375763893E-1,7.945442200E-1
1.294089303E1,-1.426686287E0,-8.923232555E-3,9.295473099E-1
1.295089303E1,-1.322050095E0,1.833159924E-1,9.235506058E-1
1.296089303E1,-1.092339277E0,4.653806090E-1,7.920064926E-1
1.297089303E1,-7.384825945E-1,8.185844421E-1,3.688068390E-1
1.298089303E1,-3.273274899E-1,1.294550419E0,-3.529357910E-1
1.299089303E1,2.199708223E-1,1.546051025E0,-1.205533981E0
1.300089303E1,8.764934540E-1,1.156330585E0,-1.555544853E0
1.301089303E1,1.251844645E0,3.456608653E-1,-8.402404785E-1
1.302089303E1,1.122778177E0,-2.154889703E-1,1.003431320E0
1.303089303E1,5.299561024E-1,-4.454848766E-1,2.642965317E0
1.304089303E1,-3.446261883E-1,-4.541699290E-1,3.484572411E0
1.305089303E1,-1.395149469E0,-2.998858988E-1,3.308051109E0
1.306089303E1,-2.195436716E0,-9.359002113E-2,2.501680374E0
1.307089303E1,-2.325223923E0,-4.284629226E-2,1.341189384E0
1.308089303E1,-1.830983996E0,-1.089116633E-1,-7.389068604E-3
1.309089303E1,-5.156364441E-1,-4.056486785E-1,-1.106668472E0
1.310089303E1,1.246531367E0,-7.072202563E-1,-1.637439728E0
1.311089303E1,2.648148537E0,-5.906450748E-1,-1.686079979E0
1.312089303E1,3.447180271E0,-8.895251155E-2,-1.289815903E0
1.313089303E1,3.497867823E0,3.257831633E-1,-8.421688080E-1
1.314089303E1,2.872541904E0,4.303025603E-1,-8.257484436E-2
1.315089303E1,1.884363890E0,2.663766742E-1,2.989034653E-1
1.316089303E1,7.451198101E-1,3.096534312E-2,2.477951050E-1
1.317089303E1,-1.124579310E-1,-3.264259994E-1,-1.513576508E-2
1.318089303E1,-5.547838807E-1,-6.932704449E-1,-5.807857513E-1
1.319089303E1,-8.618013263E-1,-7.094739079E-1,-1.011837006E0
1.320089303E1,-1.294510841E0,-3.023179471E-1,-1.096259117E0
1.321089303E1,-1.514752865E0,1.000274345E-1,-1.059318542E0
1.322089303E1,-1.353348255E0,3.238983452E-1,-1.002563477E0
1.323089303E1,-9.613981247E-1,4.105121493E-1,-9.096107483E-1
1.324089303E1,-7.028326988E-1,5.904101133E-1,-7.341051102E-1
1.325089303E1,-6.372824907E-1,8.782974482E-1,-3.968782425E-1
1.326089303E1,-2.587820292E-1,9.545001388E-1,-3.174085617E-1
1.327089303E1,6.721293926E-2,1.080846548E0,-7.122316360E-1
1.328089303E1,-1.235314608E-1,1.448502064E0,-9.497842789E-1
1.329089303E1,-2.992609739E-1,1.332628965E0,-3.256845474E-1
1.330089303E1,-8.998608589E-2,6.872969270E-1,7.670679092E-1
1.331089303E1,2.347791195E-1,2.369478345E-1,1.767129898E0
1.332089303E1,6.958116293E-1,4.952499270E-2,2.713940620E0
1.333089303E1,1.047412276E0,-2.383613586E-2,3.564719200E0
1.334089303E1,1.226277947E0,-2.865183949E-1,4.007644653E0
1.335089303E1,1.155098915E0,-6.553509831E-1,4.056720734E0
1.336089303E1,7.860081196E-1,-9.078339338E-1,3.838089943E0
1.337089303E1,3.796229959E-1,-1.048908591E0,3.331334114E0
1.338089303E1,8.484452963E-2,-1.181676626E0,2.529646873E0
1.339089303E1,-5.211943388E-2,-1.316926003E0,1.765720367E0
1.340089303E1,-1.060123444E-1,-1.258822203E0,1.212446213E0
1.341089303E1,-2.712607384E-2,-1.023206830E0,9.285411835E-1
1.342089303E1,9.081941843E-2,-7.169283628E-1,6.704750061E-1
1.343089303E1,1.080981493E-1,-4.595347047E-1,2.184314728E-1
1.344089303E1,2.360535711E-1,-4.098505974E-1,-2.848291397E-1
1.345089303E1,3.408254385E-1,-4.033986926E-1,-7.573966980E-1
1.346089303E1,4.797205627E-1,-4.461888671E-1,-1.313543320E0
1.347089303E1,7.153161764E-1,-5.769042969E-1,-2.071730614E0
1.348089303E1,1.046264887E0,-7.395448685E-1,-2.724223137E0
1.349089303E1,1.372908831E0,-7.961840630E-1,-3.029131413E0
1.350089303E1,1.503447056E0,-6.907570958E-1,-3.160423279E0
1.351089303E1,1.351031780E0,-5.116510987E-1,-3.161210060E0
1.352089303E1,1.106473684E0,-3.318427205E-1,-2.912459373E0
1.353089303E1,8.782515526E-1,-3.123389482E-1,-2.505620003E0
1.354089303E1,7.244629860E-1,-5.142217875E-1,-2.179112911E0
1.355089303E1,7.086527944E-1,-7.906397581E-1,-1.858123779E0
1.356089303E1,6.293191910E-1,-9.177380204E-1,-1.513365746E0
1.357089303E1,6.065511703E-1,-9.411392212E-1,-1.163689613E0
1.358089303E1,7.537105083E-1,-9.099072218E-1,-6.956386566E-1
1.359089303E1,9.481149316E-1,-8.906364441E-1,-2.533216476E-1
1.360089303E1,1.067091823E0,-9.344778061E-1,2.153997421E-1
1.361089303E1,9.892525673E-1,-9.757477641E-1,8.120260239E-1
1.362089303E1,7.067391276E-1,-9.255874753E-1,1.481129646E0
1.363089303E1,2.643798590E-1,-7.417678833E-1,2.002287865E0
1.364089303E1,-2.350106239E-1,-4.710781574E-1,2.170686722E0
1.365089303E1,-6.140207052E-1,-3.367337883E-1,1.916728973E0
1.366089303E1,-7.482967377E-1,-2.538541257E-1,1.417949677E0
1.367089303E1,-6.825928092E-1,-1.020675004E-1,7.989149094E-1
1.368089303E1,-4.969950914E-1,1.224959493E-1,2.849788666E-1
1.369089303E1,-2.446322739E-1,3.902550042E-1,4.668331146E-2
1.370089303E1,-6.089964509E-2,6.751140356E-1,-1.231489182E-1
1.371089303E1,6.781882048E-2,8.549619913E-1,-3.546142578E-1
1.372089303E1,8.169665933E-2,9.325230718E-1,-5.563478470E-1
1.373089303E1,-8.140343428E-2,8.715423346E-1,-7.962598801E-1
1.374089303E1,-2.585317791E-1,6.726229191E-1,-1.050611496E0
1.375089303E1,-4.186509848E-1,5.300742388E-1,-1.275094986E0
1.376089303E1,-6.168488264E-1,5.229952335E-1,-1.495430946E0
1.377089303E1,-6.447581053E-1,6.795345545E-1,-1.697945118E0
1.378089303E1,-4.847806692E-1,9.644401670E-1,-1.628182411E0
1.379089303E1,-1.793908179E-1,1.138497829E0,-1.473167419E0
1.380089303E1,1.786684245E-1,1.211545348E0,-1.298074722E0
1.381089303E1,3.852078915E-1,1.218007207E0,-9.517288208E-1
1.382089303E1,2.556077838E-1,1.243553758E0,-4.811153412E-1
1.383089303E1,-5.056808889E-2,1.134301066E0,-1.997795105E-1
1.384089303E1,-3.267241120E-1,8.868495226E-1,1.813287735E-1
1.385089303E1,-5.758586526E-1,5.836405158E-1,5.719022751E-1
1.386089303E1,-8.353397250E-1,3.234970570E-1,9.027624130E-1
1.387089303E1,-1.129911423E0,1.901168227E-1,1.299498558E0
1.388089303E1,-1.329466105E0,1.193647385E-1,1.294655800E0
1.389089303E1,-1.382380009E0,1.627490520E-1,9.736080170E-1
1.390089303E1,-1.315580487E0,2.622787356E-1,6.058893204E-1
1.391089303E1,-1.019694567E0,3.367267847E-1,2.110061646E-1
1.392089303E1,-7.129501104E-1,6.053782701E-1,-3.360462189E-1
1.393089303E1,-4.287468791E-1,9.198608398E-1,-9.468898773E-1
1.394089303E1,-1.253155470E-1,1.035925865E0,-1.517764091E0
1.395089303E1,2.726324201E-1,6.867402792E-1,-1.527988434E0
1.396089303E1,5.520594120E-1,1.407670975E-2,-4.768238068E-1
1.397089303E1,4.738599062E-1,-3.299999237E-1,9.229936600E-1
1.398089303E1,2.718936801E-1,-3.872586191E-1,2.191077232E0
1.399089303E1,2.169120312E-2,-4.092848599E-1,2.890862465E0
1.400089303E1,-2.424229383E-1,-3.585662842E-1,2.815703392E0
1.401089303E1,-1.430152059E-1,-5.183988214E-1,2.302451134E0
1.402089303E1,3.306705058E-1,-7.359580398E-1,1.743700027E0
1.403089303E1,8.715817332E-1,-7.776445150E-1,1.284922600E0
1.404089303E1,1.131886721E0,-5.010006428E-1,7.964468002E-1
1.405089303E1,1.238855481E0,-1.776442528E-1,2.461013794E-1
1.406089303E1,1.256253481E0,4.738152027E-2,-2.526483536E-1
1.407089303E1,1.101481438E0,1.380794644E-1,-8.119249344E-1
1.408089303E1,9.577414393E-1,-3.884643316E-2,-1.266959190E0
1.409089303E1,8.596394062E-1,-3.157033324E-1,-1.555128098E0
1.410089303E1,7.347230911E-1,-4.288138747E-1,-1.751271725E0
1.411089303E1,7.051897645E-1,-4.279492795E-1,-1.944550514E0
1.412089303E1,9.032733440E-1,-3.686567843E-1,-2.167987823E0
1.413089303E1,1.181705475E0,-2.062182426E-1,-2.393840313E0
1.414089303E1,1.257751226E0,1.081703901E-1,-2.434451580E0
1.415089303E1,1.116408467E0,4.764930606E-1,-2.270878792E0
1.416089303E1,8.806295395E-1,6.964480281E-1,-2.189050674E0
1.417089303E1,5.499482155E-1,7.881250381E-1,-2.060318947E0
1.418089303E1,9.513342381E-2,7.594780922E-1,-1.999768257E0
1.419089303E1,-4.669482708E-1,6.187667847E-1,-1.848969460E0
1.420089303E1,-9.757051468E-1,4.370132089E-1,-1.468508720E0
1.421089303E1,-1.357056737E0,2.461977601E-1,-8.196926117E-1
1.422089303E1,-1.555543184E0,-7.478296757E-3,7.987689972E-2
1.423089303E1,-1.694649935E0,-2.345014215E-1,7.859468460E-1
1.424089303E1,-1.640984297E0,-4.309317470E-1,1.402286530E0
1.425089303E1,-1.269355297E0,-6.574162841E-1,1.727788925E0
1.426089303E1,-6.449757814E-1,-8.307669163E-1,1.836193085E0
1.427089303E1,5.667650700E-2,-9.150096774E-1,2.229662895E0
1.428089303E1,5.191249847E-1,-8.932483196E-1,2.932010651E0
1.429089303E1,6.245839596E-1,-8.586736917E-1,3.634467125E0
1.430089303E1,3.327645659E-1,-8.383716941E-1,3.967564583E0
1.431089303E1,2.984678745E-2,-9.930014014E-1,3.771619797E0
1.432089303E1,-2.216348648E-1,-1.164586306E0,3.396295547E0
1.433089303E1,-6.772431731E-1,-1.058616877E0,2.861748695E0
1.434089303E1,-1.073348284E0,-8.643916249E-1,2.123597145E0
1.435089303E1,-1.207606077E0,-6.338441968E-1,1.217370033E0
1.436089303E1,-1.008506417E0,-4.233165681E-1,2.290716171E-1
1.437089303E1,-4.404095411E-1,-2.530690730E-1,-7.176113129E-1
1.438089303E1,1.170635819E-1,1.099109352E-1,-1.414797783E0
1.439089303E1,5.868780613E-1,5.899614692E-1,-1.810266495E0
1.440089303E1,1.028676510E0,1.012403250E0,-1.899503708E0
1.441089303E1,1.342363954E0,1.279954910E0,-1.861034870E0
1.442089303E1,1.446059227E0,1.380318999E0,-1.850364685E0
1.443089303E1,1.407334685E0,1.403826118E0,-1.521348953E0
1.444089303E1,1.406909466E0,1.132355452E0,-1.053514481E0
1.445089303E1,1.363481641E0,8.165046573E-1,-4.916830063E-1
1.446089303E1,1.151186705E0,6.709650755E-1,9.891700745E-2
1.447089303E1,8.874089718E-1,5.548664331E-1,6.053266525E-1
1.448089303E1,5.851086974E-1,4.750980735E-1,7.918424606E-1
1.449089303E1,2.749500275E-1,5.368335843E-1,6.314487457E-1
1.450089303E1,2.666178942E-1,5.115043521E-1,4.272470474E-1
1.451089303E1,6.562050581E-1,3.661821485E-1,4.796247482E-1
1.452089303E1,9.716519117E-1,2.472922802E-1,7.460002899E-1
1.453089303E1,1.114587069E0,1.523554325E-3,1.099303246E0
1.454089303E1,1.018546104E0,-3.490985632E-1,1.774485588E0
1.455089303E1,7.118093371E-1,-6.908391714E-1,2.323720932E0
1.456089303E1,1.463440806E-1,-9.583364129E-1,2.389989853E0
1.457089303E1,-4.491871595E-1,-1.163880587E0,2.079697609E0
1.458089303E1,-9.769664407E-1,-1.351126313E0,1.536557198E0
1.459089303E1,-1.370045424E0,-1.427018404E0,7.775106430E-1
1.460089303E1,-1.466622829E0,-1.361647606E0,-1.288557053E-1
1.461089303E1,-1.425949216E0,-1.016248465E0,-8.131971359E-1
1.462089303E1,-1.148439527E0,-6.060256958E-1,-1.491357803E0
1.463089303E1,-5.981830955E-1,-2.958030701E-1,-1.926409721E0
1.464089303E1,-5.556884408E-2,2.061539888E-1,-2.374034882E0
1.465089303E1,1.714284122E-1,1.006462336E0,-2.959106445E0
1.466089303E1,3.631869555E-1,1.628590345E0,-3.408798218E0
1.467089303E1,6.093099117E-1,1.637054682E0,-3.391747475E0
1.468089303E1,8.135422468E-1,1.123904586E0,-2.751414299E0
1.469089303E1,8.747990131E-1,3.140082359E-1,-1.735088348E0
1.470089303E1,8.632701039E-1,-3.637685180E-1,-4.528884888E-1
1.471089303E1,8.132231236E-1,-8.920679688E-1,8.923225403E-1
1.472089303E1,5.801341534E-1,-1.290900230E0,2.119780540E0
1.473089303E1,-1.155581251E-1,-1.389708877E0,2.951804161E0
1.474089303E1,-9.996430874E-1,-1.198747993E0,3.086417198E0
1.475089303E1,-1.680809855E0,-1.006408691E0,2.602530479E0
1.476089303E1,-1.830457926E0,-9.329305291E-1,1.737292290E0
1.477089303E1,-1.456823826E0,-7.610325813E-1,8.220787048E-1
1.478089303E1,-9.141089320E-1,-4.677049220E-1,6.327056885E-2
1.479089303E1,-4.601192772E-1,4.920053482E-2,-6.211271286E-1
1.480089303E1,-1.583009064E-1,7.422170639E-1,-1.038399696E0
1.481089303E1,1.792161912E-1,1.082254767E0,-1.067565918E0
1.482089303E1,4.499416649E-1,1.029266357E0,-9.769897461E-1
1.483089303E1,5.232561827E-1,7.877626419E-1,-9.500560760E-1
1.484089303E1,4.162884057E-1,5.514685512E-1,-8.799924850E-1
1.485089303E1,2.843583524E-1,4.498409033E-1,-6.610717773E-1
1.486089303E1,1.768840104E-1,4.030802250E-1,-2.979307175E-1
1.487089303E1,-3.092754073E-2,4.083521366E-1,-2.025699615E-2
1.488089303E1,-2.667626143E-1,4.560395479E-1,3.644180298E-2
1.489089303E1,-4.608190358E-1,4.637435079E-1,-1.265802383E-1
1.490089303E1,-6.000140309E-1,4.779148102E-1,-3.036623001E-1
1.491089303E1,-6.480227113E-1,5.071073771E-1,-4.248466492E-1
1.492089303E1,-5.667418242E-1,5.142486691E-1,-4.688768387E-1
1.493089303E1,-4.243793488E-1,4.850408435E-1,-4.287271500E-1
1.494089303E1,-3.714424372E-1,5.268662572E-1,-2.633934021E-1
1.495089303E1,-3.871745765E-1,5.247092247E-1,6.472682953E-2
1.496089303E1,-4.786063433E-1,4.181038737E-1,3.508644104E-1
1.497089303E1,-6.098384857E-1,2.555474043E-1,3.987703323E-1
1.498089303E1,-7.230647802E-1,4.748159647E-2,2.468357086E-1
1.499089303E1,-8.122385740E-1,-1.336415410E-1,7.067298889E-2
1.500089303E1,-9.369410276E-1,-2.390382886E-1,-1.511707306E-1
1.501089303E1,-1.057299376E0,-3.080844879E-1,-4.382400513E-1
1.502089303E1,-1.128047466E0,-2.881186604E-1,-6.255216599E-1
1.503089303E1,-1.133579254E0,-1.849415302E-1,-8.347597122E-1
1.504089303E1,-1.059755802E0,-5.625540018E-2,-1.131043434E0
1.505089303E1,-8.941417336E-1,3.638845682E-2,-1.273864746E0
1.506089303E1,-6.456413269E-1,2.091693878E-2,-1.231788635E0
1.507089303E1,-4.370731711E-1,-2.576571703E-2,-1.054027557E0
1.508089303E1,-4.547862411E-1,-2.974742651E-2,-7.949314117E-1
1.509089303E1,-6.546185613E-1,-4.650831223E-2,-4.659414291E-1
1.510089303E1,-8.458777070E-1,-1.331914663E-1,-1.122493744E-1
1.511089303E1,-8.974468708E-1,-3.036657572E-1,2.551202774E-1
1.512089303E1,-8.399835229E-1,-4.501004219E-1,5.646600723E-1
1.513089303E1,-6.984629631E-1,-5.471643806E-1,8.715763092E-1
1.514089303E1,-6.115463376E-1,-6.157015562E-1,1.232963562E0
1.515089303E1,-6.107579470E-1,-6.639937162E-1,1.523144722E0
1.516089303E1,-6.591199040E-1,-7.322347164E-1,1.669665337E0
1.517089303E1,-6.575014591E-1,-8.502522707E-1,1.773812294E0
1.518089303E1,-7.516254783E-1,-9.026192427E-1,1.802441597E0
1.519089303E1,-9.468234777E-1,-8.576340675E-1,1.814105988E0
1.520089303E1,-1.100231886E0,-8.202860355E-1,1.493073463E0
1.521089303E1,-1.191642523E0,-7.725784779E-1,8.936557770E-1
1.522089303E1,-1.191165566E0,-6.200127602E-1,1.590538025E-1
1.523089303E1,-1.045495033E0,-4.328387082E-1,-5.900115967E-1
1.524089303E1,-7.908009291E-1,-2.000721097E-1,-1.395727158E0
1.525089303E1,-5.277072787E-1,1.019212306E-1,-2.089823723E0
1.526089303E1,-1.455027461E-1,4.035036266E-1,-2.446694851E0
1.527089303E1,3.701959848E-1,5.517492890E-1,-2.260866642E0
1.528089303E1,7.072980404E-1,5.697165728E-1,-1.485822678E0
1.529089303E1,6.551152468E-1,3.508811891E-1,-5.504655838E-1
1.530089303E1,2.779850364E-1,-8.607497811E-2,2.445793152E-1
1.531089303E1,-3.065616488E-1,-4.819378257E-1,7.846574783E-1
1.532089303E1,-9.090108871E-1,-9.373878241E-1,1.206107140E0
1.533089303E1,-1.673010349E0,-1.118284464E0,1.223701477E0
1.534089303E1,-2.340745926E0,-1.019294381E0,9.239826202E-1
1.535089303E1,-2.565565825E0,-7.542363405E-1,5.726213455E-1
1.536089303E1,-2.294274569E0,-3.985198736E-1,-1.177606583E-1
1.537089303E1,-1.663271666E0,-8.341392875E-2,-8.770923615E-1
1.538089303E1,-1.108057022E0,3.039152920E-1,-1.523767471E0
1.539089303E1,-6.585353017E-1,5.832492113E-1,-1.135719299E0
1.540089303E1,-2.946993709E-1,4.240511060E-1,5.580520630E-1
1.541089303E1,-1.945127845E-1,8.384290338E-2,2.438508987E0
1.542089303E1,-4.293673635E-1,-1.935024559E-1,3.572460175E0
1.543089303E1,-1.017794847E0,-2.177184522E-1,3.806640625E0
1.544089303E1,-1.602914810E0,-8.896829188E-2,3.678834915E0
1.545089303E1,-1.758923292E0,4.791140556E-3,3.256333351E0
1.546089303E1,-1.418797612E0,4.889634997E-2,2.149131775E0
1.547089303E1,-7.140817642E-1,1.190379113E-1,1.105766296E0
1.548089303E1,2.851963043E-1,8.358667791E-2,2.533082962E-1
1.549089303E1,9.787989855E-1,2.281274647E-1,-5.251855850E-1
1.550089303E1,1.267799735E0,7.100337744E-1,-1.410686493E0
1.551089303E1,1.541880608E0,9.329445362E-1,-1.959609985E0
1.552089303E1,1.733507872E0,9.016095996E-1,-2.423903942E0
1.553089303E1,1.859800816E0,6.956856251E-1,-2.779113770E0
1.554089303E1,1.855522633E0,4.998282194E-1,-2.779705048E0
1.555089303E1,1.828371286E0,3.425042629E-1,-2.338232040E0
1.556089303E1,1.731158972E0,1.974563003E-1,-1.696032524E0
1.557089303E1,1.613770366E0,5.078446865E-2,-1.145277977E0
1.558089303E1,1.530148268E0,-1.343854666E-1,-5.382328033E-1
1.559089303E1,1.436900616E0,-3.231543303E-1,-4.942417145E-2
1.560089303E1,1.427137613E0,-5.045516491E-1,3.049240112E-1
1.561089303E1,1.475041866E0,-7.229242921E-1,6.007785797E-1
1.562089303E1,1.462623358E0,-9.262621999E-1,8.923454285E-1
1.563089303E1,1.402899742E0,-1.095977187E0,1.099870682E0
1.564089303E1,1.289749980E0,-1.216911554E0,1.315425873E0
1.565089303E1,1.214172363E0,-1.397914529E0,1.499040604E0
1.566089303E1,1.182675362E0,-1.635771513E0,1.440752983E0
1.567089303E1,1.091954947E0,-1.800605297E0,1.274039268E0
1.568089303E1,8.516420126E-1,-1.828232527E0,1.012855530E0
1.569089303E1,4.919514060E-1,-1.711515903E0,5.675516129E-1
1.570089303E1,2.644009888E-1,-1.539559603E0,6.470966339E-2
1.571089303E1,1.397738904E-1,-1.299002051E0,-3.987588882E-1
1.572089303E1,1.156815141E-1,-9.954755306E-1,-8.998928070E-1
1.573089303E1,2.309570462E-1,-7.475118637E-1,-1.423511505E0
1.574089303E1,4.752725959E-1,-5.857446194E-1,-1.916624069E0
1.575089303E1,6.939359903E-1,-3.804762363E-1,-2.291087151E0
1.576089303E1,7.780339122E-1,-8.384788036E-2,-2.582895756E0
1.577089303E1,8.414748907E-1,1.175432801E-1,-2.757684231E0
1.578089303E1,8.155035973E-1,2.946676612E-1,-2.801609993E0
1.579089303E1,6.995501518E-1,3.872184753E-1,-2.769473076E0
1.580089303E1,6.335399747E-1,4.045079350E-1,-2.622040749E0
1.581089303E1,5.463228226E-1,3.567176461E-1,-2.317162514E0
1.582089303E1,3.712061048E-1,3.425206542E-1,-1.736837387E0
1.583089303E1,2.218806446E-1,3.467214108E-1,-9.987907410E-1
1.584089303E1,1.619429886E-1,2.824261785E-1,-3.652362823E-1
1.585089303E1,2.761101723E-2,2.566556334E-1,5.519771576E-2
1.586089303E1,-2.745081782E-1,3.352851272E-1,4.287147522E-1
1.587089303E1,-5.671731234E-1,4.076393247E-1,6.913070679E-1
1.588089303E1,-6.928313971E-1,4.467049241E-1,7.815856934E-1
1.589089303E1,-6.128601432E-1,4.505262375E-1,6.390724182E-1
1.590089303E1,-5.034214258E-1,5.343749523E-1,4.968442917E-1
1.591089303E1,-3.161086440E-1,5.310918093E-1,5.289745331E-1
1.592089303E1,-2.726057172E-2,4.025940597E-1,8.190116882E-1
1.593089303E1,2.247402519E-1,2.492337227E-1,1.593902588E0
1.594089303E1,3.823038340E-1,7.980945706E-2,2.588465691E0
1.595089303E1,2.172302455E-1,-7.630583644E-2,3.375209808E0
1.596089303E1,-2.280623913E-1,-1.184535474E-1,4.029011726E0
1.597089303E1,-8.726861477E-1,-4.286944866E-2,4.153128624E0
1.598089303E1,-1.365178347E0,5.191572011E-2,3.775609970E0
1.599089303E1,-1.563027143E0,9.505537152E-2,2.969226837E0
1.600089303E1,-1.492672324E0,2.521521747E-1,2.021950722E0
1.601089303E1,-1.143109441E0,4.847292006E-1,1.135494232E0
1.602089303E1,-5.628721714E-1,7.208331227E-1,2.934837341E-1
1.603089303E1,-7.275182009E-2,1.047547698E0,-4.885673523E-1
1.604089303E1,3.571773171E-1,1.327371597E0,-9.394226074E-1
1.605089303E1,7.917738557E-1,1.358296752E0,-9.590778351E-1
1.606089303E1,1.030763865E0,1.103851557E0,-7.476854324E-1
1.607089303E1,1.031945348E0,7.379642725E-1,-4.797906876E-1
1.608089303E1,7.560864687E-1,4.521164000E-1,-1.821470261E-1
1.609089303E1,2.577612698E-1,2.109579742E-1,-3.208827972E-2
1.610089303E1,-2.625865638E-1,-4.008051753E-2,-3.141012192E-1
1.611089303E1,-6.823797226E-1,-2.306757867E-1,-6.478605270E-1
1.612089303E1,-1.023942947E0,-2.814695835E-1,-1.040544510E0
1.613089303E1,-1.161798000E0,-1.792600453E-1,-1.449895859E0
1.614089303E1,-1.035316229E0,-8.551931381E-2,-1.757259369E0
1.615089303E1,-7.401424646E-1,-3.306865692E-3,-1.823585510E0
1.616089303E1,-3.773335814E-1,1.191607714E-1,-1.662048340E0
1.617089303E1,2.003633976E-2,1.285333037E-1,-1.264232635E0
1.618089303E1,2.350466847E-1,8.723497391E-3,-7.055130005E-1
1.619089303E1,1.725213528E-1,-1.847971678E-1,-3.032341003E-1
1.620089303E1,-5.197632313E-2,-4.283942878E-1,-1.107807159E-1
1.621089303E1,-2.386646867E-1,-6.417478323E-1,-5.125808716E-2
1.622089303E1,-2.727199793E-1,-8.911138177E-1,1.524620056E-1
1.623089303E1,-2.871152759E-1,-1.061110973E0,3.604965210E-1
1.624089303E1,-3.137759566E-1,-1.146807671E0,5.742053986E-1
1.625089303E1,-3.410000801E-1,-1.181946039E0,8.354549408E-1
1.626089303E1,-4.178460836E-1,-1.178373575E0,1.112613678E0
1.627089303E1,-6.044411659E-1,-1.097977638E0,9.823417664E-1
1.628089303E1,-7.111240625E-1,-9.754362106E-1,5.921249390E-1
1.629089303E1,-6.424578428E-1,-8.304573298E-1,1.298637390E-1
1.630089303E1,-4.405391216E-1,-6.532902718E-1,-4.253482819E-1
1.631089303E1,-3.010722399E-1,-3.865036666E-1,-9.982604980E-1
1.632089303E1,-7.360076904E-2,-1.474728584E-1,-1.300904274E0
1.633089303E1,2.229219079E-1,3.022313118E-2,-1.525671005E0
1.634089303E1,3.909900188E-1,2.009187341E-1,-1.577260017E0
1.635089303E1,4.401948452E-1,3.270252943E-1,-1.323535919E0
1.636089303E1,5.203064680E-1,2.451458573E-1,-9.653186798E-1
1.637089303E1,6.189154387E-1,1.819616556E-2,-2.859535217E-1
1.638089303E1,5.383915901E-1,-2.195927501E-1,5.917282104E-1
1.639089303E1,1.495088935E-1,-3.167029917E-1,1.364327431E0
1.640089303E1,-4.118899107E-1,-3.324326873E-1,1.776651382E0
1.641089303E1,-9.805814028E-1,-3.237903416E-1,1.783201218E0
1.642089303E1,-1.345345497E0,-3.260013461E-1,1.371994972E0
1.643089303E1,-1.399917841E0,-3.284703493E-1,8.253831863E-1
1.644089303E1,-1.186686397E0,-2.204818577E-1,2.992391586E-1
1.645089303E1,-7.358969450E-1,-6.566941738E-4,-1.394739151E-1
1.646089303E1,-2.476230860E-1,2.190259695E-1,-3.180398941E-1
1.647089303E1,2.587234974E-1,3.157345355E-1,-2.228889465E-1
1.648089303E1,4.341486692E-1,3.559029996E-1,-1.524333954E-1
1.649089303E1,3.014495969E-1,4.176129997E-1,-1.211814880E-1
1.650089303E1,8.033329248E-2,4.313767850E-1,-9.360504150E-2
1.651089303E1,-1.022505760E-1,3.990184665E-1,4.366397858E-2
1.652089303E1,-1.332702637E-1,3.728221059E-1,1.821327209E-1
1.653089303E1,-3.000700474E-2,3.772472441E-1,2.074413300E-1
1.654089303E1,1.538940668E-1,4.159195423E-1,2.456636429E-1
1.655089303E1,3.504151106E-1,5.239834785E-1,3.357372284E-1
1.656089303E1,5.094914436E-1,6.543714404E-1,2.754583359E-1
1.657089303E1,6.283335090E-1,7.246425748E-1,1.806669235E-1
1.658089303E1,6.792186499E-1,7.404813766E-1,1.247510910E-1
1.659089303E1,6.669926643E-1,6.735741496E-1,1.611366272E-1
1.660089303E1,6.262676120E-1,5.950738192E-1,3.143091202E-1
1.661089303E1,5.858832002E-1,4.918651581E-1,5.122232437E-1
1.662089303E1,6.241850853E-1,3.659697771E-1,7.589454651E-1
1.663089303E1,6.472768188E-1,2.455721498E-1,9.016437531E-1
1.664089303E1,5.889103413E-1,1.464666128E-1,9.970178604E-1
1.665089303E1,5.853691101E-1,-2.488553524E-3,1.221501350E0
1.666089303E1,5.820364356E-1,-1.768506169E-1,1.453993797E0
1.667089303E1,4.975990653E-1,-3.600959778E-1,1.702279091E0
1.668089303E1,2.710372806E-1,-5.114118457E-1,1.953105927E0
1.669089303E1,-8.239144087E-2,-5.672895908E-1,2.076893806E0
1.670089303E1,-4.362967610E-1,-5.824810266E-1,1.945242882E0
1.671089303E1,-6.441016793E-1,-5.646466017E-1,1.678428650E0
1.672089303E1,-5.951498747E-1,-5.435574055E-1,1.138603210E0
1.673089303E1,-3.504935503E-1,-5.195070505E-1,5.511837006E-1
1.674089303E1,2.977693081E-2,-4.672805965E-1,1.024017334E-1
1.675089303E1,3.933315873E-1,-3.168098927E-1,-2.632102966E-1
1.676089303E1,6.957969069E-1,-1.628657579E-1,-6.744899750E-1
1.677089303E1,9.740396738E-1,-1.119886041E-1,-1.089857101E0
1.678089303E1,1.220314622E0,-1.422458887E-1,-1.438098907E0
1.679089303E1,1.319389820E0,-1.881276369E-1,-1.730350494E0
1.680089303E1,1.293586969E0,-2.015745640E-1,-1.916491032E0
1.681089303E1,1.145881295E0,-1.867812872E-1,-2.034913540E0
1.682089303E1,8.783034086E-1,-1.511365175E-1,-2.127127647E0
1.683089303E1,6.455821395E-1,-1.335185766E-1,-2.329778671E0
1.684089303E1,4.931590259E-1,-1.084786654E-1,-2.517560959E0
1.685089303E1,4.635852575E-1,-3.569078445E-2,-2.724477768E0
1.686089303E1,5.466284752E-1,5.205523968E-2,-2.923889160E0
1.687089303E1,6.245533824E-1,1.842299700E-1,-2.910531044E0
1.688089303E1,7.753643990E-1,2.657918930E-1,-2.492266655E0
1.689089303E1,9.995895624E-1,1.388341188E-1,-1.728313446E0
1.690089303E1,1.131239891E0,-2.140164375E-1,-8.047828674E-1
1.691089303E1,1.074034810E0,-6.348424554E-1,1.699743271E-1
1.692089303E1,8.535853624E-1,-1.038503170E0,1.189970016E0
1.693089303E1,4.019772410E-1,-1.339721918E0,2.123222351E0
1.694089303E1,-3.731666505E-1,-1.396524906E0,2.467385292E0
1.695089303E1,-1.222955585E0,-1.233068347E0,2.205109596E0
1.696089303E1,-1.651202917E0,-1.124586821E0,1.430168152E0
1.697089303E1,-1.785004377E0,-8.192324042E-1,5.841646194E-1
1.698089303E1,-1.642548800E0,-3.540151715E-1,-2.772064209E-1
1.699089303E1,-1.061745644E0,-5.210727453E-2,-9.370832443E-1
1.700089303E1,-2.491582036E-1,2.945397496E-1,-1.620881081E0
1.701089303E1,4.222014248E-1,9.032382965E-1,-2.359752655E0
1.702089303E1,8.894743919E-1,1.471978784E0,-2.789288521E0
1.703089303E1,1.289386034E0,1.590475082E0,-2.635979176E0
1.704089303E1,1.526086092E0,1.196980953E0,-1.940073967E0
1.705089303E1,1.385271311E0,7.712420821E-1,-9.776391983E-1
1.706089303E1,9.753420353E-1,5.109974146E-1,-4.326343536E-2
1.707089303E1,4.740886688E-1,3.424195647E-1,6.379423141E-1
1.708089303E1,4.018789530E-2,2.155977488E-1,9.315710068E-1
1.709089303E1,-4.219819605E-1,2.666293979E-1,9.509935379E-1
1.710089303E1,-7.969845533E-1,3.414187431E-1,9.218692780E-1
1.711089303E1,-8.793616295E-1,3.309159279E-1,8.394508362E-1
1.712089303E1,-7.126129270E-1,3.217591643E-1,7.622470856E-1
1.713089303E1,-5.034512281E-1,2.917923927E-1,7.502002716E-1
1.714089303E1,-3.663974702E-1,1.993631124E-1,8.739004135E-1
1.715089303E1,-3.414629102E-1,6.718188524E-2,1.028360367E0
1.716089303E1,-4.542537928E-1,-2.444279194E-2,1.065096855E0
1.717089303E1,-5.564852953E-1,-7.531648874E-2,9.279546738E-1
1.718089303E1,-5.059059262E-1,-1.832495332E-1,7.659845352E-1
1.719089303E1,-4.205657244E-1,-2.813920677E-1,6.036462784E-1
1.720089303E1,-2.621543407E-1,-3.472892046E-1,6.232585907E-1
1.721089303E1,-1.050878763E-1,-4.097741842E-1,8.022994995E-1
1.722089303E1,1.511693001E-3,-4.840264916E-1,1.075372696E0
1.723089303E1,1.068235040E-1,-5.843999386E-1,1.351039886E0
1.724089303E1,1.950161457E-1,-7.134284973E-1,1.542963982E0
1.725089303E1,1.087741256E-1,-7.178324461E-1,1.632088661E0
1.726089303E1,-1.150396466E-1,-6.916318536E-1,1.552425385E0
1.727089303E1,-3.457631469E-1,-6.981089115E-1,1.231121063E0
1.728089303E1,-4.006683230E-1,-7.421026230E-1,6.379051208E-1
1.729089303E1,-4.185580611E-1,-6.392359138E-1,-2.026176453E-2
1.730089303E1,-3.244655728E-1,-4.026755393E-1,-5.382623672E-1
1.731089303E1,-1.658153534E-2,-1.911162734E-1,-1.051320076E0
1.732089303E1,3.129426837E-1,6.301528215E-2,-1.583522797E0
1.733089303E1,6.571327448E-1,2.749605179E-1,-2.015266418E0
1.734089303E1,9.274204373E-1,4.156250954E-1,-2.252463818E0
1.735089303E1,1.077270627E0,5.144808292E-1,-2.261974335E0
1.736089303E1,1.080288768E0,5.696329474E-1,-2.033414841E0
1.737089303E1,9.302139878E-1,6.103957295E-1,-1.940090179E0
1.738089303E1,6.646065712E-1,6.662486196E-1,-1.932843208E0
1.739089303E1,3.340379000E-1,7.500111461E-1,-1.944777966E0
1.740089303E1,1.875206232E-1,7.225142717E-1,-1.847208023E0
1.741089303E1,1.281317472E-1,6.148504019E-1,-1.539603233E0
1.742089303E1,8.321046829E-2,3.616508842E-1,-9.703197479E-1
1.743089303E1,2.342891693E-2,2.081871033E-3,-2.977333069E-1
1.744089303E1,-8.288562298E-2,-3.282296360E-1,5.190134048E-1
1.745089303E1,-1.533063650E-1,-6.665011644E-1,1.313694000E0
1.746089303E1,-3.271467686E-1,-8.868272901E-1,1.851258278E0
1.747089303E1,-5.993070602E-1,-9.884021282E-1,2.313465118E0
1.748089303E1,-9.371508360E-1,-1.032589197E0,2.665134430E0
1.749089303E1,-1.264549851E0,-1.042960525E0,2.871342659E0
1.750089303E1,-1.510298491E0,-9.823721647E-1,2.753166199E0
1.751089303E1,-1.592622757E0,-8.639635444E-1,2.413889885E0
1.752089303E1,-1.419622183E0,-6.890702844E-1,1.779293060E0
1.753089303E1,-1.036890745E0,-4.967485070E-1,1.110639572E0
1.754089303E1,-4.913825989E-1,-3.138089776E-1,4.009447098E-1
1.755089303E1,-8.341372013E-2,5.741819739E-3,-3.089685440E-1
1.756089303E1,2.047514915E-1,3.909267187E-1,-8.661012650E-1
1.757089303E1,5.117441416E-1,6.809452772E-1,-1.092742920E0
1.758089303E1,7.597445846E-1,8.081880212E-1,-1.157804489E0
1.759089303E1,8.929268122E-1,7.729966640E-1,-9.648704529E-1
1.760089303E1,9.043319225E-1,6.365709305E-1,-5.506553650E-1
1.761089303E1,7.807368636E-1,4.897856116E-1,-6.248855591E-2
1.762089303E1,4.884953499E-1,3.953277171E-1,3.620252609E-1
1.763089303E1,1.475020647E-1,3.164502382E-1,7.012205124E-1
1.764089303E1,-8.069491386E-2,2.355719954E-1,8.041410446E-1
1.765089303E1,-1.585545540E-1,1.702455878E-1,7.387571335E-1
1.766089303E1,-8.144831657E-2,1.672480106E-1,6.390571594E-1
1.767089303E1,9.028339386E-2,2.794931233E-1,6.065025330E-1
1.768089303E1,3.409097195E-1,3.727511764E-1,5.526828766E-1
1.769089303E1,5.623698831E-1,4.049357176E-1,4.507951736E-1
1.770089303E1,6.283515692E-1,4.149661362E-1,3.653936386E-1
1.771089303E1,5.140423775E-1,3.935704231E-1,2.812786102E-1
1.772089303E1,3.707497120E-1,2.865434885E-1,2.025489807E-1
1.773089303E1,2.717446089E-1,1.372534037E-1,1.903991699E-1
1.774089303E1,2.515216470E-1,-3.041455150E-2,4.043521881E-1
1.775089303E1,2.757614255E-1,-2.282299995E-1,5.101404190E-1
1.776089303E1,2.836827040E-1,-4.009446502E-1,5.400695801E-1
1.777089303E1,1.991744637E-1,-4.587149918E-1,4.985008240E-1
1.778089303E1,1.662064195E-1,-5.040355325E-1,2.805614471E-1
1.779089303E1,1.659095883E-1,-4.990222454E-1,-2.102365494E-1
1.780089303E1,2.218161821E-1,-4.412660599E-1,-7.155742645E-1
1.781089303E1,4.399003983E-1,-3.583704531E-1,-1.033330917E0
1.782089303E1,7.068244219E-1,-3.748171329E-1,-1.252941132E0
1.783089303E1,9.451032877E-1,-4.177452922E-1,-1.257989883E0
1.784089303E1,1.038927913E0,-5.526726842E-1,-9.731836319E-1
1.785089303E1,9.884403348E-1,-7.315052748E-1,-4.538736343E-1
1.786089303E1,7.723608017E-1,-8.746553659E-1,-1.087474823E-2
1.787089303E1,5.639852285E-1,-1.053212166E0,3.583126068E-1
1.788089303E1,4.507689476E-1,-1.255881071E0,5.261964798E-1
1.789089303E1,3.304234147E-1,-1.393445492E0,5.524940491E-1
1.790089303E1,9.629052877E-2,-1.397256613E0,5.057106018E-1
1.791089303E1,-2.548267841E-1,-1.235719204E0,2.580432892E-1
1.792089303E1,-5.123178959E-1,-9.693124294E-1,-2.734279633E-1
1.793089303E1,-5.532950163E-1,-6.517728567E-1,-8.095035553E-1
1.794089303E1,-4.250306487E-1,-3.024927974E-1,-1.393765450E0
1.795089303E1,-2.301620841E-1,5.042988062E-2,-1.774785042E0
1.796089303E1,9.500384331E-2,3.497334719E-1,-1.838895321E0
1.797089303E1,4.375804365E-1,5.437715650E-1,-1.564195633E0
1.798089303E1,5.531458855E-1,6.371009946E-1,-1.056586266E0
1.799089303E1,4.387221038E-1,6.533593535E-1,-5.922088623E-1
1.800089303E1,2.739491463E-1,5.843975544E-1,-3.701782227E-1
1.801089303E1,9.180060029E-2,5.057103634E-1,-3.400163651E-1
1.802089303E1,-6.251376867E-2,5.444750786E-1,-3.415174484E-1
1.803089303E1,-9.350213408E-2,6.490199566E-1,-2.137451172E-1
1.804089303E1,6.002187729E-4,6.981500983E-1,-2.747535706E-2
1.805089303E1,9.310969710E-2,6.966509819E-1,2.008275986E-1
1.806089303E1,2.107895911E-1,6.474437118E-1,4.306039810E-1
1.807089303E1,3.791986704E-1,5.688672066E-1,7.314157486E-1
1.808089303E1,5.578078032E-1,4.197824597E-1,1.012449265E0
1.809089303E1,6.433030367E-1,2.438470125E-1,1.436429024E0
1.810089303E1,5.956851244E-1,9.289300442E-2,2.061856270E0
1.811089303E1,4.130935073E-1,-1.637816429E-2,2.695188522E0
1.812089303E1,1.564489901E-1,-8.737123013E-2,3.145573616E0
1.813089303E1,-1.592385620E-1,-5.758798122E-2,3.329643250E0
1.814089303E1,-4.165342450E-1,2.868247032E-2,3.190636635E0
1.815089303E1,-3.607918620E-1,-5.272442102E-2,2.856060982E0
1.816089303E1,-1.223386824E-1,-1.376738101E-1,2.256464958E0
1.817089303E1,2.692088485E-2,-2.072617412E-2,1.616487503E0
1.818089303E1,1.577128470E-1,1.917722821E-1,9.065189362E-1
1.819089303E1,3.167076409E-1,3.197564185E-1,1.895885468E-1
1.820089303E1,3.833173513E-1,3.885937929E-1,-4.458799362E-1
1.821089303E1,3.980004787E-1,4.473676085E-1,-1.025362015E0
1.822089303E1,4.172009230E-1,4.925547242E-1,-1.486038208E0
1.823089303E1,4.228358567E-1,5.465012193E-1,-1.896091461E0
1.824089303E1,4.837324619E-1,5.861597657E-1,-2.275064468E0
1.825089303E1,5.682742000E-1,6.329328418E-1,-2.521292686E0
1.826089303E1,5.874012113E-1,6.633530855E-1,-2.495586395E0
1.827089303E1,4.891074598E-1,6.688257456E-1,-2.356279373E0
1.828089303E1,3.482533395E-1,5.737392902E-1,-2.185679436E0
1.829089303E1,2.871665955E-1,3.685790300E-1,-1.908645630E0
1.830089303E1,3.611937165E-1,4.158294201E-2,-1.335851669E0
1.831089303E1,3.785862625E-1,-3.652777076E-1,-5.495719910E-1
1.832089303E1,2.381296754E-1,-7.321456671E-1,4.242391586E-1
1.833089303E1,-7.428938150E-2,-1.020945072E0,1.437288284E0
1.834089303E1,-6.548318267E-1,-1.205906391E0,2.068543434E0
1.835089303E1,-1.392331362E0,-1.108118773E0,2.016312599E0
1.836089303E1,-1.904659510E0,-9.954276085E-1,1.386661530E0
1.837089303E1,-1.962615967E0,-8.398818374E-1,5.561876297E-1
1.838089303E1,-1.560735464E0,-5.646656156E-1,-3.074131012E-1
1.839089303E1,-8.179080486E-1,-2.152234316E-1,-1.232733727E0
1.840089303E1,-1.569507718E-1,2.740926743E-1,-2.300039291E0
1.841089303E1,4.092907310E-1,7.094469070E-1,-2.779580116E0
1.842089303E1,9.228631258E-1,7.110662460E-1,-2.374911308E0
1.843089303E1,1.308632851E0,2.196720839E-1,-1.562157154E0
1.844089303E1,1.389117956E0,-3.528499603E-1,-7.070312500E-1
1.845089303E1,1.117040992E0,-7.054075003E-1,1.590471268E-1
1.846089303E1,6.722348928E-1,-8.969129324E-1,8.354091644E-1
1.847089303E1,1.610943675E-1,-1.011609435E0,1.268380165E0
1.848089303E1,-4.254961014E-1,-1.049751520E0,1.395392418E0
1.849089303E1,-9.082921743E-1,-1.017614841E0,1.290699005E0
1.850089303E1,-1.132469296E0,-9.475952387E-1,1.044798851E0
1.851089303E1,-9.392204881E-1,-9.024159908E-1,6.443271637E-1
1.852089303E1,-4.893205762E-1,-8.283402920E-1,2.009887695E-1
1.853089303E1,-3.216063976E-2,-6.350886226E-1,-3.166618347E-1
1.854089303E1,2.600333095E-1,-3.291456699E-1,-7.988815308E-1
1.855089303E1,4.356706142E-1,-6.726777554E-2,-1.211090088E0
1.856089303E1,4.602739215E-1,9.744977951E-2,-1.500514984E0
1.857089303E1,3.547853231E-1,1.880692244E-1,-1.782032013E0
1.858089303E1,1.902112365E-1,2.088469267E-1,-2.122510433E0
1.859089303E1,1.975715160E-3,2.177391052E-1,-2.279346943E0
1.860089303E1,-1.987160444E-1,2.337821722E-1,-2.210063934E0
1.861089303E1,-4.739885330E-1,2.685728073E-1,-2.141057968E0
1.862089303E1,-7.846852541E-1,3.658765554E-1,-2.160525799E0
1.863089303E1,-1.008377552E0,4.606103897E-1,-2.221577644E0
1.864089303E1,-1.090083957E0,5.274934769E-1,-2.354594231E0
1.865089303E1,-8.964811563E-1,5.999242067E-1,-2.150786400E0
1.866089303E1,-4.001575708E-1,4.886385202E-1,-1.678660870E0
1.867089303E1,-1.990830898E-2,3.417870998E-1,-9.101572037E-1
1.868089303E1,-4.656994343E-2,2.595801353E-1,2.063522339E-1
1.869089303E1,-3.739249706E-1,1.402614117E-1,1.354701042E0
1.870089303E1,-8.319509029E-1,-4.335236549E-2,2.159959793E0
1.871089303E1,-1.388061643E0,-1.697711945E-1,2.481332779E0
1.872089303E1,-1.645974874E0,-3.653002381E-1,2.497537613E0
1.873089303E1,-1.547478080E0,-6.241753101E-1,2.230937958E0
1.874089303E1,-1.291001081E0,-7.600281239E-1,2.043194771E0
1.875089303E1,-9.814325571E-1,-7.692617178E-1,2.132953644E0
1.876089303E1,-7.753717899E-1,-6.264969707E-1,2.413002014E0
1.877089303E1,-6.600694656E-1,-3.985552192E-1,2.705244064E0
1.878089303E1,-4.888987541E-1,-2.481327504E-1,2.811108589E0
1.879089303E1,-3.476753235E-1,-1.847671717E-1,2.645204544E0
1.880089303E1,-2.239731550E-1,-9.581752121E-2,2.367769241E0
1.881089303E1,-1.356760859E-1,9.130683541E-2,1.953066826E0
1.882089303E1,6.048560143E-3,2.636975944E-1,1.470191002E0
1.883089303E1,2.096440196E-1,3.962847888E-1,1.009639740E0
1.884089303E1,4.330797791E-1,4.509032965E-1,6.630134583E-1
1.885089303E1,7.290230989E-1,3.764893711E-1,4.144668579E-1
1.886089303E1,9.669551849E-1,2.705878913E-1,3.140153885E-1
1.887089303E1,1.121812940E0,1.266631782E-1,2.534999847E-1
1.888089303E1,1.106399536E0,-4.042181373E-2,1.643733978E-1
1.889089303E1,9.678389430E-1,-1.441186070E-1,1.558828354E-1
1.890089303E1,7.557255030E-1,-2.443927526E-1,1.126613617E-1
1.891089303E1,5.382058620E-1,-2.951257825E-1,1.284694672E-2
1.892089303E1,3.552301526E-1,-2.919939160E-1,-3.092260361E-1
1.893089303E1,2.895961404E-1,-2.568214536E-1,-8.510131836E-1
1.894089303E1,3.691017330E-1,-2.337549925E-1,-1.424145699E0
1.895089303E1,5.522233248E-1,-1.639281511E-1,-1.998007774E0
1.896089303E1,6.929821968E-1,-5.431765318E-2,-2.325529099E0
1.897089303E1,8.659405112E-1,-1.471018791E-2,-2.316305161E0
1.898089303E1,1.021516085E0,-3.250932693E-2,-2.043576241E0
1.899089303E1,9.358335733E-1,-1.363699436E-1,-1.726956367E0
1.900089303E1,6.040275097E-1,-2.702559829E-1,-1.344318390E0
1.901089303E1,2.625910938E-1,-4.473695755E-1,-9.307756424E-1
1.902089303E1,-4.730165005E-2,-5.428342819E-1,-5.912637711E-1
1.903089303E1,-2.917194963E-1,-5.103801489E-1,-5.418539047E-1
1.904089303E1,-3.568505049E-1,-4.189032316E-1,-6.622371674E-1
1.905089303E1,-1.136016250E-1,-4.621413052E-1,-9.002628326E-1
1.906089303E1,3.562236428E-1,-5.996478796E-1,-9.880037308E-1
1.907089303E1,8.303633928E-1,-7.071860433E-1,-5.983629227E-1
1.908089303E1,1.189724922E0,-7.493794560E-1,1.588048935E-1
1.909089303E1,1.268357515E0,-8.125877380E-1,1.137575150E0
1.910089303E1,9.510952234E-1,-7.807559967E-1,2.082730293E0
1.911089303E1,2.868927419E-1,-7.385166287E-1,2.616297722E0
1.912089303E1,-3.298389316E-1,-7.171437740E-1,2.779761314E0
1.913089303E1,-6.947211027E-1,-6.655078530E-1,2.665708542E0
1.914089303E1,-7.651003599E-1,-5.775023699E-1,2.423903465E0
1.915089303E1,-6.134737730E-1,-4.126208425E-1,2.137812614E0
1.916089303E1,-4.326316714E-1,-5.000959337E-2,1.820771217E0
1.917089303E1,-2.514628768E-1,4.017152786E-1,1.315535545E0
1.918089303E1,-1.810677946E-1,7.940697670E-1,7.002525330E-1
1.919089303E1,-1.520058215E-1,1.050897121E0,-1.639232635E-1
1.920089303E1,-1.935377121E-1,1.222981215E0,-1.100170135E0
1.921089303E1,-3.366134167E-1,1.440489531E0,-2.099298477E0
1.922089303E1,-4.139744043E-1,1.669181585E0,-3.101832390E0
1.923089303E1,-1.868800521E-1,1.745745182E0,-3.676549911E0
1.924089303E1,7.001921535E-2,1.842226267E0,-3.649302483E0
1.925089303E1,2.097986042E-1,1.794864416E0,-3.176680565E0
1.926089303E1,2.175795436E-1,1.630419016E0,-2.589787960E0
1.927089303E1,-9.391546249E-2,1.478221416E0,-1.914410114E0
1.928089303E1,-5.102007985E-1,1.323028803E0,-1.637091637E0
1.929089303E1,-6.999816895E-1,1.019664288E0,-1.955192566E0
1.930089303E1,-7.647157311E-1,7.925066948E-1,-2.486723900E0
1.931089303E1,-7.899488211E-1,6.284307241E-1,-2.770988941E0
1.932089303E1,-7.979400158E-1,5.674390793E-1,-2.669633389E0
1.933089303E1,-5.440135002E-1,2.768968344E-1,-2.254619598E0
1.934089303E1,1.136592329E-1,-3.694777489E-1,-1.249364853E0
1.935089303E1,7.305599451E-1,-8.681333065E-1,4.122209549E-1
1.936089303E1,1.039422274E0,-1.217465878E0,2.509975433E0
1.937089303E1,8.949106336E-1,-1.530299664E0,4.474268913E0
1.938089303E1,3.109624386E-1,-1.768310308E0,5.490995407E0
1.939089303E1,-4.723630548E-1,-1.951333046E0,5.519051552E0
1.940089303E1,-1.255049467E0,-2.005685806E0,4.896326065E0
1.941089303E1,-1.719855905E0,-1.900695562E0,3.820098877E0
1.942089303E1,-1.759376526E0,-1.583172083E0,2.607348442E0
1.943089303E1,-1.549873948E0,-9.737418294E-1,1.486256599E0
1.944089303E1,-9.073547721E-1,-4.676238596E-1,4.730176926E-1
1.945089303E1,8.077496290E-2,-5.968910456E-2,-5.191030502E-1
1.946089303E1,8.069702387E-1,5.856547952E-1,-1.364511490E0
1.947089303E1,1.168278217E0,1.243228197E0,-1.629712105E0
1.948089303E1,1.261439562E0,1.377948523E0,-1.249465942E0
1.949089303E1,1.303312421E0,8.464799523E-1,-6.211023331E-1
1.950089303E1,1.002194405E0,4.129114747E-1,-2.744846344E-1
1.951089303E1,4.682163596E-1,2.667450905E-1,-2.232961655E-1
1.952089303E1,2.194392681E-2,1.731689572E-1,-3.724632263E-1
1.953089303E1,-3.060236573E-1,1.608294845E-1,-6.199064255E-1
1.954089303E1,-3.416522741E-1,1.341295838E-1,-8.216743469E-1
1.955089303E1,-2.810893059E-1,1.879568100E-1,-1.094026566E0
1.956089303E1,-9.354293346E-2,2.962163091E-1,-1.375203133E0
1.957089303E1,2.602741718E-1,2.624970078E-1,-1.447911263E0
1.958089303E1,5.304777622E-1,2.142080069E-1,-1.395298958E0
1.959089303E1,5.440874100E-1,1.774823666E-1,-1.190949440E0
1.960089303E1,3.734097481E-1,1.331476569E-1,-9.367885590E-1
1.961089303E1,6.915402412E-2,8.614671230E-2,-9.301986694E-1
1.962089303E1,-2.720439434E-1,-2.076172829E-2,-1.038764954E0
1.963089303E1,-5.063898563E-1,-8.283817768E-2,-1.009588242E0
1.964089303E1,-6.557557583E-1,-6.710141897E-2,-9.288263321E-1
1.965089303E1,-6.450991631E-1,-1.152172089E-1,-7.002649307E-1
1.966089303E1,-3.469984531E-1,-3.197838962E-1,-1.551408768E-1
1.967089303E1,2.340173721E-2,-6.001311541E-1,4.242134094E-1
1.968089303E1,2.242681980E-1,-8.708811998E-1,9.504384995E-1
1.969089303E1,3.679746389E-1,-1.182401776E0,1.664789200E0
1.970089303E1,3.461399078E-1,-1.498040915E0,2.141465187E0
1.971089303E1,1.297307014E-2,-1.653077722E0,2.389142036E0
1.972089303E1,-6.094156504E-1,-1.627542615E0,2.320064545E0
1.973089303E1,-1.199561596E0,-1.574366689E0,1.711942673E0
1.974089303E1,-1.423875809E0,-1.546087742E0,9.328365326E-1
1.975089303E1,-1.477428198E0,-1.318324208E0,1.335735321E-1
1.976089303E1,-1.384237647E0,-8.230764866E-1,-5.955028534E-1
1.977089303E1,-1.132865906E0,-2.261313647E-1,-1.182557106E0
1.978089303E1,-8.096736670E-1,3.609955311E-1,-1.535958290E0
1.979089303E1,-4.554873705E-1,7.811542153E-1,-1.626617908E0
1.980089303E1,-1.419069767E-1,9.430375099E-1,-1.604091644E0
1.981089303E1,6.260180473E-2,7.516971827E-1,-1.289440155E0
1.982089303E1,1.207112074E-1,3.623602986E-1,-5.710868835E-1
1.983089303E1,-4.637110233E-2,7.727923989E-2,2.346496582E-1
1.984089303E1,-3.876521587E-1,-7.605277002E-2,9.701166153E-1
1.985089303E1,-7.600960732E-1,-1.688560396E-1,1.413175583E0
1.986089303E1,-1.102329969E0,-2.035727501E-1,1.540205002E0
1.987089303E1,-1.286810398E0,-1.331821382E-1,1.509028435E0
1.988089303E1,-1.210678339E0,1.693955064E-2,1.376150131E0
1.989089303E1,-8.314692974E-1,1.638561487E-1,1.235068321E0
1.990089303E1,-3.589507341E-1,3.241447210E-1,1.021017075E0
1.991089303E1,4.723727703E-2,3.896402419E-1,6.973037720E-1
1.992089303E1,3.763816953E-1,3.239687681E-1,3.769025803E-1
1.993089303E1,4.930777550E-1,2.168836147E-1,-3.328132629E-2
1.994089303E1,4.902406335E-1,1.506606042E-1,-4.766407013E-1
1.995089303E1,4.906660914E-1,8.671498299E-2,-7.830581665E-1
1.996089303E1,4.837678671E-1,1.752764285E-1,-8.274526596E-1
1.997089303E1,5.726788640E-1,3.037316799E-1,-5.441732407E-1
1.998089303E1,7.585322261E-1,4.734155238E-1,-4.300880432E-2
1.999089303E1,1.014993310E0,5.438146591E-1,3.999176025E-1
2.000089303E1,1.182538509E0,5.357290506E-1,5.410280228E-1
2.001089303E1,1.195173621E0,4.722037911E-1,4.755134583E-1
2.002089303E1,1.162643433E0,4.024535120E-1,3.960266113E-1
2.003089303E1,1.177817583E0,3.016724586E-1,3.630075455E-1
