Time (s),Accelerometer_X,Accelerometer_Y,Accelerometer_Z
10.251914065200001,-3.9375436182751105,5.148173660708471,-6.799882786570818
10.75318192,-3.976310356948752,6.088495292434601,-7.055854375196032
11.249437038163265,-5.231422598373039,5.551432899078779,-6.023045671804214
11.74569225,-3.4807167346889,5.3113709490449095,-7.250161479208236
12.24696011,-4.402064547049427,5.815455106347668,-7.173713224403258
12.74822805,-4.947907203327256,5.313060003611264,-6.18578889973051
13.24949632,-3.662284778847247,6.195742256076562,-6.916468715331039
13.750764830000001,-4.34213375404016,6.112676302181148,-6.531257785110672
14.2520328968,-4.1034122970380285,5.48560664120626,-6.49127425078357
14.75330103,-4.826520403013347,6.454695906988707,-6.2948095853029375
15.249556598571429,-3.9243215216574567,4.72736799528631,-7.2830065301403835
15.7458121202,-3.9482376866541737,5.42520998974459,-7.101286943135291
16.247081175,-5.078890865560814,6.8031338272380575,-5.958664792238256
16.7483504506,-3.710602646533643,5.2051395145196935,-7.421257569372809
17.249619255,-4.14278395403105,5.644713903924733,-7.11933159555887
17.75088802,-4.328824622216168,6.433544506680089,-6.0756276295810165
18.2521574068,-4.3826092211048655,5.386963918532486,-7.063480885113325
18.75342688,-3.774189053376282,5.568955924125499,-7.091898277608036
19.249683611428573,-4.63851014320189,6.276144430876809,-5.94688829027812
19.74594043,-4.763974138420344,5.27418027714439,-6.8705380454918785
20.247209762,-4.119447858347099,5.584513978770385,-6.841922626270931
20.74847901,-4.702800573619299,5.984540525705058,-6.147374467853184
21.249748602,-5.120379130534733,5.845040538388439,-6.408731405739417
21.75101821,-3.5593680126181595,5.276511717653355,-7.123035250324826
22.25228789,-4.18994111087824,5.963217450813058,-7.12582388960627
22.75355756,-5.1872182539492835,5.555489301279085,-5.935366063312887
23.249814753061223,-3.5805450786272823,5.864196862444336,-7.240211617558422
23.746072119999997,-4.35165731135968,5.65922244950739,-6.876984181488779
24.2473423808,-4.094862392269076,5.3270960909528915,-6.507013303425354
24.748612751,-4.797277089537561,6.245460897305936,-6.550108802953977
25.2498842304,-4.013814273423276,4.94976134379657,-7.149166972145042
25.75115637,-3.705160292304622,5.253884400738343,-7.506759997582935
26.2524257024,-4.837552257195793,6.754622306687465,-5.67870332116336
26.75369456,-3.6401484734455694,5.435891837926892,-7.031605427105153
27.249952331836734,-3.819794173767396,5.667058581536669,-7.318047480573723
27.7462101,-4.458155100388873,5.79715975657895,-6.317417194737839
28.247480784999997,-4.7861201766264365,5.238322130959789,-6.994130967638548
28.74875161,-3.2970736467343538,4.996737889539024,-7.587140046294499
29.250023094,-3.9696837571295887,5.678841928230856,-7.382332921810078
29.75129485,-5.072139285291138,5.145035454927701,-6.326012639852811
30.252565909999998,-3.0621379754522007,5.685116399352181,-7.470198103608953
30.75383703,-4.068874627211249,6.101917746475436,-7.016908818300144
31.250095852040815,-4.567379832993238,5.390825858982982,-6.282178190949292
31.74635479,-3.8332792593944855,5.953505746801283,-7.215754641830611
32.247626555800004,-3.9206289746923124,4.99260209803261,-7.284830601890567
32.7488985104,-4.162844783170632,5.407509025298355,-6.791542931632154
33.250170375399996,-4.6797949917534325,6.0462557533332975,-6.577307307369873
33.751442280199996,-3.3828060247931506,4.6036535811709705,-7.728862971588639
34.25271436,-3.819594722753543,5.276482947335065,-7.455595506542782
34.75398647,-5.03457036985239,6.260368201007639,-5.891101863632382
35.250246265306124,-3.8106105110393993,4.599885224732233,-7.792056262613554
35.74650624,-3.9292901898171233,5.378691008165179,-7.278662681660221
36.2477791946,-4.40890834845043,5.931486156438279,-6.498575219178137
36.74905237,-4.859931881715626,4.988620423756401,-6.905256639423518
37.2503250264,-3.264810794491316,5.390851443340588,-7.308658438925563
37.7515975904,-4.167002073467319,5.726042365673478,-7.07300849364844
38.2528710152,-5.04559091420033,5.852588696499125,-5.893254732946666
38.7541448006,-3.440420967163364,5.250702465150075,-7.601471410367371
39.250405413265305,-4.4550056307529085,5.859285403075925,-7.012282832128264
39.74666623,-4.522225285693883,5.687029077966778,-6.1578235633993135
40.2479398012,-4.243443560644079,5.972430777483793,-6.907018099762598
40.74921353,-3.5944396145672175,5.271795709534452,-7.089316969821194
41.250487295,-3.891075274351073,5.329452921022472,-7.453222590306058
41.75176114,-4.986748603818365,6.334215135340495,-5.847457797764752
42.253036525,-3.6802605035864717,5.4527645261365025,-7.422572405049377
42.75431255,-3.9781983943051076,5.186797930648604,-7.224060669269717
43.250573010000004,-4.196439259508785,5.63303493839453,-7.071883179524745
43.74683272,-4.767655470928745,5.652931740010998,-6.3156115329635965
44.248107298799994,-2.9307363631237706,5.524902315763406,-7.352304568964899
44.749382251,-4.0876138658938865,6.03316937054869,-7.265951481145123
45.250656888,-4.834479743909813,5.5500393793330876,-6.064100651169445
45.75193192,-3.818766298757569,5.492999925847369,-7.336582367622883
46.2532077588,-3.840857538682394,5.158649487113262,-7.265018163531491
46.74947149489796,-4.143167499886874,5.075885096462991,-6.965233794319186
47.2457331708,-4.859977625330478,6.641285025238561,-6.084422737094601
47.747006709999994,-3.50575614528073,4.6267607576655845,-7.669254796960526
48.2482826386,-3.5845078597306066,5.752649674911145,-7.320101586662725
48.74955891,-4.839881615524998,6.2928107256386445,-5.852916539899488
49.250834678800004,-4.066715462757672,5.787237802086976,-7.089549639989741
49.75211043,-3.6159411740582885,4.813152727631259,-7.2061002515941155
50.25338661,-3.8591085534545715,5.7742035033359524,-7.4295595950610505
50.74965005612245,-5.132117937025912,5.460059273404647,-5.87724003139846
51.2459136008,-3.0106466302078734,5.979602875095599,-7.476733616943219
51.747189909999996,-4.106805926236026,4.9358677031335905,-7.378773958780153
52.248466607,-4.025638308215525,5.297815776714874,-6.41742701310319
52.7497435,-4.852091435537096,6.561430030128884,-6.396613845137693
53.251020573,-3.4941261489556745,4.608299485897026,-7.638114687519335
53.75229795,-3.9379410262383163,5.5310925756702485,-7.250435910544554
54.2535751908,-4.807504474377771,6.107876598949812,-5.938301662815462
54.74983970857142,-4.3836877727298384,5.868327652803297,-6.937957709479234
55.246104432,-3.014294611583111,5.3245418116649725,-7.362591541672991
55.74738213,-3.9076509755955953,6.172924013929104,-7.160570581472956
56.248659777200004,-5.143557524354248,5.515828258133972,-5.79916535581383
56.749937550000006,-3.474631153344051,5.312336411775425,-7.480653001692406
57.2512152128,-4.214593781571268,5.438193508585475,-7.073558930661168
57.75249283,-4.534130527264754,5.534441784185442,-6.2062438691968715
58.25377104219999,-4.630150118066944,6.583746033968365,-6.235398062276927
58.75003671428572,-3.537862716569689,5.09967535668021,-7.329598393891994
59.246302218800004,-3.8609737670097264,5.617660864227019,-6.902304616870663
59.7475804,-4.917790776043944,6.966273822536909,-5.524762909765439
60.2488590424,-4.057598867834391,4.83333942451258,-7.167842391962877
60.750137699999996,-3.6066847926304098,5.516988925020495,-7.4217553799848055
61.2514167478,-4.4443788223283045,5.678762103276792,-6.449019441161516
61.752696189999995,-5.367451042149356,5.737114519580212,-5.879970932794435
62.2539750422,-3.5423382247245367,5.059130810614805,-7.554806082057463
62.75024109183673,-3.9664016785452243,6.104041242026862,-7.133031262879406
63.2465075988,-4.606016599749079,5.199405412036859,-5.994076447109779
63.74778699,-4.815451577653335,6.150120520290616,-6.584887186761594
64.2490667264,-3.6493354320906035,4.546634838992716,-7.331327637801397
64.75034682,-3.886053146123159,5.5352630927932225,-7.369656653697534
65.251626744,-4.9724074217422825,6.585159204907515,-5.661919877251237
65.7529069704,-4.676228709706945,5.356669437543107,-6.94057355772525
66.2541868262,-3.4571746036349724,5.100788680015622,-7.374013332841207
66.75045385877551,-3.9188017748647956,5.8665402449824,-6.722711407299152
67.246721201,-5.25155118620952,5.251609676849513,-6.217778695564417
67.74800137,-4.118902469863645,5.331450697266327,-7.201815278526347
68.2492816172,-3.8543364605488777,4.554690106671581,-7.314672905511827
68.75056184,-4.07399607117501,5.712920740962256,-7.398804874295555
69.25184247279999,-4.1139330842003625,5.551459467336774,-6.50293642773093
69.75312342000001,-5.22708668530066,5.781535993752708,-6.091175956761382
70.24939109510204,-3.6652329607693734,5.597920926475728,-7.197900105199957
70.7456586,-4.162794771146345,4.85505631134995,-7.078478676113397
71.246940249,-3.6416183541275315,5.224292712677247,-7.362918808099081
71.74822309,-5.446999219380481,6.641778271768094,-5.623962842918812
72.249503375,-4.34874071976517,5.5098660510996895,-6.899969987212636
72.75078284,-3.6370064484651317,4.830675866258679,-7.309645347309266
73.25206376199999,-3.767345622281064,5.4791156808895085,-7.286311345374625
73.75334462,-5.328451586782918,5.203431634403963,-6.077287879159498
74.24961317061224,-4.444975749108166,6.08715532414958,-6.806079899802865
74.74588194,-3.9261092461822216,4.326763401539791,-7.403323934406403
75.247164046,-3.9150642968768516,5.3648862301323,-7.533874627453814
75.7484473002,-4.978115274891322,6.227504761662821,-5.755913445265253
76.24972803,-4.680583324787483,5.754546744401987,-6.745569900567429
76.75100784039999,-3.739604812159749,4.749530662835014,-7.366204768391338
77.2522893842,-3.9744818002958726,5.600852440033219,-7.22087890278051
77.75357094,-4.927998295419361,5.242152664111877,-5.923651369292504
78.24983979714285,-4.423387288493335,6.600798011018029,-6.652794755558746
78.74610861000001,-3.9591516296447766,4.099609093359674,-7.499842736921714
79.2473903828,-3.803402743885149,5.601244295211277,-7.203554310652506
79.7486721404,-4.705947793989567,5.924651343986007,-6.006166921191948
80.2499539768,-4.877580258547312,5.5783348275965015,-6.385774399153734
80.75123573,-3.47326897655183,5.231537814385559,-7.709620301976117
81.2525180916,-4.533507535795291,4.797336258405229,-6.944884428821692
81.7538008406,-3.565842263156048,5.266989999350444,-6.931331532961084
82.25007003857142,-5.5726486198824805,6.6878102083433975,-5.712085320510089
82.7463391208,-4.334157171591865,5.281487080456028,-7.265529291559204
83.247621464,-3.7423887314579924,4.671264979761145,-7.227492726213518
83.74890402000001,-3.9933472267431056,5.479328703819468,-7.49521692633875
84.2501863824,-4.898357806107576,5.360880785506677,-5.985815137345672
84.75146884,-5.065091927222212,5.736117260195872,-6.617563605160205
85.2527512912,-3.923063471695461,3.8848441873969772,-7.625040673595164
85.7540335,-4.075210045620572,5.559174011142658,-7.324072072373406
86.25030335755102,-4.726882843443498,5.950069429472469,-5.934201852789916
86.7465732802,-5.109383301653515,5.405615767887622,-6.6451324432142815
87.2478559634,-3.3558481829821756,4.849162973615095,-7.651819286194714
87.74913849,-4.20575711504784,5.30232829275945,-7.462684901258293
88.25042157600001,-4.458825035094012,5.025011738691214,-6.2836728233957775
88.7517048804,-5.067517851922487,6.3525792136590375,-6.460947097670812
89.2529881246,-3.7576887917624076,3.9441695706989157,-7.86025170500679
89.75427142000001,-4.075596054510725,5.6187828780152005,-7.343035317112922
90.25054156489797,-4.580331262717208,5.749026616668695,-6.222364114792633
90.7468112806,-4.688956455074813,5.6134725506299965,-6.694693476379817
91.24809485940001,-3.337883355860193,4.723937789211824,-7.581381263166955
91.74937888000001,-4.30866764242142,5.1456705715161055,-7.6121620864830595
92.2506622188,-5.096182313781113,4.876716036755235,-6.218283550578389
92.75194526,-4.894834141343064,6.232156982057781,-6.6078380961977095
93.253228867,-3.771156067566098,4.121277930244571,-7.702849243356088
93.74949971775511,-3.999533615552974,4.860086652376515,-7.57271042875813
94.2457708044,-5.1191409209300405,6.4996533542341215,-5.626362684979171
94.74705506000001,-4.2607622849872975,5.00634711456608,-7.4104613843050595
95.2483387788,-4.029274632380781,4.9542128995214725,-7.242521962494768
95.74962224000001,-4.090545677036143,5.4970340089507275,-7.185861923176444
96.250906272,-5.133423589690624,5.138837388586361,-6.245083697574236
96.7521904406,-3.300128318537321,5.463986521877238,-7.496690404631554
97.25347461,-4.526178759401213,5.23770399087148,-7.212693416578699
97.74974626367347,-4.474717411530393,5.253324610477726,-6.0543678998618216
98.2460174914,-5.203126834454195,6.113891264519478,-6.555641851441516
98.74730141,-3.827436842041945,4.139889013711357,-7.969313958239943
99.2485855992,-4.264169317555281,5.338712939353614,-7.245835653784249
99.74986976059999,-4.406007468584957,5.960663013616336,-5.991307591900018
100.25115403199999,-4.817749392500382,5.445446978744375,-6.927346339617177
100.7524383,-3.5657403528016967,4.603188601784862,-7.644570417015382
101.25372293599999,-4.504598626912583,5.472359143907106,-7.285964032217297
101.74999512244898,-4.907656226462792,4.854689969102938,-6.122310938286114
102.24626676,-5.078009967603475,5.87339579300785,-6.540419031447657
102.74755123999999,-3.8073948591664997,4.070153068627163,-7.872448051360464
103.248835816,-4.242875402066573,5.427985022404893,-7.369160702291207
103.75012070000001,-4.339786096977223,5.177848009347011,-6.618344785597684
104.251405096,-5.240622962317012,5.67803231987442,-6.2286075217205505
104.75268922,-3.558683065104723,5.53171820265598,-7.565403739101595
105.253973908,-4.711066843791624,4.837736193350779,-7.034768533153664
105.75024591836736,-4.026744363802129,5.389460996711104,-6.415995694075513
106.24651782000001,-5.209948296886704,6.449146876678075,-6.116773014509256
106.74780272,-3.8457755064867034,4.470258983060387,-7.608552787854137
107.249087548,-4.148693780078605,5.568845541520814,-7.1597795850484385
107.7503724,-4.733120955448618,6.1342299640203946,-5.782672126448512
108.251657368,-4.807382906875409,6.0548793419196185,-6.483358536444451
108.75294219999999,-3.1473482976914897,5.2424995124729215,-7.490450323094633
109.254227384,-4.341011885914831,5.683684428535352,-7.143080395550379
109.75049988979592,-4.245992384922554,5.116613176114362,-6.299497029570152
110.246772598,-4.882633158682562,6.565445875406999,-6.174907305259511
110.74805876,-3.938911320021869,3.994822209382737,-7.799726680673968
111.24934414200001,-4.118725771617367,5.361539823407409,-7.391556452464183
111.75062912,-4.656601691621346,5.632649159625006,-6.194854689278313
112.25191497399999,-5.201364452667626,5.759731230734852,-6.155251545739263
112.75320136,-3.6559668337401656,4.9872524818146955,-7.632315143875757
113.24947426326531,-4.5204568824694045,5.190458761369775,-7.178433133249533
113.74574686,-4.756768571669434,5.067632867923154,-6.169650466065162
114.247033092,-5.032532994028593,5.996002851582741,-6.706813241671452
114.74831974,-3.728202777216329,4.269083424536942,-7.756133780672354
115.249606024,-4.102798915131904,5.3826179788632045,-7.405538447202694
115.750892532,-4.675894282042793,5.651037855182236,-6.041545407963547
116.252178834,-5.141157428132024,5.329774381415352,-6.455571612303622
116.75346488,-3.7188576287507193,5.284247749491868,-7.393239562215138
117.24973864081633,-4.836781693286847,4.9416800129782015,-7.369293325890703
117.74601274000001,-4.397061782314703,5.153878844773463,-6.238126972392331
118.24729954,-5.026971924741583,6.428719655271915,-6.271887175237241
118.74858664,-3.8534651152460606,4.3546729820842,-7.437458787308615
119.2498733,-4.001577451619355,5.6758100206618805,-7.284450060952741
119.75115958,-4.5201776186364455,6.122712188050831,-5.878774312964523
120.252446456,-4.991431341004711,5.580527295130299,-6.608325094381353
120.75373332,-3.295066179597934,5.063314348473998,-7.503053245370878
121.25000747959184,-4.454685518528596,5.750952979756625,-7.208743647120513
121.74628176,-4.863486835942835,5.2382592669641586,-6.118072389618278
122.24756901999999,-3.9865115127135393,6.222867598163231,-6.703357032333218
122.74885642,-4.522243441495027,4.4995107377533765,-7.034872523291141
123.25014394,-3.9723803979295256,5.160570897308443,-6.694313269773001
123.75143186,-5.340188076569896,6.450901715996182,-6.0865701073891145
124.25271932,-4.202592699562281,4.978743885586776,-7.357538207934969
124.75400686,-4.18453548446418,4.71044296289832,-7.32125936540949
125.25028157755102,-3.895033253031638,5.664593925436685,-7.059583740142689
125.746556184,-5.335161574586437,5.2735100557009345,-6.042728219149032
126.247843964,-3.9370567674213732,5.076918411581571,-7.5816027481715516
126.74913169999999,-4.150225560693703,5.426687218575491,-7.2835154154482815
127.250419642,-4.845085556896714,4.730951917112333,-6.588555011228202
127.75170746600001,-4.466893821884581,5.588231021132465,-7.262650898756626
128.252995606,-3.933097739309287,4.434743513079711,-7.466766788125224
128.75428374,-4.002982826695211,5.069992236042586,-7.14637506969553
129.25055922244897,-5.452798438763595,6.324529275925863,-5.797577221006111
129.74683474,-3.9908383555931577,4.552557744650756,-7.661895178234347
130.248123354,-4.113148900536984,5.480140440376139,-7.2032674805952706
130.74941216,-4.541925902619681,5.488786338673443,-6.588769484373172
131.250700838,-4.983434085757548,5.581512589697457,-6.350839569363367
131.75198966,-3.658084010821613,4.7103924135942945,-7.472857716879244
132.25327842000002,-4.660201290129863,5.229451576430945,-7.545339292497008
132.74955439795917,-4.668940978140394,5.4801684725900985,-5.846980525250139
133.245830544,-4.497018184853541,5.973872655555966,-6.982365148282928
133.74711992000002,-3.887963040833932,4.483131938691137,-7.358047143186752
134.248408944,-3.750472880090945,5.1729029373557385,-7.405078331054291
134.749697926,-5.143263226853627,6.590281812437215,-5.8228387620017825
135.250987146,-4.31611901341212,5.441323874206264,-7.046660653288077
135.75227624,-3.458699140790616,5.12887897632325,-7.321449050443678
136.253565708,-4.132362326420495,5.575419732601291,-7.078243650355961
136.74984277551022,-5.179804779127639,5.641271040201274,-5.896502189125802
137.24611924,-3.8024522770786713,5.68073754409847,-7.378390723823762
137.74740842,-4.1513259311888,4.825132150114026,-7.053364508357066
138.248698024,-3.7207241072115904,5.396101667524188,-7.119970162048219
138.74998793999998,-5.051449199918444,6.544530188343174,-5.881978097880994
139.25127745199998,-4.274768464831053,5.2380707070609,-7.253665899418892
139.75256648,-3.9121440737668753,5.128450319702611,-7.3652248982959305
140.253856278,-4.063809981322586,5.774863637199571,-6.967796812673999
140.75013329591837,-5.333638484457846,5.447812278104611,-5.877533685232099
141.246410288,-3.518541204361305,5.173002232483259,-7.511945074773813
141.74770049999998,-4.577733389083687,5.370753818911915,-7.380057858341021
142.2489909,-4.432328921662837,5.031672254696851,-6.15538108661772
142.75028306000002,-5.065775736502704,6.341310450214196,-6.300111837536852
143.251572832,-3.7928616206677135,4.821619410099679,-7.512983409920071
143.75286110000002,-4.266060428694716,5.646172452415048,-7.092726130520577
144.254151208,-4.164437571321576,5.889682213723198,-6.4517573913119115
144.75042797346939,-5.037002290864363,5.766859149481763,-6.238684823844873
145.24670537600002,-3.2146912024185252,5.348144613664426,-7.551732095368011
145.74799608,-4.541871606372593,5.983781351371528,-6.89050709227884
146.249286378,-4.439192804176855,5.356465931922355,-5.915021998002968
146.75057648,-4.844624898915882,6.236020756390729,-6.490103459394622
147.25186692,-3.7577526029095822,4.696364942855416,-7.464354560572303
147.7531577,-3.9822704568269103,5.776224965850284,-7.327543298973812
148.2494351489796,-4.204755451003206,5.977699404508675,-6.224088922963964
148.74571228000002,-4.753915785766814,5.407610083941392,-6.781906325727196
149.24700278,-3.8215974320496118,4.681943453423681,-7.375965282985248
149.748293744,-4.404028555144351,5.668467497412429,-7.367912031400636
150.249584084,-4.940004106134906,5.089168487716081,-6.002716936309387
150.7508742,-4.894085174878077,6.117553595019328,-6.74014242099488
151.25216457,-3.921777156075826,4.404389842167144,-7.564779623390246
151.7534554,-4.0676579697626005,5.202031081899957,-7.441614195954779
152.24973277959182,-5.1813883528415285,6.479025590417187,-5.708793780039639
152.74600946,-4.340445695461949,5.0205351676363845,-7.256362269165277
153.24729983400002,-3.9714060989388273,5.053197718710494,-7.086795409591535
153.74859022,-4.0718782499075985,5.637882766476618,-6.933295064582239
154.24988063,-5.246383213575013,5.503337742105097,-6.170235795341029
154.7511714,-4.045275800783021,5.737820787159359,-7.174593597486844
155.25246169800002,-4.498086685798556,4.847898962215179,-7.0310934694366924
155.753752084,-4.020183163143414,5.20985301469971,-6.748690888094155
156.25002939387755,-5.272884583662161,6.61665923542963,-5.979814213036427
156.74630607999998,-3.6941066188179588,4.545753888633742,-7.638962641655806
157.247596456,-4.274893162677554,5.503435267316913,-7.133357301467478
157.74888702,-4.711513175755147,5.723292313442284,-6.2536081189996
158.250177344,-5.110537665900782,5.3974295412448665,-6.6175270759936575
158.75146826,-3.5641511629260663,5.334595352262677,-7.5353991382029495
159.252758352,-4.47684626773307,5.366327722605555,-6.99962883346804
159.75404826,-5.348975059010502,4.820231058207318,-6.202998085944333
160.2503256,-4.471585762021324,6.045933587009931,-6.897282734738065
160.74660322,-4.459305254251452,4.960734047279392,-7.082153050219285
161.247893556,-4.377454004411331,5.0119541900968,-6.416318886850743
161.749185304,-4.965813408652144,6.857600589626788,-6.020809158694614
162.250475124,-4.288284946725457,4.264533719591307,-7.253715703210071
162.7517635,-4.203667843835334,5.340681116581253,-7.353279816297916
163.253053508,-4.855560526124196,6.625537611297778,-5.751323040594688
163.75434358,-4.6314951290178605,5.30957386147688,-6.988337670918137
164.2506207020408,-3.87836982513749,4.840208842528374,-7.286461491617044
164.7468979,-4.4131406411076375,5.617630826530408,-6.657346283792006
165.24818782,-5.375702496556186,5.466433920480093,-5.935435814042855
165.7494771,-3.7522270810271623,5.563236403691346,-7.427499290349101
166.250767112,-4.652262520208281,5.7179155031863775,-6.8974703702290165
166.75205753999998,-4.335660757928271,5.05020897892989,-6.2734202150756495
167.25334748400002,-5.4197055559969405,6.300858561455812,-6.079855931624377
167.74962449591837,-4.131116443816096,4.1676981204124175,-7.692214077713632
168.24590157999998,-4.260535005492703,5.450078960431078,-7.096871744139135
168.74719131999998,-4.7307161681870324,6.710762909268592,-5.777419800191265
169.2484811,-4.68588345691994,5.088662977882805,-7.259697345249781
169.74977085999998,-3.8768589047117312,5.021943216878591,-7.0296730380762105
170.25106065,-4.2428487029662225,5.799787842064239,-6.7871867571320035
170.75235093999999,-5.1835261337154614,5.491792883249386,-6.12666695937661
171.25364042,-3.7583147640708296,4.986964151405745,-7.426899120464173
171.74991637959184,-4.504153554302435,5.485607090234911,-7.4869295059869465
172.24619309000002,-5.167364885986443,5.391592861396564,-5.88119420683848
172.74748277999998,-4.2879936621510675,5.4954776177214235,-7.2583975762534525
173.2487725,-4.527585142826433,5.356757256399963,-6.876594479799766
173.75006256,-4.5198671921353135,5.320566375898602,-6.526354676101595
174.25135226999998,-4.859466850241725,5.45496391225897,-7.1036803227468885
174.75264196,-4.512657381666367,5.096020609368262,-7.039850945716353
175.25393184,-4.774887278973554,5.311840949509524,-6.268877277994047
175.750209,-4.137806137322903,5.558647495216352,-7.251888401041978
176.246486084,-4.417179651936675,5.732797681223794,-6.964939500707856
176.74777594,-4.904355288885133,5.103210778798903,-6.465128999167859
177.249066092,-4.468183099986682,5.495851948294348,-7.1999299112982635
177.750356146,-4.2546474620429535,4.755848430812038,-7.226143799201426
178.251646326,-4.461876307414994,5.278032443701001,-6.467952359502626
178.75293645999997,-5.086032528302158,6.121276192636794,-6.353393369117395
179.25422682,-4.188934625819757,4.432113079985039,-7.2467911546402854
179.75050465510202,-3.9092994204308713,5.467655196840652,-7.061183675009743
180.246782204,-5.444646999553076,6.412485083541003,-5.7694380644417596
180.74807248000002,-4.129753431796854,5.360177820591647,-7.456177967853253
181.24936312000003,-3.9112075436942417,5.302925964183614,-7.003240356045015
181.75065419999999,-3.566077113319915,5.698868494723382,-7.266006993181386
182.251944884,-5.352430729979139,5.504261174246918,-5.965125475342107
182.75323550000002,-3.643557177322551,5.359717881975758,-7.245494286753818
183.24951336938773,-4.562377757940159,5.452707218741111,-7.054091690517642
183.745791064,-4.152079142851321,5.284841758367142,-6.368190309562399
184.247081974,-5.115711861484051,6.395990878109888,-6.327664859360241
184.74837245999998,-3.89175955980153,4.619943788818316,-7.620090278928761
185.249663604,-4.356672304202876,5.258568435036934,-7.1307590591919405
185.75095539999998,-4.870412138715975,6.082911837867598,-6.032619906049556
186.252246568,-4.728760571609318,5.614649667498324,-6.761641270286599
186.75353783999998,-3.4737196441635363,5.07506930379707,-7.118710089197276
187.24981602857142,-4.129446246005787,5.670523779284573,-7.295938684194765
187.74609388000002,-4.946551816362821,5.633580352680625,-5.951140570389798
188.24738517000003,-4.585327164892598,5.598300898907032,-6.896377514389527
188.74867692,-4.2235107498363025,4.946810905502867,-6.897854888044553
189.24996815400002,-4.077513086367635,5.486330560243891,-7.20170071281741
189.75125934,-5.315178025816553,6.455510789288223,-5.682221480806321
190.25255066000003,-4.132523685181409,4.80793407836086,-7.349666715608611
190.75384193999997,-4.4776117597178775,5.462089048894807,-7.108084673131574
191.2501203142857,-4.6516888681153095,5.894952431476262,-6.210157774447772
191.74639803999997,-4.6740912073880585,4.950067832698573,-7.219277923714
192.247689452,-4.279709146016167,4.897741784325633,-7.03023981527183
192.74898116,-4.28606668489923,5.330342285262739,-6.933306144798652
193.250272692,-5.24317030576261,5.532631039316524,-6.339492383059224
193.75156444,-3.7559366629425517,4.691424768081396,-7.82803397881949
194.252856068,-4.408052123227903,5.093519206815014,-7.069837756971092
194.75414755999998,-4.218061103799145,4.8524293707351775,-6.990415037119244
195.250426322449,-5.906409159933578,6.046002716950539,-6.006515127317836
195.74670518,-3.7199234506084213,4.740022362143395,-7.887661689173083
196.247996848,-4.313350453494189,4.59738611746695,-7.449355511354616
196.74928884000002,-5.0167112841876245,5.954551239728524,-6.141483040119926
197.250580548,-4.369612664944977,5.570504558717163,-7.146555184737625
197.75187252,-4.016071787515978,4.862441726857366,-7.233950636437424
198.253164246,-4.329941441186805,5.3880293371367305,-6.943863265308694
198.74944326530613,-5.215890463346888,4.933505429556398,-6.728416071046225
199.245722148,-3.7098329308219773,4.595534804599985,-7.502747406669381
199.74701324,-4.0284778205703,5.471281595601474,-7.610738063892764
200.248305168,-5.222712036264792,5.221744789227845,-6.239486295571125
200.74959773999998,-3.866922432431746,5.558273036140778,-7.313659065564959
201.250889676,-4.3023009063128645,5.086863069217119,-7.237262598303296
201.752182,-4.616535006124269,5.17094503907083,-6.506630201021476
202.25347387999997,-4.602871781024573,5.6322758588635535,-7.208189498731507
202.74975235102042,-3.7992212122562408,5.119856617221179,-7.181496277741106
203.246031358,-3.853162295347604,5.345064117220527,-6.736898272049038
203.747323204,-4.388122948299273,6.659702664453103,-6.6552289676559635
204.248615168,-3.9644457412189564,4.469080423794249,-7.618088959504862
204.74990772,-3.98673117049792,5.036204770476448,-7.186134973138112
205.25119967999998,-5.023587792371131,6.513014731596337,-5.8529915348118
205.7524907,-3.7296692271213665,4.703283931666498,-7.869464818790281
206.253782732,-4.35790910965638,5.211163788356382,-7.1729374296042385
206.7500620897959,-4.64943404259586,6.196673094140662,-6.146156332889287
207.24634119400002,-4.554117297393117,4.735156217473836,-7.500306639271079
207.74763292,-4.156990800187384,5.134689956483744,-7.084832732113008
208.24892492200001,-4.3599544917549995,5.811252371321851,-6.891064631367332
208.75021798,-5.3014708647571185,5.102416714424053,-6.21514321005547
209.251509926,-3.526666248671723,4.859498965851078,-7.8713357629194105
209.752801184,-4.746151647533678,5.686637831320789,-7.05781630690666
210.254093128,-4.3046940125335675,5.251261101277571,-6.243026182828835
210.7503723489796,-5.0365813147440255,5.698107823740193,-6.82502968442553
211.246651334,-3.85431796455446,4.645865267013478,-7.5901233816145135
211.74794298,-4.272294902389515,5.1953172972027195,-7.424842975706133
212.249234874,-4.74268960492287,6.028054221417734,-6.1880397348271785
212.75052744,-4.4511861857178125,5.319700361441309,-7.048967025297743
213.251819326,-3.9409299986392314,4.829548290491148,-7.08361967493477
213.75311048,-4.180577234836394,5.845715100800086,-7.388812222805083
214.24938945714285,-5.162630317572991,5.173346077820223,-6.117018459510459
214.74566824000001,-3.953533740551112,5.482989464563519,-7.361072003710836
215.24696004,-4.269707866661184,5.153330235308493,-6.987067112074261
215.74825192,-3.796323081089543,4.929686860667165,-7.206850700477755
216.24954374,-5.430673869522207,6.568362375452381,-5.862785693054283
216.7508354,-3.8795616782667164,4.911737930837339,-7.634605206737024
217.252127184,-4.19593371612465,5.095775849723341,-7.174694384955666
217.753419106,-4.062379264548788,5.802593026712295,-6.80564129864598
218.24969794897962,-5.418268261004206,5.5033319413466035,-5.881720983453787
218.7459771,-3.8577742939240056,5.106844341434005,-7.584301641435725
219.24726878,-4.484166776347255,4.9801982525010855,-6.957313786065101
219.74856032,-3.9780794007071667,4.820384890840615,-7.169257034557815
220.249852,-5.404948367672615,6.455060679614267,-5.759142557203663
220.75114358,-4.035652311085261,5.132836637023616,-7.491949153513122
221.2524352,-4.232823171988183,4.799395541461494,-7.2996908516160515
221.75372686,-3.957576621444885,5.3494794423669525,-7.430849202863199
222.25000559183673,-5.476002220485574,5.407269821261124,-5.852757886214718
222.74628416,-3.973954711475904,5.266949499047327,-7.5735192445654915
223.24757584,-4.393113011002872,4.72271094498902,-7.001222541667471
223.74886732,-3.6088510236512183,4.970495525254466,-7.148970329354817
224.25015889999997,-4.911466237267553,6.923974229594531,-5.948636546965638
224.75145018,-3.7981297832756833,5.119072348007285,-7.582533104239982
225.2527417,-4.341633097071285,4.912611910485574,-7.0681891976840925
225.75403374599998,-3.9665570769471357,5.568104326218668,-7.146024828398867
226.25031232653063,-5.249895840952347,5.581781605745471,-6.107526442232653
226.74659072400001,-3.899133968425964,5.074273134543896,-7.667113156527397
227.24788218,-4.482657536080455,5.109853802042269,-7.035314508026822
227.74917321,-3.9196039376188208,5.331125582120528,-6.718526997291476
228.25046464,-5.214437628096631,6.425971143518641,-6.221461327387974
228.751756022,-3.856326149052086,4.394132071058883,-7.7478394776831045
229.25304744000002,-4.465284135708346,5.541673072321173,-7.192822540166808
229.7543392,-4.3508760714198145,5.692460600784362,-6.573478896897403
230.2506177265306,-4.729643879851454,5.822156974908761,-6.507959868415161
230.746896848,-3.5374980503375393,4.730825702376851,-7.518192112347283
231.24818824000002,-4.202764863751072,5.916425329191133,-7.336882088193072
231.749479058,-4.975617743159809,4.856496084922218,-6.587453674680043
232.250770466,-3.644410215787037,5.018207629918526,-7.718166426365456
232.752061212,-4.427735182787257,5.267519986914123,-7.1756395088085325
233.2533526,-4.913177315048758,4.9910675823058535,-6.397630688999232
233.74963194081633,-4.340652490113912,5.646998868900964,-7.24331313314176
234.24591036,-4.22476857756833,5.019359415588618,-7.2923603157227515
234.74720123999998,-3.739509023941167,4.698942966630637,-7.218355253490713
235.24849254,-5.165463360970076,6.343104097069077,-5.928897379986285
235.749784536,-3.8955958686758394,4.911898244191776,-7.708179471630384
236.251075904,-4.469975226303902,5.343227485484678,-7.266434082454618
236.752366946,-4.211887913475572,5.666290529939375,-6.697773900597643
237.25365832,-4.820775871218612,5.3056868653814115,-6.875527904889047
237.74993675714285,-3.397148457796228,4.972656960954434,-7.456047533631825
238.24621525999999,-4.3129303417359806,5.463034050103472,-7.415554101614783
238.74750677600002,-5.069516836596445,5.0010048040884065,-6.348159463606782
239.24879819999998,-3.6036613082428874,5.17274376239586,-7.57191778296234
239.75008962,-4.30994870014897,5.752104220699497,-7.140473772985192
240.25138108,-4.777136051871805,5.027037859968081,-6.548543234828231
240.75267262,-4.118143452765757,5.326613046776154,-7.309192486304666
241.25396418,-4.33667747048096,5.104747683457996,-7.452406396941783
241.75024254081632,-4.872045617087068,5.2254374361858105,-6.313123478049728
242.24652116000001,-4.290331845254575,5.645197425614838,-7.188267848919853
242.74781226,-4.378551106830122,4.840634141167906,-7.177881891800227
243.249103524,-4.33335011760931,5.4570379593897735,-6.561995403615399
243.75039537600003,-4.752079375532321,5.758113258915149,-7.275715533147449
244.25168666000002,-4.081438687509661,4.282288956288932,-7.431067495508041
244.75297801600001,-4.323975364792356,5.129779302383953,-6.905902673528923
245.25426932,-4.601553256176772,6.210985421977288,-6.739509549198029
245.75054737346937,-3.929989660361658,4.963251227988084,-7.389942222587706
246.24682582000003,-4.250807060919266,4.832293770388182,-7.054075298072914
246.74811773000002,-5.048696488837213,6.138269309900239,-6.277325348346651
247.24940918000001,-3.743745254388567,5.405123949916378,-7.4752608471273625
247.750700746,-4.262272713454165,5.154753098096337,-7.377778892197163
248.2519924,-4.858483109217372,5.562670420284408,-6.33693557084789
248.75328421400002,-4.577678680857195,5.462717989084675,-6.968053514561518
249.24956314285714,-3.6444338859300935,4.615751998341177,-7.441458198346191
249.745841314,-4.0308456973339055,5.649132622212618,-7.410912094405718
250.24713328,-5.227365142694677,5.100090658464255,-6.321782702665595
250.74842652799998,-4.217974784724872,5.444105022802981,-7.200251709569484
251.24971882000003,-4.152622791758851,4.394011962031078,-7.3002642940176825
251.751010838,-4.103307868937069,4.860537816184711,-7.465289129682224
252.25230324,-5.41744790758978,6.385033556395098,-5.800391930682855
252.75359487400002,-4.146935044622994,4.493670346410634,-7.66722565930379
253.24987456938774,-4.081483140211464,5.1168216167041,-7.289933524900843
253.74615491199998,-4.199231911747787,5.51151360603974,-6.618806716320024
254.24744778000002,-5.213964048247663,5.461548750956086,-6.354953366881757
254.748740636,-3.977335209598917,5.343455856292693,-7.398569638373512
255.25003366,-4.537190536444798,4.9557416626990785,-6.995171950021004
255.751326992,-3.7411833012725153,4.917903662704929,-7.318747522457572
256.25262032,-5.352893195272442,6.460115982129463,-5.777137507044659
256.753913834,-4.463262079933962,5.271835923981707,-7.286236047397282
257.25019451632653,-3.855321959035145,4.76429827284511,-7.309816200100985
257.74647524200003,-3.9558833152174007,5.256326796239564,-7.273581378821722
258.247769086,-5.7173551856960065,5.219420186315745,-5.871844202984278
258.74906285599997,-4.497997410366114,5.45358789714984,-7.148434013822745
259.25035688,-4.326996696083324,4.084101878815417,-7.318234470658224
259.7516515,-4.034623045480297,5.410688931231245,-7.488408993754417
260.25294578,-4.696127711423622,5.899043908151087,-5.99951930137818
260.754240272,-5.12995227243765,5.460167078733768,-6.408985282254171
261.2505218142857,-3.6138438446540566,4.695153605067945,-7.602665570641951
261.74680316,-4.53309688138893,5.296462141982325,-7.3279360777902784
262.24809788,-4.433568088188803,4.862431726745169,-6.433993125870342
262.749392832,-5.452241496443371,6.330533023871027,-5.939050755880024
263.25068784,-3.905360721625564,4.756337449568638,-7.455838439337803
263.75198257200003,-4.38903953792707,5.248112497051245,-7.311189081266841
264.25327776,-3.9790844565116976,5.499333381224336,-6.917190642076475
264.7495603387755,-5.538614147674658,5.100939339178979,-6.042190940093878
265.24584276,-4.316306400464293,5.231018524809262,-7.096296151420931
265.74713879,-4.220038702474857,4.564686265499005,-7.299374262229012
266.24843442,-4.106388995384239,5.289889137240514,-7.46045192453188
266.74972964,-4.829937698340078,6.114568420074436,-5.997704231262962
267.25102542,-4.934561677150016,5.135084715272154,-6.778132828666597
267.752321992,-3.866520688697201,4.7061508812494175,-7.42311154627086
268.25361809000003,-4.6531987130173995,5.382024169815748,-7.343670041527723
268.7499005428572,-5.148880576737552,5.090898045550325,-5.603575021144234
269.24618368,-5.062490427152212,5.961477631828034,-6.551745812857883
269.747480134,-4.081034115360218,4.123066514572828,-7.50640243622678
270.248776482,-4.317469527090719,5.420818697031868,-7.437108506250723
270.75007281,-4.887847508403028,5.937500990335578,-5.748848809356684
271.2513692,-5.11176832754062,5.21324875330588,-6.609736718691083
271.75266565000004,-4.067577564192138,5.21137375712524,-7.431142031809808
272.25396218000003,-4.525769634151199,4.709922394694602,-7.042400858232136
272.75024606938774,-3.9143007248585913,4.918569363161364,-6.989276332000024
273.246529826,-5.361485119564982,6.609610045030044,-5.7878642154848565
273.747826568,-4.882295793372176,5.473772032688823,-6.6413890845513155
274.24912338,-3.776596109708167,4.637367168541669,-7.232015137069174
274.750419936,-4.076934853463517,5.6522613631785115,-7.495220863381511
275.2517168,-4.930689223710653,5.424750246180991,-5.834970508054271
275.75301379,-5.35450481551376,5.994463867166537,-6.461629045728888
276.25431072,-3.8841911904539903,4.435302773370554,-7.610092302966043
276.75059481836735,-4.2083973250862154,5.320798910766559,-7.227535578005331
277.246878868,-4.909670560505615,6.035580354989093,-5.9886842157599185
277.748176204,-4.641283353231741,5.787752217734338,-6.545325558542859
278.24947332,-3.5998608016035503,4.7257844597716225,-7.5842400528413885
278.750769912,-4.496203052074003,5.918897453776196,-7.095469178814922
279.252067,-4.472681013249686,5.631233212589519,-6.145924378589058
279.75336464,-4.1481267994852615,5.589536725502411,-7.054922676651753
280.24964896122447,-4.404032197233018,5.094772431656996,-7.032552747397351
280.745932836,-3.7121786125193843,5.272453905871701,-6.948540270173848
281.24723008,-5.319824041176222,6.280627322523891,-6.387425892780475
281.74852738000004,-4.209332871257418,4.657198772993051,-7.6964861252019725
282.24982464,-4.077660885742052,5.392066265449678,-7.133121158442314
282.7511221,-4.381867729472026,5.443561061313286,-6.889029011623836
283.252419444,-4.904471645751746,5.624449823067933,-6.39520124349702
283.753717288,-3.6070567660696145,5.447635987736939,-7.137766475245855
284.2500017285714,-4.034976485214495,5.875812610715986,-7.097072605162108
284.74628557799997,-5.629858450432953,5.246218446241142,-6.451879674981739
285.24758282,-3.417086277499257,4.611311085734649,-7.841681210139481
285.748880498,-4.509301100562538,5.040552410863062,-7.618248330497279
286.25017794,-5.0638646287867415,5.091365842136803,-6.149367953169556
286.751475254,-4.27838573144309,5.249386275698311,-7.398244211109029
287.25277268,-4.170701275994806,4.3161430284943645,-7.4392175744858005
287.75406973599996,-4.020766267470165,4.668082605913546,-7.335940417350011
288.25035419591836,-5.272660735214275,6.250714429469426,-6.153385863212156
288.746638838,-3.7064472526933487,4.474842830382096,-7.986352233239824
289.24793644,-4.556419121047738,5.065643102975752,-7.241477753453355
289.749233394,-4.731614747279271,5.657822178946986,-6.456447590709915
290.25053084399997,-4.564567182161122,5.039620832622507,-7.0732800940489255
290.751829164,-4.255371587993782,5.0196913755963415,-7.30749356740628
291.253126826,-4.243356686493831,5.289038565722369,-7.132248073243252
291.74941121836736,-4.8559071995652,5.824408598173181,-6.318260653403688
292.24569586,-3.7802276668874013,5.016025897433434,-7.0770491450593305
292.746993176,-4.788653233140867,5.370485617165302,-7.602624281057995
293.24829076,-4.78749410900653,5.15651631831172,-6.397704151240718
293.7495882,-4.222771243843761,5.2826154534568035,-7.3850664256911545
294.25088575999996,-4.387976792552311,4.83356960934084,-7.3690359862465575
294.75218274400004,-4.85958668003358,4.941018937090284,-6.588210299955038
295.25348026,-4.30227917893403,5.4036378731580905,-7.378545993087904
295.7497652,-4.2840770989683685,4.842110872736345,-7.337334578470481
296.24604992,-4.512386720541304,5.288106079376466,-6.36184698056864
296.74734691599997,-4.649089527850013,5.518074873400828,-7.337749246250375
297.24864438000003,-4.061534172806935,4.37844840589457,-7.451688319722872
297.749942004,-4.266518865988365,5.1562247808189765,-6.823601788958407
298.25123954,-4.783320372245922,6.0370214024277775,-6.788903357483189
298.7525375,-4.002315298987161,4.023383244058761,-7.807689547098266
299.25383504,-4.345221562143257,4.7766351918615575,-7.6962721540442125
299.75011969999997,-4.957882015451654,6.096881850500812,-6.021729169065453
300.246404246,-4.257801596072225,4.171428292569684,-7.874998916579293
300.747701474,-4.185002939228686,4.661154318202539,-7.446854607819018
301.24899888,-4.207667423476931,5.339776183057118,-7.000089800460663
301.750295984,-5.200189180914919,5.5168645886518,-6.187501126544922
302.2515934,-3.3454904821257996,4.993329803359952,-7.758807998466239
302.7528908,-4.84011203634258,5.107605437786752,-7.256410831857007
303.25418836,-4.531764361584255,4.791468096859392,-6.387285154971651
303.7504726612245,-5.010456436693606,6.014114113541882,-6.655844317706638
304.2467572,-3.8277620795209755,4.313598037815157,-7.73477675488802
304.748054642,-4.15520655487513,5.283000647520432,-7.40155495858355
305.24935222,-4.426463492098966,5.6493959075224645,-6.2941615685303365
305.75064962,-5.060672122574761,5.5227880557103255,-6.670632143606839
306.25194712,-3.682283270151116,5.077212180410378,-7.519490040838155
306.75324495,-4.711154162018848,4.80891785525483,-7.058464464142458
307.2495295510204,-3.4859162348204475,4.95999789757217,-7.5119967214889884
307.74581379800003,-4.960226278521899,6.2516895541935344,-5.965553572357416
308.24711120200004,-4.9341862926344415,5.497041340772846,-6.579224055995765
308.74840851600004,-3.5104539310113103,4.984500145264665,-7.704765761370913
309.24970592,-4.5513226888519425,5.055403890485536,-7.140823639624806
309.75100376800003,-3.9689585403393597,4.702711422940093,-7.063292864177271
310.25230128,-5.374917045891873,6.416874251823201,-5.995626193223407
310.753598554,-4.557971912031565,5.550400597450533,-7.024814618805614
311.24988296734693,-3.737538108195677,4.569373091965301,-7.435055814463714
311.746168002,-4.291205475793359,5.344181420058167,-7.329504151731535
312.247465546,-4.829803940439571,4.921447547381511,-6.298853956766926
312.748762704,-4.818940618528451,6.050334021564915,-6.555994680268502
313.25006006399997,-4.033168584908843,4.142182124993613,-7.689067137674925
313.7513574,-4.24221921520713,5.3364368081700695,-7.318639238222034
314.25265484,-4.272306384396074,5.582966524413913,-6.624561176761523
314.753952584,-5.2922057687036315,5.544801790544259,-6.161747076885087
315.25023729387755,-4.18533176013297,5.171218195453152,-7.2984902884725775
315.74652182,-4.823172980287543,4.601009654674903,-7.224400855023159
316.24781948,-3.934832504164153,4.3845434646216725,-7.579473454562041
316.74911734,-5.641072099275166,6.316266029752134,-5.71215628370521
317.25041496,-4.102887705681561,4.8336296346375365,-7.650291498181154
317.751712526,-4.254255172780145,5.117961156699606,-6.9541425211413594
318.253010022,-3.8283708196449378,5.514734515809643,-7.394863605512208
318.75430764,-4.955140960778842,5.118916244150139,-6.011791770231573
319.2505923346939,-4.754897209957302,6.047578713548953,-6.929770210296319
319.746876654,-3.8327547263208452,4.4587831499547415,-7.503006059813639
320.248174244,-4.27724160907672,5.353740673320601,-7.426263197604891
320.74947288,-3.973500805155358,5.505707690150131,-6.948104686003221
321.25077072,-4.964772263003244,5.602520342849139,-6.100202563719416
321.7520681,-3.8100542517703717,5.404517257203695,-7.409927695769607
322.25336574,-4.311953566240313,5.108892109000185,-6.9303234093366255
322.74965095102044,-3.893025685318243,5.122940078164702,-7.229218887274696
323.24593568,-5.428134307663551,6.274597238411458,-5.770195081705649
323.74723266,-4.103589886521006,5.376606350475928,-7.300843547564912
324.24853018,-4.056390292923787,5.215154364241946,-7.223346931457335
324.74982827,-4.238786121145603,5.709614004860082,-6.742878461432518
325.25112616,-5.486061521906444,5.5084314690900555,-5.781357423513333
325.752423882,-4.4144961476053295,5.3257573096288615,-7.36654506878216
326.25372166,-3.9991164240867416,4.9488705647324025,-7.263491557823358
326.75000703265306,-4.12208755256322,4.973554503278116,-7.447205289048798
327.246292,-5.096499676248441,6.093419774833596,-6.085145613513628
327.74758978,-4.239925420972373,5.4911440064737596,-7.2812614811333365
328.24888768,-3.8924558644781992,5.099951415736074,-7.16781526649336
328.75018544799997,-3.8975392735694836,5.847307434273831,-7.126916255164779
329.251483342,-4.886549746730196,5.775808792313639,-6.107539870828884
329.752780796,-3.456100710257648,5.05878731585013,-7.658773459816364
330.25407862,-4.452731275252059,5.570465719537191,-6.936408503771963
330.75036378163264,-4.308556802113945,5.583575175704494,-6.187948497603237
331.24664888,-4.912752407686774,5.976865643165178,-6.853874549930431
331.747947132,-3.863346504062921,4.395110474625039,-7.875914422845591
332.24924532,-4.249102520946026,5.020932639189825,-7.109310113276877
332.750543136,-4.776114949940629,6.082551937990879,-6.316503125478504
333.25184118,-3.879668272923559,4.970913343533345,-7.686886613124818
333.75313959600004,-4.352245045483693,5.0872941395828555,-7.222008691784777
334.2494248857143,-4.139214913843257,5.258273199798508,-7.169867265944095
334.74571058000004,-5.222916139278011,5.518618509016647,-6.2451111598020566
335.247009044,-3.3653942537049018,5.180351663568571,-7.317589659029096
335.74830706200004,-4.624256615992627,5.323998779115943,-7.492568226902527
336.24960526,-4.933649833162949,4.999070434577256,-6.298946729699769
336.750903588,-4.967696131691896,5.760220269686739,-6.842782799618622
337.252202,-3.9010361987479154,4.395333318300747,-7.457618356641824
337.753500996,-4.123090767684925,4.979188069307288,-7.3996382195368176
338.24978665102043,-5.150647800736102,6.141113334568205,-6.072422977880128
338.746071944,-3.8722898986005365,4.5151813129927305,-8.038463122122703
339.2473704,-4.467581616794468,5.16920115599921,-7.2042777477272875
339.748669044,-4.7439648140903925,5.725579808817063,-6.383850361631694
340.24996786,-4.638940087361866,5.280073482343425,-6.845562321240822
340.751267288,-3.6911201396085636,5.301021248113061,-7.331337480278552
341.25256636,-4.428105505144662,5.32438315082926,-6.8214190726538195
341.753864508,-5.078463221510768,5.687243143946355,-6.55945702528113
342.2501502142857,-3.6294507832729077,4.784145595573111,-7.498813411306197
342.74643647,-4.323464727255773,5.464689110381003,-7.425373387608788
343.24773544000004,-5.11084797097702,5.210255787121497,-6.332766257940527
343.74903387,-3.551476787543084,4.756117041637362,-7.623546007243299
344.250332704,-4.484697291758348,5.6116257226925566,-7.39145961671865
344.751632428,-4.993707172367417,5.337898942957582,-6.363054236214976
345.2529318,-3.9293594588694742,5.167720498036911,-7.337709700626845
345.75423133199996,-4.348043737640653,5.300641583015821,-7.302502828197213
346.250518,-4.7658137338169295,5.331019895163767,-6.32041621279839
346.746804318,-4.3964179103966305,5.284553249067524,-7.288136642702151
347.2481037,-4.3782413625626955,4.867538134453354,-6.947811028237329
347.749404144,-3.8178930826081445,5.201707478028538,-7.0733083785085
348.2507043,-5.531766573022309,6.391583660142346,-5.907142579378192
348.752003634,-4.113763353254107,4.423509199524843,-7.772039058444251
349.2533042,-4.076642836338395,5.36997352773931,-7.281931797480548
349.7495916204081,-4.5647771021144266,5.846016108410814,-6.436146030673889
350.24587964,-4.927890422462883,5.345952041412675,-6.537030693109384
350.747179952,-3.3700499386295304,4.903684353534829,-7.6110978966680385
351.24848056,-4.217071236470691,5.4347699556299816,-7.500442473217519
351.74978201799996,-4.594801366887933,5.155302396233749,-6.093768868598476
352.25108314,-4.827338819045714,6.154529831027425,-6.57687819052207
352.75238422,-3.990789987455265,4.49917113135002,-7.440155077954086
353.25368536,-3.927566530691424,5.120574768184151,-7.500561825657787
353.74997325714287,-5.334821311814854,6.522216928346088,-5.6585652293300654
354.24626151999996,-4.810330875524767,5.151942486598882,-7.09492273749483
354.747563368,-3.7350360687609316,4.532019179538994,-7.418373725461127
355.24886516,-4.343574348204057,5.176003375317515,-7.422744252395579
355.750166992,-4.457825990118154,4.703884725127996,-6.259009721444902
356.2514689,-5.37025893637897,6.646455557783571,-6.006918066148597
356.75277089199994,-4.475384265847262,5.032522971480839,-7.082871711313147
357.25407293999996,-3.6683792736353524,4.712785507096384,-7.378777684549011
357.7503619959184,-4.477864738478623,5.42576261426984,-7.258798756542698
358.24665108,-4.619668204764427,5.092289289356322,-5.974718036302553
358.747953136,-5.526597875556595,6.214227130339989,-6.200455770000823
359.24925528,-4.138547587346722,4.1407806488966425,-7.485086267550125
359.750557708,-4.5718970714674185,5.154780812769339,-7.409144854851515
360.25186008,-4.315173300681127,5.290559610718317,-6.356383656119193
360.753162492,-4.777333256391863,5.213670939659913,-6.888479079948465
361.24945203061225,-4.54318976301738,5.971229922778343,-6.405062328525562
361.74574228,-4.757033224004978,5.675496309497525,-6.62874284038989
362.24704544,-4.291675241212186,4.577335341102408,-7.264618340293382
362.74834840000005,-4.441816336540631,4.962721710109377,-7.157303559732585
363.2496515,-3.9597103642020612,5.276176556253987,-7.481659344001793
363.75095461999996,-4.441639735217007,5.906048368857606,-6.13256206809273
364.252258048,-5.16266668917875,5.614511793226732,-6.295222659726014
364.75356122600004,-3.7591785506190747,4.979629014310863,-7.578861030357956
365.2498516918367,-4.441224495860303,4.765330494081607,-7.236113776867713
365.746142836,-4.135590940441628,4.66103776247582,-7.080457423364549
366.24744686400004,-5.528063617131408,6.576928641361403,-5.646876075802302
366.74875072199995,-4.50803203954935,5.232219870251349,-7.31496432661727
367.25005474,-3.8138784967266135,4.6038316756597615,-7.23169798622263
367.75135927,-4.310705362153426,5.5951200768658325,-7.337721924534418
368.25266376,-4.824627016736861,4.909714096598878,-6.180042828532288
368.75396811999997,-4.96696464871961,6.32129478437016,-6.329422831753968
369.25025957142856,-4.001875843619948,4.293343556863123,-7.512920423817225
369.746551072,-4.1196105219995305,5.499113930462877,-7.50338358459695
370.24785576,-4.21158991016731,5.811789757244132,-6.342912759825076
370.74916034,-5.12855674554143,5.257014344376836,-6.327778823362122
371.250465128,-3.9979630188660615,4.808657716095185,-7.661266420622132
371.751770282,-4.571362106936161,4.913807837001093,-7.0668867154378425
372.2530754,-4.251004875459285,4.9926634476494165,-6.810357396137203
372.7493675163265,-6.006530342659967,6.149501516149034,-5.880022935879992
373.24565966399996,-4.4439897190166855,5.024054274075362,-7.258618244120661
373.74696435600003,-4.675475730093774,5.220357555477741,-6.951943588963693
374.24826942,-4.155200480216249,5.53244112828408,-6.62269901923023
374.749575304,-5.293271794480296,5.564564430766752,-6.105331218070352
375.25088094,-3.981423267443124,5.299037532010897,-7.5196616043137965
375.75218576,-4.466599283894455,4.816783288696804,-7.101165781597802
376.25349090000003,-4.152176879258382,4.836680303645329,-7.265979686572797
376.74978354285713,-5.493856810930836,6.155891920473096,-5.994715567380036
377.24607604,-4.171909484356891,5.466070902266567,-7.362583709778744
377.747382068,-4.411353987902262,4.436971151979022,-7.260255164041996
378.24868782,-4.078432982423915,5.31877819141788,-7.309087343304003
378.74999312,-5.118443358288252,5.558633329848213,-6.125617305833874
379.2512986,-3.850327197222143,4.69645752323269,-7.84031328342576
379.75260406399997,-4.941349005394267,4.639863554686777,-7.084087930315201
380.253909684,-4.7401956022777405,4.72975410240068,-6.628632318523838
380.75020304285715,-4.384595587853437,6.071416451285189,-7.173851032419698
381.246496,-3.8241679685731187,4.375314143472404,-7.709432473470894
381.74780174,-4.262980605283706,4.682634236848144,-7.463097547833031
382.24910738,-5.434231222388946,6.272060199902306,-5.74021925425574
382.750412354,-4.141342807015618,4.91467570995202,-7.784563449107792
383.25171766,-4.456098124026366,4.968113420695295,-7.052294172414614
383.753023816,-4.2122973765373475,5.217462860742658,-7.149449682134848
384.2543297,-5.075213890964495,5.293758289975313,-6.487081025285375
384.75062219999995,-3.7622728179031406,4.54180854584996,-7.558355265320873
385.246914682,-4.516758856219699,5.387898546099719,-7.5465801759027205
385.74822051800004,-4.97837134753773,5.0502318700503395,-6.214765112349238
386.2495263,-4.747451954026304,5.617252810425872,-6.959704061900454
386.750831886,-4.115088247620611,4.259387126757914,-7.672562880051105
387.2521375,-4.155219568494576,4.933555699000353,-7.024165570130733
387.753442994,-5.261785059479938,6.178190130598455,-6.187258679869818
388.24973544897955,-3.8280401747842707,4.691530821001231,-7.716358526599864
388.74602750400004,-4.381592330773741,5.191969053943994,-7.364125205157206
389.2473328,-4.278092116599356,5.173396026753002,-6.999711827641226
389.748638538,-5.6010570407166105,5.163304069613668,-6.170563179180763
390.24994412,-3.4996048975874645,5.155501119104224,-7.406675480936131
390.75124952600004,-4.544070236286294,4.4989651514063915,-7.659700479567435
391.25255496,-4.266491100740411,4.762363550694033,-6.678646133923182
391.75386010200003,-5.168775833048353,6.511228048723451,-6.284028076435709
392.2501523183673,-3.9932745978277,4.23320565192111,-7.662060495350935
392.746444876,-4.582399311306693,5.103992814016404,-7.2532852226320825
393.24775034,-3.9668003398927594,5.327136496642153,-7.186902050952662
393.749055464,-5.370711846949087,5.289492497335147,-6.065222521322559
394.25036068000003,-4.330160003277697,5.447375418838419,-7.236521005529147
394.75166580800004,-4.369229312966195,4.069751995918421,-7.461545937235808
395.25297101999996,-3.809807253832036,4.66667731531157,-7.574374839609938
395.754276914,-5.281274381985839,6.193017278118909,-6.170217046195878
396.25056944897955,-4.836857936092997,4.99365172418096,-7.144969437584374
396.74686117199997,-3.7515564416913993,4.733051298766058,-7.172145780737494
397.24816614,-4.347079220227479,5.235670303774996,-7.525359968413134
397.74947203999994,-5.245129329838679,4.846036626374947,-6.048199550100585
398.25077762,-5.248482970656113,5.593759727325192,-6.7378546742458605
398.752082584,-4.249031076513905,4.323805003167847,-7.625029228997752
399.25338768,-4.5972054125000605,5.033372717745816,-7.288203268844038
399.74967972857144,-4.013478595628556,4.995110469438459,-7.0220175620936445
400.24597186,-5.328903566825966,5.378181748012294,-6.0117488440245594
400.74727755,-4.765706184170651,5.4075820441233615,-6.862661966963383
401.24858312,-4.162031339514459,4.47373323328533,-7.457320643095477
401.74988852,-4.220154104999684,5.4332304208032385,-7.2521936120831745
402.25119400000005,-4.509287231622818,5.372524835630594,-6.555951784547074
402.752499672,-5.419545477324424,5.46372853790101,-6.277609102027017
403.25380535999994,-3.555577544368382,4.9343095520665825,-7.674773992569637
403.75009719999997,-4.550119121763559,4.705139526294296,-7.348258994389612
404.24638941999996,-4.077264316719735,4.837513249265024,-6.682553835507955
404.74769543200006,-5.751851919045813,6.289572777965787,-5.896044074869293
405.2490014,-4.073024953841737,4.909085002251614,-7.59814670029522
405.75030718,-4.4944197348669,4.964834783961141,-7.272183333755987
406.251613,-4.131866627232184,5.080828346492577,-7.183019966314854
406.75291869399996,-5.751976425930809,5.164060496562192,-6.258658949915838
407.25422457,-4.100617998951132,5.165368238581359,-7.072449778049864
407.7505174755102,-4.867832732689494,4.76129537803346,-7.0967038933893845
408.2468105,-4.438829403312483,4.598820946031905,-6.734114582752981
408.748117032,-5.600535424047003,6.571440244495649,-5.901568800270455
409.249423466,-4.101973080269615,4.291553892662441,-7.609599916548759
409.75072974,-4.411112282960999,5.425489543733828,-7.359593115656928
410.25203604,-4.375053806919677,5.681431943982715,-6.620026237819714
410.75334215000004,-5.312684888980986,5.285007518647294,-6.160568134441382
411.24963539795914,-3.5969742345157805,5.113715846108025,-7.571368864028242
411.74592914,-4.576457423165133,5.175719344700313,-7.107770481280687
412.247236,-4.353983479725222,5.12443439821534,-6.329262190711288
412.74854280799997,-4.892681312099347,6.225523967919746,-6.456287218752767
413.249849582,-3.768996344700801,4.1358788555680555,-8.11800329309579
413.75115619999997,-4.317530069032528,4.8924080236601535,-7.377915970055151
414.25246294,-4.326655381413201,6.182521691066824,-6.489184609191771
414.75376966999994,-4.437988246008753,5.2079120382989075,-7.207703876595503
415.25006354285716,-3.941261807862103,4.811821486142058,-7.373297915481078
415.74635764,-4.272674251261911,5.441218541606791,-7.024724717746397
416.2476649,-5.0759240613084,5.676440406836612,-6.0578242284339305
416.74897288,-3.775060054198801,5.018808467680277,-7.350941144866436
417.25028076,-4.806336309457873,5.307574229211995,-7.3705978886834655
417.75158816000004,-5.008641043846867,5.587656705731173,-5.528563397651536
418.2528957,-4.667571057469024,5.699138036377381,-7.0745455523543965
418.75420352000003,-4.433909003271181,4.451428465619274,-7.28520014063311
419.25049830408165,-3.452995380836184,5.34875278031152,-7.3572459891729105
419.746793278,-5.229372610681506,6.711995360271336,-5.835051726908737
420.24810146000004,-4.174572423024536,5.22915476926637,-7.071301044205461
420.749409178,-3.881617015242977,5.583126493042166,-7.2406885018904985
421.25071714,-4.4487225243750075,5.129155097704046,-6.630266411161774
421.75202592,-4.923468632581332,6.1271485150112905,-6.2055810981410255
422.25333472,-3.7853249654805183,4.853423155395181,-7.531440829333312
422.7496305489796,-4.454753338637267,5.572632379828883,-7.202726905124208
423.24592638,-4.772277758332822,5.659285183065907,-6.0224456084274065
423.747234972,-4.514496575950005,5.704086566038935,-7.03747306791896
424.24854378000003,-4.01691999534768,4.412118742481686,-7.38356925462655
424.74985334999997,-3.753129740279148,5.192543047874003,-6.882811492801055
425.25116293599996,-5.268013902226063,6.611523663792311,-6.1838554100469425
425.75247232000004,-3.911450641943618,4.4138110000985105,-7.930669889384763
426.25378178,-4.551457237930002,5.206138683918349,-7.069283893085948
426.7500776673469,-4.174539149363357,5.433481485618727,-6.760103436489015
427.24637376,-4.908530718178687,5.633907508482529,-6.489494066900892
427.747683596,-3.614521396087673,5.014785599093425,-7.452301831813539
428.24899339999996,-4.2488612742148835,5.096854134216147,-7.659136257972683
428.750303452,-4.79173660793002,5.210037427506231,-6.297012842181516
429.25161354000005,-4.378914994421532,5.572034035154608,-7.271558752689301
429.752923286,-4.136458425772174,4.275440111989321,-7.41041757879427
430.25423328,-3.717274608317885,5.151114109227546,-7.526990623195103
430.7505304857143,-5.007875177844196,6.634773716211486,-5.722364961609597
431.24682776000003,-4.129142743249292,4.162625944376065,-7.883653332449501
431.748137948,-3.9452433738258037,5.160715596000921,-7.544147312960366
432.24944826,-4.848125737292299,6.231283100092846,-6.0067381428127655
432.750758684,-4.351268273015037,5.300479536208961,-7.232212644903239
433.25206916,-4.153251759271394,5.350647834810586,-6.804504733531978
433.753379668,-3.978825339388523,5.455538976737674,-7.382962244314041
434.24967715510206,-5.209904080264282,5.539517233295707,-6.052082609072796
434.745975232,-3.918957120554889,4.867758154613433,-7.740711564877699
435.24728634,-4.5977263745132735,5.17482394291065,-7.139824311937909
435.748597296,-4.738755972354989,5.442409452819408,-6.129771899829484
436.24990826,-4.7112527408192735,5.806779931057708,-6.886489867346109
436.751218828,-4.256338115410097,4.174939981271819,-7.5559320382005986
437.25252958,-3.7584915047531955,4.761668446771587,-7.078538151952837
437.753840788,-5.614183842804587,6.32225284851472,-6.349236552026539
438.2501389020408,-4.195131823842851,4.650294630189676,-7.622904873214286
438.74643721,-4.2960276685435055,4.604991567344914,-7.199668211246209
439.24774864,-3.997055242600129,4.920696589392,-7.733144348607986
439.749059678,-4.735588692672687,4.660166781664502,-6.310618537171758
440.25037076,-5.306199844348014,6.131666264080777,-6.573261353397095
440.75168172400004,-4.27844279685932,4.681702056563475,-7.630887514064607
441.25299270000005,-3.6324802074392655,4.984157272000612,-7.5730066328644785
441.75430424,-3.9785286795533548,5.323896500387915,-7.18927805437916
442.25060271632657,-4.9768561324303064,5.283856885824559,-6.129282998224008
442.746900724,-4.946153659630128,5.393123572758263,-6.905583664647813
443.2482119,-4.032745167710562,4.4665941428364,-7.497513239621664
443.74952351599995,-4.087072564937895,5.672793760069332,-7.255795545074923
444.25083512,-4.1692994016172324,5.0406761373982985,-6.9909881152275455
444.75214654,-5.393729551938963,5.060866773610399,-6.522305229827856
445.25345802,-4.287292507916321,4.943084695695039,-7.767302258169136
445.7497564306122,-3.6441036216960514,4.848730891081075,-6.825019259581333
446.24605486,-5.002675375547817,4.371632705192418,-6.220018995942716
446.74736618000003,-4.717752527065898,6.618578686554608,-9.798097599654188
447.24867758,-4.26374576836975,5.209566701802185,-6.992977271800774
447.749989294,-3.182404553653649,4.227750183268855,-6.3855252915631455
448.25130094,-5.603953010892928,5.920157342584462,-2.5800623745141875
448.752612964,-6.63076138281538,7.64390988006033,-6.574496883674096
449.25392496,-2.8004260098264244,4.733034778426153,-7.393817144540297
449.7502233571429,-4.966091288165784,5.640777612993819,-1.623011563814332
450.24652182,-5.931575604993663,7.388892595921096,-6.666648473637586
450.747833716,-3.1667975526730747,5.564418781214246,-7.720912619264953
451.2491457,-4.789315362907339,4.883066441819321,-1.8961180784523624
451.750457272,-5.369022677625369,6.358441393113817,-8.494198506646576
452.25176888000004,-5.4986688840674,6.226246428637023,-3.312009868459596
452.75308094,-3.587967924431772,4.452795001042891,-7.85719979406017
453.24937989591837,-5.527842167929312,6.4794696475645654,-3.448682194430906
453.74567832,-5.688635960153481,7.6316198686258385,-5.513430202294557
454.24698992,-3.2651911653367103,4.485010358693595,-7.6823922202348935
454.74830220999996,-4.998801049901615,5.287927605523609,-2.1243887154388723
455.249614492,-6.197599081343575,8.059106243530662,-6.425951716473069
455.750926472,-3.391109874285736,4.595490576834345,-8.030066492822884
456.25223851199996,-4.031290483504339,5.063097384778985,-2.0551144780734028
456.753550198,-6.064786989207106,6.6923813054739405,-6.879981304708499
457.2498488265306,-4.457676886608489,6.600727827343639,-7.477524773268534
457.74614821,-4.173660416621251,4.806554069759869,-1.9524279324261422
458.24746078,-4.715713339944956,5.681801351985865,-6.805386999495794
458.74877293,-5.764139318409559,7.747602956708546,-7.190997087374052
459.25008514,-4.297078824026984,4.972478221910265,-2.1376623774384753
459.751397414,-3.9133638598718994,4.696855996639542,-7.656785804889399
460.252709754,-6.5413571436520614,8.36877069258467,-5.988370129437161
460.75402192200005,-4.758216245002274,5.179762483800345,-2.4699603390793965
461.25032097959183,-3.618090044176902,4.292267486717311,-8.007405006763989
461.74662017,-5.5635512809415015,7.20805465381055,-3.6525281707019293
462.24793239999997,-6.132338244329625,6.6140795107616315,-4.496412801146703
462.74924488,-2.5900701920203058,4.065545983533656,-8.196974559680797
463.25055714,-6.167675258412766,6.882743986003456,-2.8256037469558657
463.75186969000004,-6.2626270658640655,6.677984029161874,-4.376499591516052
464.25318206,-3.280151451590589,4.0269715957763035,-7.933847640614302
464.74948136734696,-5.335135483771399,6.169611732101743,-2.26743412806196
465.24578076,-6.524312895154887,7.5009729470505935,-5.582607604890517
465.747093144,-3.8723224625206787,4.548147880573253,-7.769282320890955
466.24840556000004,-5.422807058210592,5.526548602169462,-2.0699913284345706
466.749718012,-6.0246861680904535,7.431665655512779,-6.015111156379407
467.25103068,-3.8742479586225977,4.368195566178975,-7.730151012180515
467.75234296,-4.397262836034243,5.144758496796828,-2.5481493260320116
468.253655332,-6.687190784823035,7.952808700037139,-5.849783668087484
468.7499551326531,-3.7603290005898335,4.817376725111373,-7.86379186426201
469.24625502000004,-4.087396639348825,4.871139035263473,-1.7829653629212046
469.747567768,-6.1090458451764365,7.040937289663012,-6.424805779179333
470.24888054,-4.608344519049322,6.062548483424898,-7.637484300156033
470.750192964,-4.078056243615656,4.812511396921796,-1.497272640062333
471.25150535200004,-4.941370319113507,5.785641619670209,-6.77429012821361
471.752818482,-5.110264526959817,7.2241170319708194,-7.694559079510931
472.25413163999997,-3.7683756647473223,4.9918736384965685,-1.712148805423823
472.7504311816326,-3.98134193670892,4.938703686014335,-7.2933341990056375
473.24673064,-5.879579535700453,7.952913618713065,-6.841939384160539
473.748043472,-4.069691185412346,5.18702170056414,-1.6277381017001258
474.2493563,-3.6392277483560203,4.696948307582764,-7.502683155575756
474.750669304,-6.000363034440238,7.953426834472078,-6.841273947027355
475.25198237999996,-3.9512993788253272,5.420973791889979,-1.5964036321037447
475.75329544400006,-3.2306442305126706,4.195218250746961,-8.118034148350311
476.2495954489796,-6.610696572698821,8.43865778610782,-5.692945988549373
476.745895134,-4.390901423031472,5.7110404309264995,-2.4225884498236963
477.24720804,-2.798549068215973,3.6005426368040947,-8.192591240778661
477.748521026,-6.036151481573952,7.798640161529307,-3.3376496977107046
478.24983406,-4.95828474830792,6.781235199629453,-4.813725723399741
478.751146894,-2.5841746672479378,3.7229871648897137,-8.00170104427805
479.25245978,-5.348703414165277,6.332481964721823,-2.655371339562559
479.75377246999994,-6.540634251390355,8.03988749225159,-4.710028186742444
480.25007199183676,-3.2123625196506,4.460597317896289,-7.874448063363784
480.74637209599996,-4.662951476989603,5.428078133577616,-2.080395016554873
481.24768537999995,-6.675207939154089,8.157074762671794,-5.798809813389616
481.748998182,-3.244061468574047,4.499553745290842,-7.82587502908111
482.25031102,-4.1021432984820265,5.340440266596788,-1.7361307314658199
482.75162413799995,-6.142963146047923,7.725324527454161,-6.704844606785568
483.25293726,-3.587582498157734,5.480592838429801,-7.511211138563593
483.75425005600005,-3.692391321344335,4.956460964337608,-1.3532473387461355
484.2505497428572,-5.113756793169983,6.779137661260548,-7.194944382061303
484.746849592,-5.203509736854808,6.938339609718128,-7.29474752436371
485.24816262,-3.8305619643959665,5.394077951134351,-1.4648553544189427
485.749475876,-3.528007761277731,4.962627563212774,-7.559180211622028
486.25078922200004,-6.000609864683779,8.623938288230638,-5.518856540350428
486.752102592,-4.9015553230843265,5.4441192976581885,-2.198481953910058
487.25341608,-2.467839606996939,4.292697462340582,-8.09152311293504
487.7497164653061,-5.618764190900656,7.689744669416296,-4.348865033628783
488.24601693999995,-5.522812815925201,6.53358820531709,-3.80755034820863
488.74732996,-2.8614343087635707,3.9270291140334637,-8.163331487205712
489.24864292,-5.593023171685014,6.49516734667095,-3.4085144364302185
489.749956564,-5.772457556310579,7.759204895901653,-5.2399357337690695
490.25127026,-2.8690369379654617,3.827771491720936,-7.82217547900728
490.75258414800004,-5.1758667847138575,6.097847126833249,-2.5479062633918463
491.25389814000005,-6.4958981408081256,7.863507184085788,-5.372409714096821
491.75019848163265,-3.3978310439934662,3.8266677028033564,-7.996210540723711
492.24649877999997,-3.9637358336431974,5.577465139103546,-2.173022074617038
492.74781248200003,-6.274918498827279,8.193552131107264,-6.286623563979372
493.24912623999995,-3.458076697220694,4.255099177226168,-7.811951449251397
493.750439764,-4.124319954022382,5.167855286117301,-2.1330399329353473
494.25175329999996,-6.453662707473402,7.686482370082436,-6.484507766921785
494.753066988,-4.11139805262256,4.701848652375155,-7.7154018792589305
495.24936748163265,-4.255180981951051,4.858438919094606,-1.6092893515210192
495.745668452,-6.013793056727231,6.7707087335306655,-6.637612688312579
496.24698266,-4.666037996023155,5.704372145513406,-7.518112713174816
496.74829656,-3.8816031010793846,4.776783840060569,-1.2360323661592472
497.24961054,-5.569518442227706,6.625189886373352,-6.434087755082933
497.750924502,-4.455434416860866,6.156897021506369,-7.771660331253253
498.25223854,-3.7917513331479302,4.918732760565194,-1.7313390329596752
498.75355251599996,-5.122274593127897,6.186757451501026,-6.779901434234845
499.24985326734696,-5.3516002658021735,7.525652892738615,-7.231141929748764
499.74615422000005,-3.7425863078771124,4.887493852809823,-1.6530070785616697
500.2474684,-5.420552604839223,6.045597806595367,-7.21101210494576
500.748782334,-5.008470549679387,7.024952325024856,-7.625072198215576
501.25009632399997,-4.206789328488348,4.3734469490797885,-1.746738650588855
501.751410508,-5.909526078580396,7.1929618302168175,-7.2006598129944495
502.25272470000004,-4.90363273080656,5.635091011149659,-7.431303671159599
502.754039004,-4.072807429268355,4.425912778227402,-0.9986834450221597
503.2503402469388,-4.7688744463295825,6.227312696422472,-7.299629878103307
503.74664151999997,-5.438930611474693,7.375247820299778,-7.5313208046561355
504.24795606,-4.292013657114835,4.806861820824401,-1.9574243024424598
504.7492702,-4.177262591437791,4.942097382797179,-7.280634142923839
505.25058418000003,-6.590764065475676,8.44627082169594,-5.318851268943963
505.75189836,-5.277131658713039,5.451359575185908,-2.816831079888918
506.25321234,-3.2300376716526693,4.534891395558034,-8.108013243733165
506.74951338367345,-5.425157108832473,5.537838425467205,-1.9859613216019125
507.24581438,-6.805964642452052,7.951157618467678,-6.225632687444176
507.74712877999997,-3.4494200423975627,4.953030930561252,-7.972974261929896
508.24844332,-4.875831996459851,4.7215208717129675,-1.4849414665782619
508.74975767999996,-5.569866226229157,6.854605525411893,-7.080059998326212
509.25107214,-4.744765877492975,6.532086815740332,-7.601760489161462
509.75238618000003,-4.356745505540215,4.708739762286886,-1.464644119382419
510.25370018,-3.528710767131217,4.389233055147633,-8.16240686480305
510.75000147142856,-6.489724102130229,8.501388770667928,-5.268073039875482
511.2463029,-4.75469903837346,5.8705056696351186,-2.851974227782932
511.74761736,-2.9337160935649123,4.374962181671062,-7.99456350251756
512.24893198,-4.454821746677004,5.828288524098969,-2.542817899195605
512.75024602,-6.154214663045291,8.517129513868248,-5.822938991736834
513.25155988,-3.2569835228342674,4.471265132522887,-8.04377994226379
513.75287452,-3.778172076801133,5.1534785020275535,-1.6137644410450358
514.25418936,-4.9945396541658935,6.891765813585504,-6.9061818114956885
514.7504907367347,-4.456401227963834,6.354140736194842,-7.796479131375786
515.2467921799999,-4.382750576414839,5.185768749855139,-1.1049849992268166
515.748106782,-3.8335042562162234,4.344668489400764,-7.664980244639318
516.24942142,-6.451822234091235,8.406667495405538,-6.552512785305636
516.750735912,-4.315687874046176,5.415559234653513,-1.4693743621567699
517.25205032,-3.4867893243876398,3.7877459723278566,-8.056339155364924
517.753365444,-5.89901126116078,8.227603217312895,-4.387335891133214
518.2496676938775,-5.278753051924673,6.111978907064682,-3.8444486751352254
518.745969652,-3.692684956215973,4.596935538050983,-8.159405840078357
519.2472850199999,-4.525062846309041,5.287653371768528,-1.9941927789563099
519.748600064,-6.777715499131989,8.146053780661376,-6.103053479868512
520.24991512,-3.284230102351506,4.5041487373302616,-8.022210738536067
520.751230402,-4.302636938240889,5.1191862750513994,-1.8510926536042218
521.25254574,-6.593701071111248,8.127467852145221,-6.336133808622179
521.75386111,-3.766738236760702,5.3056833056967285,-7.5637951455206816
522.2501632326531,-4.4516996057119504,4.939200457983136,-1.418547148958129
522.746465984,-5.084721735988769,6.866630844770616,-7.013054572145253
523.24778208,-5.327658604942527,7.008077269238828,-7.085945480549919
523.749098,-4.48109942116332,4.795467961529577,-1.050502685439434
524.250414,-3.3566202626645874,4.466710698461507,-8.354795866003517
524.751730034,-6.403323573848739,8.041442452810024,-5.5140196090983
525.253046062,-5.4309740586653685,5.084984739005024,-2.4530982381909783
525.7493494142857,-3.776477811136598,4.298981930557137,-8.087639652212577
526.2456530200001,-4.451294365993687,5.668881962465577,-2.564008791721569
526.746969072,-6.656134845419553,8.156190225644872,-6.35697498708298
527.24828524,-3.0216037232884423,4.803543430556801,-7.991592727085842
527.749601972,-4.323538385143264,5.288411403424529,-1.0134366759407198
528.25091876,-5.324115438758335,6.801323463563891,-6.841662595896398
528.752235368,-5.396349480078094,7.149247219354817,-7.1451332822105815
529.25355224,-4.813338242966965,5.2138470402025625,-1.4060017456000466
529.7498560897959,-2.920156081924434,4.0305166419223735,-8.690817058946523
530.24616016,-5.961380574696259,7.448127148315053,-3.569655903188125
530.74747706,-5.342185225027747,7.087558457744999,-4.418801286026227
531.248793842,-3.32789554707856,3.9232275622939774,-8.056443653809824
531.750111406,-4.496212228137291,5.6998958071664045,-1.9437751575088955
532.251429306,-6.378885139184372,7.786564369860043,-6.089474262022324
532.7527466380001,-3.7606396468050844,5.346958230975223,-8.094715940007005
533.2540640999999,-4.07342632881508,5.014862896306656,-1.3103720548403086
533.7503680836735,-4.136210036576861,5.3982599470578485,-7.220749736813812
534.24667192,-5.963773621166783,7.88201988727581,-6.797034378482205
534.747989344,-4.984807808086789,5.5539464078122505,-1.789167286296839
535.24930668,-2.4980291769707557,4.2478309008456705,-8.243079880628605
535.750624422,-5.5133654018356655,6.616240249657099,-2.9202341591166436
536.2519423,-5.609605566303877,8.071359756414163,-4.842154230130637
536.753259932,-3.1643452961383947,4.395682244884452,-8.109050694024473
537.2495644040816,-4.201972886800964,5.131960254910682,-2.137672383304377
537.7458690899999,-6.063529961354302,7.812795114027875,-6.264133537394444
538.24718719,-3.974314130290368,5.485604863493369,-7.809242857734114
538.748504932,-4.105613759531109,4.783117468436438,-1.7434611408759806
539.2498225200001,-5.958849390792118,6.710720752756622,-6.162058938725296
539.751140416,-5.220662550027172,6.365360238198666,-7.564010062687572
540.25245852,-3.7047149934121766,4.711675876144017,-1.6199122911165784
540.753776332,-5.68837900829484,6.596345645436584,-6.489468717395368
541.2500808918368,-5.171352997584995,6.241402833733966,-7.6204995426657165
541.746385496,-3.9032468241116014,4.850860032446595,-1.5057741080477427
542.2477031999999,-5.451360893541753,6.002029051526338,-6.490124853568434
542.74902128,-5.563904092041086,6.729123379760705,-7.53489144395549
543.25033956,-3.7616458290482546,4.585644769403077,-1.5698137525015738
543.7516575,-5.871221479527404,7.3183644228073765,-6.281093393475325
544.25297546,-4.374356258799958,5.731593008919109,-7.423842494792115
544.7542933919999,-3.5730729955671383,4.831050888311486,-1.93857853618628
545.2505980857143,-6.336958272228802,7.398191861927228,-6.268829116530404
545.746902972,-4.135929042742176,5.608536368018665,-7.782816012655652
546.24822108,-3.716748916918387,4.943044170042809,-1.6648703812167605
546.749539032,-5.265384078809584,6.990934263095715,-6.2803467298666655
547.25085686,-4.6347155913742135,5.8607677321897595,-7.630132769082575
547.752174888,-3.8144121400210067,4.853975769720688,-1.5822469130868624
548.2534929,-5.159575927424232,7.146791536920719,-6.428096323057175
548.7497978795918,-4.632749512998348,6.130317789339291,-7.669584630452929
549.246103,-3.670577134553479,5.387946218131283,-1.1823181863454821
549.74742101,-4.199692732997103,5.186012075095591,-7.078138221991513
550.24873888,-5.332123781707703,7.824281845397785,-7.249038543844018
550.750056916,-4.060754486594315,5.223409045026607,-1.2067009621233509
551.251374924,-3.784512783881869,4.465494982219826,-7.484698321593145
551.752693218,-6.614840972481533,8.558751464564573,-6.150780780905567
552.25401188,-4.558800869989253,5.178733686949536,-2.1583677696863295
552.750316922449,-3.3591020815922277,3.7241359773701586,-7.921458752296522
553.24662196,-6.211165028345834,7.743770253389744,-3.422057561016681
553.747939954,-5.0942477609967005,7.05078625936235,-3.9810139389958055
554.249257766,-2.919716197941714,3.510941641289423,-8.049076320788668
554.75057596,-5.431076808486297,7.134022989329335,-2.3114570543494146
555.251894164,-5.593830136567774,7.713177869496236,-4.5484834121470366
555.753212362,-3.0453752531736638,4.0044442982220305,-8.07918870152736
556.2495173734694,-3.804434942889441,5.4555862084221,-1.7645098307410907
556.745822332,-6.1574696794646275,7.9550144539399,-6.04657189448506
557.247140144,-4.684705939607908,5.952751647569421,-7.79635761232231
557.748458694,-4.524809899855756,5.030698903993327,-1.6626109549602206
558.24977758,-3.968927557202579,4.874211074510059,-7.023046118998668
558.75109576,-6.46869858952633,8.448250244074993,-6.372564448145031
559.25241384,-4.6601004428969945,5.235353133091257,-2.3914760103530663
559.7537321,-2.5866115252017887,4.554177571790838,-7.8991889064635314
560.2500372061224,-5.599755781595233,6.839738632072373,-2.770260774600454
560.746342312,-5.793047743465823,7.767376796323504,-4.651483528944267
561.24766054,-3.167805945867782,4.103299600150562,-8.209133082571624
561.748978748,-4.617709959434746,5.55011475705137,-0.8236627715561329
562.25029682,-6.357632531157999,8.619466218462204,-5.740729684808421
562.7516152000001,-3.349411732336299,4.657102554139903,-8.129120640341679
563.2529336,-3.5910572965779313,5.103849090588855,-1.4441743316282443
563.75425225,-5.030235161734973,6.044511445020131,-6.861751003309704
564.2505578591837,-5.777181985680799,7.18894880302294,-7.056926178510733
564.74686334,-4.149722656645103,5.620268308699691,-1.9135749815985386
565.24818232,-3.2133479441936466,4.335107207475844,-7.632026425334462
565.749500816,-6.294983854109233,8.347390880483903,-3.560719738317262
566.2508192,-5.108479489054738,6.674578596140576,-3.895452212168548
566.752137804,-3.2043324488637936,4.168673348970048,-8.042563443627003
567.25345638,-4.456093191089121,5.480319073337403,-2.1276810963197517
567.7497617061224,-6.082239562999145,8.17056066959895,-6.154941263367629
568.2460669,-4.061478923439488,5.25025182946385,-7.8763325236627155
568.7473856060001,-4.1071496645935,5.226685704522555,-1.2239924344995847
569.2487044,-4.028381571246644,4.805881792546191,-7.494839717438151
569.750023176,-6.090355136497817,8.569069969100928,-6.168151008768371
570.251342044,-4.354194692087937,6.026658863979032,-1.7785836646996083
570.752660882,-3.214873719078658,3.8591051996552532,-8.01281910024291
571.253979986,-6.109672115341372,7.346899637133184,-3.296003238512733
571.7502854959184,-5.59751028840587,7.812208427970087,-4.128407274494593
572.24659088,-3.9425382959229127,4.455597594487493,-7.756894998219776
572.747909544,-4.081587260865515,5.996083560025573,-0.9928987184960374
573.2492278999999,-6.130510149659764,7.824622620827972,-5.6727843416569455
573.75054696,-4.51816575062273,5.790051091353637,-7.891033522074062
574.25186652,-4.274371138659312,5.461654273602167,-0.9576195460299836
574.753185098,-4.563048967706163,4.8226066244038215,-7.364579178862576
575.2494901367346,-6.435553735807503,8.302443589135489,-6.131370559952457
575.745795668,-4.473880730218098,5.856610645710963,-1.767442833503637
576.24711438,-3.4878885059285443,3.4553007783287377,-8.141143171797689
576.748433264,-5.989161845690905,7.03390051848992,-2.679610913023285
577.2497524,-5.512245095705233,7.462162478216331,-4.4970443417551555
577.7510712139999,-3.4035926844129447,4.7754457537871,-8.073354286437528
578.25238994,-3.8511372269721744,5.251979302937273,-1.4663549680924164
578.753708794,-5.765162613478137,7.184591164228387,-6.738479036228726
579.2500143979591,-5.063100925068543,6.148042812323324,-7.6276240446154775
579.74632027,-4.421884737426351,4.8324114451814,-1.157462239065259
580.24763968,-4.038638062927283,5.165132671282309,-7.294125792044364
580.74895844,-6.906795135393776,8.167170060605711,-3.8012132122733253
581.250277,-5.512136597126966,6.531429501070678,-3.332354137252903
581.7515958079999,-3.6554667290178515,5.014160442485008,-7.912413640175041
582.25291456,-4.486990235763007,5.421380594581084,-0.9562343971402187
582.754233528,-4.678593546911537,5.407463451240559,-7.14777693235333
583.250539155102,-5.893544836333258,8.686528768066132,-5.390141817773947
583.746844952,-5.41426948676847,6.066887014954115,-3.3490680856458197
584.248163866,-2.7564466071853917,3.8769423153267737,-8.317359886697494
584.749482412,-4.063819590413387,5.940949366895304,-1.4634790713295078
585.2508007,-5.25591161976825,6.917717812072218,-6.728786267890059
585.75211896,-4.786779484276417,6.918917704094106,-7.67987475724084
586.25343708,-4.177818215549522,5.275900443588125,-1.5087247240857287
586.7497419795918,-3.880224720739429,4.367997725392343,-8.05560731528696
587.24604704,-6.169077181816326,7.647543138300221,-4.140124901428898
587.747364898,-4.8408271328742,6.776081399146759,-4.172917844887217
588.24868252,-3.2670928323041153,4.75667200845669,-8.100963523636802
588.750000156,-4.218101119456865,5.223862897387867,-1.4809425955083417
589.25131764,-5.654446896712335,6.756586364505174,-6.640549105520552
589.752635262,-4.712832139859738,7.1101070830675885,-7.517432861335193
590.2539528000001,-4.472705659667272,5.41366567559237,-1.0657867368839953
590.7502572285714,-3.116416028813728,4.371700922422494,-8.54800623523163
591.24656152,-5.878938411900343,7.162926030508052,-2.957449924526964
591.747879292,-5.532856315997265,7.745103733739054,-4.694551008676058
592.24919748,-2.9831515275642926,4.365140903096861,-8.142939931002468
592.750515062,-4.1736495076424776,5.377501621824945,-1.619808649180246
593.2518321599999,-6.182841133641212,7.670768010628904,-5.949050635900205
593.753150212,-4.674107617108349,5.952894597343204,-7.825784538351716
594.2494554387755,-4.266748733954368,5.352318652475351,-1.1208062584012382
594.745760266,-3.961719585876656,4.530165681068828,-7.321155668654422
595.24707834,-6.483739415749951,8.514100464696682,-5.663366335746624
595.7483967339999,-4.67981643717504,6.239492734766572,-2.2549545850773622
596.2497155039999,-3.1784576875621946,3.7070519075888244,-7.966705138050958
596.751034006,-4.694061175760508,6.510298275839616,-2.312432084827281
597.252352626,-6.091450393012162,7.92022998616746,-5.211833122457266
597.753671096,-3.384390546386931,4.416154111952132,-8.068849050542656
598.2499758979592,-3.802414806673463,5.384153389057996,-1.0738753438104796
598.74628192,-6.041953725152148,7.632516798063625,-5.712939160323592
599.2476018,-4.477702379923573,5.354881087926364,-7.984273489388099
599.7489212199999,-3.947214464716587,5.168528394785916,-1.0127369009177443
600.25024094,-4.692573032873807,5.68097233877037,-6.984049178659035
600.7515605,-5.725070551416434,7.409849387931263,-7.039537430562636
601.2528801,-4.178894601997973,5.261853165070695,-1.2108420565608282
601.75419999,-3.4767706469038626,4.0244630168348445,-8.083569342552074
602.250506522449,-6.7765381476562645,8.929161130440486,-4.243488854773633
602.74681392,-4.270997094727612,6.5455422128797265,-2.95264914292748
603.2481352039999,-2.9561780906886788,3.7258783992345177,-8.190964087247881
603.7494560060001,-4.306405268359212,6.461757453478241,-1.9675448033807315
604.2507768400001,-6.189926350958193,8.193075851155431,-5.615147247344667
604.7520981800001,-3.464638044246075,4.711953581597982,-8.065196642035126
605.25341996,-3.9915197576164547,5.044637902486584,-1.29289508394315
605.7497284816327,-4.895941928137186,6.313241526474187,-6.929916141522442
606.24603676,-6.014024505492683,7.842067172500464,-6.7321922871371225
606.747359214,-4.840517963882892,5.213877791846378,-1.0827950807692366
607.248682184,-2.8768089958685756,4.161676069517646,-8.208017999204422
607.7500051080001,-5.8630019950983465,7.7358644569281365,-2.9729828188414196
608.25132824,-5.384944505946919,7.285136006810342,-4.397171088277857
608.75265186,-3.2861258874713855,4.756229222500263,-7.802514318140478
609.25397592,-3.9378387876300343,5.618842351471517,-1.9325404875945664
609.7502868938775,-5.560923794629836,7.366197487984357,-6.305273250625289
610.246598248,-4.81326259873653,6.769293193943589,-7.720019367247216
610.747922914,-4.2309196183335045,5.623165144988054,-0.960022022097786
611.24924748,-3.6988481400490447,4.161780445285338,-7.950809155435482
611.750572934,-5.639472514000902,7.482193688640624,-3.23850122138366
612.25189884,-5.49639257089966,7.753982229143665,-4.493178260197751
612.753224748,-3.505308603915933,4.819626820526759,-7.99651395898526
613.2495374959184,-4.328755555870708,5.216163330963015,-1.3838014981741515
613.745850864,-5.113210758027104,6.310971187008663,-6.805406021177853
614.2471777200001,-5.4298335170525975,7.931646363488113,-7.252394726770913
614.748505112,-4.203094282456053,5.259646726548857,-1.6667459373552262
615.24983308,-3.020204987046337,4.262831956573564,-8.17913833193989
615.751160928,-6.087631365931731,7.9441360079214185,-3.4301650949511258
616.2524889,-5.298709575804388,7.1429461715749,-4.207645321731701
616.753817688,-3.9321954804107744,4.278932059596127,-7.870952640273691
617.2501339020408,-4.392654567107429,5.620661283878023,-0.6051316583604865
617.746449808,-5.829847312722786,7.714283931289528,-6.1371004908091935
618.247779368,-4.712877113513176,6.110666417354724,-7.912422692729735
618.749109098,-4.290143217512841,5.494989551371449,-0.5006820664725666
619.2504390199999,-3.0196377307927844,4.143362228926224,-8.35701502129327
619.7517694080001,-6.929492136265732,8.454373329308005,-4.06088392160043
620.25309984,-4.828395891839589,6.348718886371862,-3.544216124061488
620.7494176020408,-3.2587459672841286,4.310821035201753,-8.058994465622398
621.24573574,-4.277494768674313,5.970910565673237,-2.040432733747463
621.747067644,-6.0972995894292366,8.122598420620111,-5.73019390002406
622.24840052,-3.9942223480950965,5.4927558913285965,-7.755642050318406
622.749732936,-4.184668538625022,5.217633781783155,-1.535940083407827
623.25106542,-4.286021873232961,6.1509584011860206,-6.562877936417614
623.752398614,-6.265986486719361,7.858563338507821,-6.345013958302213
624.253731826,-4.371669243510696,5.995125694221457,-2.244274672115006
624.7500523857143,-3.8618098359144164,3.8994695558151857,-7.702883695086563
625.2463734400001,-4.742364310366956,6.760326924544339,-1.988501405571919
625.7477080140001,-6.325225188002638,8.16540678362005,-5.021895151749791
626.2490430400001,-3.6705463444116107,5.164670664571221,-8.055076455344755
626.75037824,-3.8281593416192528,6.180939628396882,-1.013063400870677
627.25171342,-4.568667916592078,4.243380366401204,-7.467378171837945
627.75304942,-6.704525631649561,8.076254543045192,-3.4541225234421504
628.2493727142856,-5.030971473191105,7.855794078621029,-2.9943834911057596
628.745695886,-2.9792778958408506,4.732498094790209,-8.981521446532815
629.24703276,-4.5384948514154475,6.339267454556113,-1.0946895696815124
629.748370114,-4.159110083113511,4.587062510265046,-7.298761081099665
630.2497077200001,-6.0109527804942715,8.192337997357418,-5.838624215196773
630.7510455099999,-4.880113519876189,6.336874355804106,-2.932342999417102
631.25238318,-3.3829422478684283,4.454854677304828,-7.9657050572968835
631.753721608,-4.09258639334885,5.121347895462569,-1.952683766024359
632.2500472163266,-6.034671022656967,7.825299120533436,-6.002078258423968
632.7463729440001,-4.601817566248588,5.853845246169211,-7.856787373495488
633.2477124000001,-4.123700549236407,5.348870944437249,-0.7330019894612849
633.7490523280001,-4.11045876418115,4.459315089316588,-7.827511315883445
634.2503927,-6.103890139786329,8.824679819213559,-5.249029248692412
634.751733144,-4.597199607811614,6.048336132528589,-3.1580993775606863
635.25307374,-3.6173401915239447,3.72382464799517,-7.795663664766091
635.7494015530613,-4.095073616923832,5.998048654185466,-1.8833267554767728
636.24572984,-6.355323842744292,8.155987951286715,-6.312861232319742
636.747071828,-4.668640009141942,5.297771038452954,-7.809487424645412
637.24841454,-4.6879322967973085,4.974786333562668,-0.8011151701772043
637.749757164,-4.590063644016943,5.134763368243719,-7.0354951850161065
638.251099944,-6.952477612213497,8.183325019280042,-3.875261282980725
638.752443232,-5.834638676548601,6.281427908742793,-3.7382586955876955
639.2537864000001,-3.831029866207599,4.609023587997535,-8.181566510021726
639.7501170836734,-4.978692894698967,5.943997429623202,-0.6154653415409095
640.24644862,-3.838619161567329,4.985100382656872,-7.524080372418277
640.747793176,-6.294185787134697,8.149766971040302,-4.80077738541609
641.249138,-5.387325556052124,6.0867143413563145,-3.7820134098471323
641.750483232,-2.5989891293756653,4.206339900699844,-8.194654873317479
642.251828924,-4.059513394185492,5.8062500708621245,-1.526193432463195
642.753174784,-6.082551165100484,7.862178653262961,-6.418167223584802
643.2495074795919,-4.233973066746289,5.462269372075151,-8.388902174128301
643.745840494,-4.20792840660172,5.329566510021415,-0.6695581773104743
644.2471867600001,-3.6061502487877233,4.5015471493675685,-7.836557579160241
644.74853379,-6.044591526572146,8.508405221786598,-4.5380027059366315
645.24988164,-5.062154239070028,6.32106125077151,-3.0030485959193696
645.7512291959999,-2.9909295462207632,4.488672555190168,-8.144961815133772
646.2525768,-4.262733542189699,5.7362073094216735,-1.9318651402679163
646.753924856,-6.194188623550133,7.748651252310987,-6.2719014713273715
647.2502600816326,-4.3845428149260215,5.472171053026337,-8.094932769754148
647.7465950999999,-4.400931732467942,5.060492381851127,-1.0890346067221874
648.24794362,-4.189826170156961,5.460460283513417,-7.1852564265529795
648.74929292,-6.277127428885473,7.810770598798651,-6.494793126236471
649.2506425,-4.389578663193014,5.566138675863786,-2.1359025168203
649.75199211,-3.113261358066682,3.726891744964949,-7.839997316323211
650.253342762,-6.244268003014841,7.677983635927636,-3.6200783979034186
650.7496797163266,-5.4503171084968285,7.291302021776417,-4.176962381256852
651.24601724,-3.329361517417917,4.262872309038477,-7.878038753814352
651.74736833,-3.9310234763639493,5.6758532959753545,-1.69097923380075
652.24872008,-6.555273444811482,7.914324556684147,-5.89013141869184
652.7500716239999,-4.470639318796467,5.321847129383011,-7.8628196974851745
653.25142338,-4.0297448260432045,5.3893355117821375,-0.6111187406637472
653.7527756000001,-4.538781772045027,4.994398141955241,-7.11849804193093
654.25412806,-6.189116219271108,8.32987046655225,-6.879322628518927
654.7504674571429,-4.527465781764442,5.511300732420716,-1.4687426389766418
655.24680736,-3.117549442081237,3.7990302737175496,-7.748891616553761
655.748160944,-6.376355887131934,8.46840294387669,-4.082405920031504
656.2495146599999,-5.1194923555714515,6.270492937403488,-2.9743821719699266
656.75086882,-2.9566118168302062,3.647556317044246,-8.119740441825712
657.2522228800001,-5.033733638873277,6.904129343638561,-2.118307822401367
657.7535777,-5.439129786050286,7.916331005768396,-4.779039128335525
658.249919,-3.236261155050983,4.300057943549733,-7.99025843795239
658.746260806,-3.9150475497165225,5.709723231966999,-1.8810871700346192
659.2476166600001,-5.987311332794209,8.441882892724012,-5.724012569005868
659.7489724799999,-3.5466684359765672,4.519278530953815,-7.950004928583164
660.2503286199999,-3.665671923789061,5.378828414549164,-1.407388037548134
660.75168504,-5.4366352848269734,6.650692151010122,-6.428777862291725
661.2530421600001,-5.045313978722316,6.747707867015886,-7.62465784329755
661.7493855530613,-4.21831052845569,5.141697021754842,-0.9338652329471281
662.245728906,-4.116839169197905,4.797962329849101,-7.337921803659965
662.747086424,-6.671209452281732,8.485531144333681,-6.187026843095164
663.2484439,-4.704173013155101,5.0969811591625955,-2.204729230095815
663.74980194,-3.422826173751779,3.8937636716061985,-7.647305102011875
664.25116072,-6.2363413013303814,7.692988428786371,-3.0523438063561934
664.752519248,-5.240291813429779,7.086196461947991,-4.479250353932431
665.25387762,-3.1196045128635377,4.3384060566700455,-7.7595819020931955
665.750223065306,-4.156713056956364,6.12339264344982,-1.5731753206943182
666.2465686600001,-5.965994741953252,8.112301814158139,-5.913865161690537
666.7479282319999,-3.7031298620192956,5.842692910517141,-7.865378367041701
667.2492882,-4.053751126228061,5.36770428730029,-0.5140391351278144
667.750648278,-3.8533425088390345,4.9942145401205655,-7.6189300355431735
668.25200882,-6.6278059713988355,8.756109246301502,-5.662894732011449
668.753369386,-4.67069549585575,5.449021323751565,-2.751155171121651
669.2497166530612,-3.2967307387530376,4.161521546634881,-7.969749948738047
669.7460640740001,-5.076130274149466,6.530932279142104,-2.3756651846238945
670.2474252,-6.466204769652651,8.205812634793961,-5.568209623846457
670.748786718,-2.9369806216636185,4.17239536215195,-8.155342216011368
671.250148732,-4.0818988570569665,5.29996807382824,-1.6003517211218081
671.751510554,-6.178729727298841,7.365524340534071,-6.604543632748041
672.25287168,-4.556099238382701,5.737936000096756,-7.796022556366569
672.7542341479999,-4.245611142640943,4.819964594976506,-0.8605880773653638
673.2505839408163,-4.828967063203208,5.527272452852673,-7.185512195222652
673.7469332439999,-6.5801700185074115,7.5880446655639435,-5.798491644926547
674.24829606,-4.8337566987756615,6.048597418621444,-2.090876173124353
674.749659508,-3.424512581100663,3.697000889273015,-7.846591479642575
675.2510233940001,-5.081543082013182,6.698102696877004,-2.0235219667876367
675.752387334,-6.269293342956698,8.355737938639585,-5.270492959787009
676.2537514800001,-3.001406296089534,4.462491936865227,-7.878171464050062
676.7501023061225,-3.9530067531321342,5.62776465831106,-0.8218619560540078
677.24645318,-6.450263659239735,7.2761205111596094,-6.052683683574039
677.7478181280001,-4.430928319275498,6.373688427107965,-7.709354275389294
678.2491835799999,-4.0660105536074065,5.498299913657469,-0.964921335731063
678.7505491239999,-4.301430009143945,4.726094500321207,-7.027367822256298
679.2519150200001,-6.4342761380762035,8.400463772963322,-6.176113274586853
679.75328108,-4.492180686573646,6.205759065189702,-2.12885019090127
680.2496337061225,-3.7933226857339744,3.7164800527443487,-7.684164245214037
680.7459866859999,-5.698267767516146,7.613058618511528,-1.73648088969907
681.247353406,-5.79908766410319,8.09865879602442,-3.813664561758946
681.748720496,-2.537080316781633,4.3604003061905825,-8.68922346593431
682.25008754,-4.512809600802169,5.643875782810052,-1.1051597121969539
682.7514551639999,-5.449048868121607,6.955349642565328,-6.667009379710898
683.2528235999999,-4.84516004865096,6.867755348929855,-7.488330540943533
683.754191896,-4.394685957210406,5.10342367259432,-0.7805410313071426
684.2505468183673,-3.8773898740650545,4.567747098472512,-7.7393023220333355
684.7469021620001,-6.729809936532039,8.635815942098843,-5.975624337535212
685.2482717800001,-4.7487146918880745,5.328412846246787,-1.9721932963854791
685.749641618,-3.2718539912555826,4.039167088710716,-7.795592208540554
686.25101178,-6.106659989192524,6.988436891656345,-3.0371909250569487
686.7523824399999,-5.504208538969106,7.4688105491607715,-4.8899850954137705
687.25375346,-3.602155459225837,4.650531635095393,-7.963810467232824
687.7501111714286,-4.251937756927897,5.114044985339768,-1.2612894033214943
688.24646943,-4.807206026286637,6.202161563754368,-6.938037482697825
688.747841472,-6.239668743211979,8.155907784289031,-6.623687355411218
689.24921314,-4.523981572874477,4.787022112955945,-1.5030878442510485
689.750585904,-3.5523377667632237,3.7440785698107537,-7.805045391823011
690.251959142,-5.930629572400233,7.546950487968101,-2.4704158584684754
690.7533325100001,-5.619497177497758,7.80370965610535,-4.465694794071892
691.2496925938776,-2.925657182055901,4.96154956308689,-8.037438655653434
691.7460528400001,-3.9177076089292626,5.537712262183812,-1.488616687496134
692.2474267399999,-6.036107917169328,7.634184836096441,-6.320237799323423
692.748801468,-4.413410944163687,6.296346061454596,-8.053009327439094
693.2501764799999,-4.651664255136682,5.223228362824252,-0.9933192399373846
693.75155187,-3.4677925738874094,4.5004828165133395,-7.668411410780721
694.25292766,-6.740794710147892,8.823710400433676,-5.196359217546876
694.754303334,-4.408063696710665,5.855415964857017,-2.8758783824804097
695.2506652632652,-3.2495288806104075,4.107441059718247,-8.182806056762928
695.7470276600001,-4.1146007741093475,5.54804538832685,-1.503356898064134
696.24840372,-6.350641709247783,7.17987155828346,-6.3543199815691995
696.7497805,-4.1113374119620545,6.090507282561045,-7.783578300117397
697.2511582399999,-4.187289762565412,5.174809724190871,-1.1302345706605033
697.752535598,-3.800842310639804,5.506220308662257,-7.490010045237788
698.25391218,-5.593863034971271,8.393876579059848,-6.51675186571868
698.7502762836734,-4.711960141550775,5.5820526495964184,-1.7732905778875847
699.2466417400001,-2.960134460427152,3.7196801717662873,-8.161214070826338
699.74802008,-6.230160030677672,7.732038413405914,-3.1298749351129818
700.24939862,-5.095184742321279,6.872814689785075,-4.246475007952618
700.75077746,-2.8056683030985994,3.815861989690057,-8.060953938526685
701.25215566,-5.4793132805880225,6.48223483336032,-2.1310494156005326
701.7535349999999,-5.561882459839572,7.778861463710386,-5.262209500064042
702.2499009306122,-3.3045164289474895,3.923004628224081,-7.990553708109383
702.7462669600001,-4.324234709856375,5.530633724574109,-2.1259515091016485
703.2476469,-6.671575118140437,8.323523902359561,-5.4480056611551015
703.7490270399999,-3.8838169334961865,4.143018902521901,-7.590798858005069
704.2504079,-4.121163417550817,5.74731867401341,-1.6128610295033017
704.7517883800001,-6.482361986396999,8.278879637009634,-5.170996031191132
705.2531684,-3.5447731980528747,4.158853240432071,-7.924708160194641
705.7495353387756,-3.9699948485662184,5.685046302492343,-1.5051872818312555
706.245902714,-6.279919030585083,7.977623024317065,-5.493311299781482
706.74728374,-3.7063205280064375,5.339655172697365,-8.027390868559781
707.248664842,-4.06462143716653,5.148553398359124,-1.2480791352141605
707.7500462,-5.807043821385255,7.183200929464042,-6.131551241442228
708.2514277780001,-4.741218833957399,6.099822511815364,-7.614395670482345
708.7528095,-4.085542862015765,4.985701825912073,-1.403357716706148
709.254190732,-4.436292632353354,5.802426725673498,-6.727210175825514
709.7505588551021,-5.933127893887707,7.800181244968192,-7.024488817813801
710.246927612,-4.345141226708501,4.9990078374300815,-1.0919745483008563
710.74830994,-3.335708217786757,4.438468000167205,-7.75418691134273
711.2496928099999,-6.394879545625005,8.799032560978432,-5.410499207415976
711.75107544,-4.707428521503608,5.762278455880436,-2.568297307982373
712.252458612,-3.3570797853571435,3.880479690227887,-7.761332158184377
712.75384142,-5.258220833675236,7.058325892622618,-1.8491719425258981
713.2502101346938,-6.185623962379983,7.802126953570458,-5.340274893346918
713.7465794000001,-3.779937149359213,4.689202532511521,-7.6277532809606035
714.2479621159999,-4.045356999554445,5.1655516645139805,-1.2380656133176515
714.74934534,-6.005660899012015,7.309779047645205,-6.513183000725791
715.25072924,-5.013627646996048,6.106448471615854,-7.590682961496221
715.75211284,-4.19896938414574,5.441239993128906,-1.2086550975810804
716.2534959559999,-3.7911356635658198,4.3956356523043,-7.522696842154857
716.7498657632653,-6.7726988219751245,8.624143483147098,-4.7780855508912685
717.246235784,-4.636287327161964,6.228461188244963,-3.213100627079578
717.747619504,-3.28933191340706,4.20088481901767,-7.870249710024009
718.249003412,-4.19595557203183,5.871577471283063,-1.8242662508527414
718.75038718,-6.0798989142287745,7.334593668057848,-6.196889164762212
719.251770296,-4.914947806985217,6.120000826224043,-7.2194678156945455
719.753154204,-4.855884321949065,5.469505985280194,-0.6637808006225324
720.2495248081633,-3.260784249006038,4.745260574225243,-8.323700036100794
720.7458950800001,-5.789488644083998,7.580609702681699,-3.717691154814397
721.2472791060001,-5.633796019728757,7.438238508681436,-4.447556100009937
721.7486633200001,-3.4877479756161716,4.00090395501946,-7.876387387263004
722.250047224,-4.526772353187076,5.594425155135094,-1.8658321636081099
722.75143156,-6.465538896046524,8.487769123870729,-5.925221464948911
723.2528165560001,-4.377741936908482,4.451702821566383,-7.586450064550043
723.75420112,-3.31574088375715,5.383113822374239,-1.643752520812115
724.2505724387754,-5.51445459076984,5.8627610795461695,-7.03960757363431
724.74694332,-6.419726166510282,7.344892380464748,-8.88153951226132
725.248327952,-4.433110294607113,4.369337044124071,-4.811282582039499
725.74971284,-4.293687901235723,4.6171835146104065,-4.999757299581734
726.2510973359999,-6.217741189865487,7.089771312284085,-7.002713198595293
726.75248242,-5.503389584747038,7.424719877176841,-8.428516921088956
727.2538680900001,-3.721010457789764,4.26217922146323,-4.423262289588675
727.7502395918368,-3.929824497643441,4.960444362633459,-5.1963882848074485
728.246611348,-5.978680644376701,7.003720202444562,-6.782511598114489
728.7479968399999,-5.806224181034666,7.194610910347522,-8.42406985921908
729.249382212,-4.370004015429381,5.073731404269055,-4.868846747163066
729.75076786,-4.722088804016412,4.928719097336367,-4.863005654368488
730.252153674,-4.6550986564883585,5.361871978087305,-6.291344876057277
730.75353938,-6.559072774508223,7.10464909122349,-8.064203817674363
731.2499114918368,-5.029277241065939,6.000830533402265,-7.443723007586925
731.74628346,-4.570991326253712,5.263848449665083,-4.918927524423598
732.247668564,-4.106274551208487,4.778590813007977,-5.023008047678288
732.74905438,-5.175423711174993,6.412027891069037,-6.227492081267899
733.2504406280001,-5.618155007324685,6.457349347275665,-8.895446618005694
733.75182658,-4.752634320460913,5.867014185408862,-7.813699576075047
734.253212138,-4.4319548891897,5.497965360687596,-5.001450895087676
734.7495842122449,-4.375031597760635,4.195952890596119,-5.430345783848687
735.2459560240001,-4.320698596622558,5.725969510995172,-6.2215130036338415
735.7473419600001,-6.0306479089341,7.154276333160185,-8.955630921430043
736.2487281640001,-5.5196799165451,6.285274488340508,-6.840600921266739
736.75011424,-3.306633337667644,4.015677465776494,-4.4790065846481015
737.251500084,-4.74930293689332,5.099309485156918,-5.170217463134826
737.75288624,-6.37357410744572,8.21316023662652,-9.149415411641918
738.25427288,-5.291124823139651,6.0334405970954945,-6.653224285078251
738.7506452918368,-4.01593471497638,4.119116521446917,-5.069162214614836
739.24701795,-4.054690467399932,5.146988565325632,-4.940133173157881
739.7484042399999,-5.149718174794913,5.609867560062575,-6.9490415241983
740.2497907119999,-5.949299565597417,8.069548832622878,-9.25702978242061
740.75117726,-4.020846891328766,4.649520668264255,-6.222021103673112
741.252563514,-4.6534072071768895,6.030688342883406,-1.7930361983076453
741.75395024,-3.3515720461640477,4.992088916542801,-7.266801118352547
742.2503230979593,-5.762758422637166,8.220746233022316,-3.226010906277069
742.74669608,-6.116810538164048,7.554544978673058,-3.873521638602534
743.24808281,-3.0627233640004574,4.529039197524752,-7.743006627224286
743.7494696,-4.394880386061666,5.968109859883493,-0.8566708964729913
744.25085658,-5.071287976587329,5.789544160206499,-7.132614952992152
744.75224342,-5.678389441188671,8.374677564939956,-4.300576850582815
745.2536304,-3.0020864801555627,4.955875739641861,-8.334335598428646
745.7500033081632,-3.8863843498832424,5.558356741738041,-1.2555846677238613
746.246376478,-5.44538559424181,6.981420529533957,-6.222779590493917
746.7477631879999,-5.731222097049132,7.640208155399868,-7.277478660013019
747.2491494620001,-4.9858415861288075,5.368846722110641,-1.5930347076867122
747.7505361079999,-3.069870853910303,4.281666255298813,-8.171814935318187
748.2519229000001,-5.042061761603615,6.603899181008475,-1.7315860039767832
748.75330952,-5.649080426321866,7.790676370027467,-5.916275371230687
749.2496817163266,-3.877926708641032,5.538184826481858,-7.8256055766235315
749.74605436,-4.355447744373006,5.565769059643298,-1.328964956861242
750.247440988,-3.8725371509071023,4.827030094467786,-7.624341869434988
750.74882744,-5.957608217555181,8.47712683528635,-5.0176251687802225
751.25021394,-4.790762226130766,6.313468134623062,-3.212357751422758
751.75160034,-2.9672723397649263,4.369036926674334,-8.187950529914175
752.25298678,-4.488960823861601,5.85242864421919,-1.952308966092826
752.7493593775511,-6.49766926676734,8.417722015748723,-5.821991605839089
753.245732252,-3.6973292340629946,4.775647421442216,-8.100058259084175
753.7471187,-3.632749612249296,5.0469608180109695,-1.266705376500706
754.2485051479999,-5.61174741168993,6.8967060673929765,-6.357917575331937
754.74989142,-5.058985796088989,7.012177679507772,-7.373960470322702
755.251277708,-4.250130595378008,5.062855025128325,-0.8409657334755762
755.7526639600001,-4.151318829767457,4.860766159932105,-7.0989821982173575
756.25404966,-6.452471357872387,8.873384259349407,-6.3906461151988125
756.750421844898,-4.311765156665418,5.1375268433113845,-1.2464458160538847
757.24679361,-3.637030158590314,4.25560468598995,-7.661284237369257
757.74817954,-6.628917384348308,8.851657127426217,-4.022009138446745
758.2495664800001,-4.612896649313547,6.121903547211733,-3.001450534948462
758.75095256,-3.230478947334944,3.634622689757718,-7.8392436860622885
759.252338432,-6.621940016134111,8.208552583498044,-2.8977971295900318
759.7537243600001,-5.008592691945835,6.702167782023706,-3.8466938580978507
760.2500963387755,-3.2364276872351394,4.208139760018082,-8.177864517412283
760.74646836,-4.5782421345808935,5.981727805863118,-1.5509767909392236
761.247853824,-6.557218971985864,7.83094345972751,-5.526167506186722
761.74923962,-4.1191069733750085,5.068083475537951,-7.6141005533427935
762.250626168,-3.9877905335434125,5.259741660584759,-1.0681699755564147
762.75201212,-5.611821866611798,6.446159735489516,-6.276986537176516
763.253397404,-5.88698070364267,7.062789076735924,-7.288979980321548
763.7497692530612,-4.217009782214228,5.30620889840338,-0.9080245112611233
764.246141524,-3.5304656204454274,4.022134769393927,-7.711531427399454
764.7475272800001,-7.027808605986202,9.038879970979108,-3.974702161874565
765.248913172,-4.5113763490535215,6.205161043033867,-2.9036694907588902
765.7502988800001,-3.4692696492655997,3.497539209181493,-8.031164500692839
766.251684328,-5.150973159144339,6.409087556301605,-1.4004689713275633
766.75306996,-6.213718499285204,7.797829223376533,-5.993108524469068
767.2494416285714,-4.290708165708438,4.957437767047573,-8.009572852579737
767.74581334,-3.8049440378695727,5.506824506531533,-0.9138967948545634
768.247198564,-4.62198516616665,5.790649532504374,-7.159365903798263
768.7485839999999,-5.957273123618761,8.402309387445165,-6.39167756136184
769.249972364,-5.2089797978583015,5.310351340833556,-2.023932267415789
769.75135828,-3.0241905871764425,4.319276372058008,-8.299078705673809
770.2527415500001,-5.5806748971557125,6.539770397909394,-1.9611672473676498
770.75412656,-6.213428011530525,7.832476974771461,-5.787941489314232
771.2504974979591,-3.0465119816506165,4.488492870915578,-8.06603307799834
771.74686886,-3.9579933997967163,5.443787250681299,-1.3572257966840897
772.248254016,-6.145198022831671,8.035019826324165,-6.076173280671056
772.74963922,-4.171465077849166,6.4948613047862525,-7.607235312726939
773.25102446,-3.9617275340832507,5.43302916566015,-1.513323054410294
773.752409684,-4.405349289083427,5.081774491080871,-7.064333922789534
774.253794648,-6.732114086557899,8.267471454836222,-5.165799480323235
774.7501659306122,-5.041948625689604,6.03541157183331,-2.5060049902084134
775.2465373,-3.2335344518695104,4.2120426918183,-7.726206536264693
775.7479224599999,-4.72086842819226,6.06526341947451,-2.249154530600821
776.2493083319999,-6.188731222889325,8.340515523619935,-5.4928446219957285
776.75069358,-3.797718279667482,5.271495596191589,-7.885389675697817
777.252078404,-3.9830811666912407,5.356789061823227,-1.3973514864444434
777.75346346,-4.117760130239408,5.274392846711436,-7.196936838133015
778.2498346551021,-6.643538239906051,8.867789272044787,-5.0641406898455585
778.74620588,-4.504656745120083,6.382443860321458,-2.3819558828768503
779.2475909199999,-3.4250391095469928,3.962318774944908,-7.746390180073949
779.7489759599999,-4.877614695987308,6.864445318021307,-1.752130382058104
780.250360796,-5.813652901256599,8.682842963536846,-4.589665754277717
780.75174572,-3.274203793042409,5.1880498185585635,-8.313638659643182
781.253130696,-4.059930710112717,6.12482606784818,-0.9004500435928449
781.7495017877551,-4.450989845214265,5.87895344428556,-6.619496697403516
782.2458732059999,-6.724386057313454,7.800446729494903,-6.9966991804336685
782.7472583,-4.8813880699336885,6.5984416634210605,-0.6357789717955673
783.248643484,-3.612399514336933,4.663229904659418,-7.839340147099025
783.75002854,-4.938115861293677,7.2888709879374325,-1.3819929639660435
784.251413148,-5.320217170695068,7.959739384265118,-5.331615007229883
784.75279804,-3.922669156183882,5.029318934621325,-8.143140887124407
785.254183692,-4.682534224486908,5.204191093461583,-0.858150368113276
785.7505550836734,-3.870445197114132,4.945064081795655,-7.759672982525536
786.24692616,-6.8369364056987365,8.496759253127701,-4.6758448269530115
786.7483113000001,-4.736891677237583,6.224892237473894,-2.6542898536023296
787.249695938,-3.6768810993455427,4.378645589466486,-7.948028684206646
787.751080924,-4.411626376102355,5.593007895792457,-1.641787649594745
788.252466656,-6.406680869581164,7.734433866096848,-6.3991849672849925
788.75385188,-4.424342843801558,6.106384477861331,-7.430842205178644
789.2502229795919,-5.078958423069439,5.4734096039676166,-0.8145092076319175
789.7465942399999,-3.3805711013622317,4.676268137055057,-7.734577811844097
790.2479793,-6.019910041614509,7.361620825725726,-2.6215189704495168
790.7493641599999,-5.879769635188155,7.498706776487756,-4.2746710515173065
791.2507486,-4.747693264707687,5.297432118611301,-7.487246819597531
791.75213314,-4.815677945052711,5.049210954401305,-0.9197924141219985
792.25351788,-4.641516337789457,6.2579871408582,-6.215631386134773
792.7498887408162,-7.434419142879,8.520343500973045,-4.968546458722093
793.2462596400001,-5.894872129266415,5.652312573115429,-2.705446342926388
793.7476444480001,-4.239820513672885,4.690180749754937,-7.621397569927933
794.249028982,-4.658997001916981,5.664277401232137,-1.4492147007957241
794.7504137599999,-5.789497811189839,6.912872444639459,-6.851534217762992
795.2517986800001,-5.455478969078046,7.099429822730033,-7.012726174389416
795.75318352,-4.583240983530275,5.539378188212862,-1.2575154949717495
796.2495545795919,-3.53874109884695,4.104393474238665,-8.520387079423724
796.74592556,-5.259518020046072,6.976793198296005,-2.211337986827325
797.247310672,-6.4169833695095715,8.088568780259681,-4.844674448843719
797.7486955400001,-3.721050932199724,4.624087207602597,-7.59021174190934
798.250079618,-3.8347135059931867,5.589594689911768,-1.4231701333063536
798.7514642000001,-6.042747220534454,7.504564211558408,-6.254236615846533
799.2528495800001,-4.944290489612182,6.219174708748551,-7.5776658543257005
799.7542345,-3.9833774447961874,5.520385213918442,-1.163413691149194
800.2506052918368,-3.4644072079818633,4.444114192193233,-7.647372881723958
800.7469762000001,-6.491371979087932,8.889977498622047,-4.822523631529547
801.248361418,-4.779008526195835,6.213475460011969,-2.711315871568788
801.74974634,-3.1918139859375607,4.286848030738466,-7.769356131555762
802.2511303599999,-4.552692286604026,6.192798652630938,-1.904749208728906
802.75251494,-6.224491985796683,8.096241515760422,-5.649508446001209
803.253900384,-3.7230395435476606,4.7650414401261365,-8.034349691353174
803.7502714897959,-3.969381705316872,5.336825163462073,-0.7723173790252097
804.24664168,-5.219465001137776,6.255850379241534,-6.679259994919978
804.7480262,-5.856912378237876,7.547659134281823,-7.176494311245797
805.24941178,-4.114405527131342,5.5758699811905545,-1.0225252217820564
805.75079672,-3.3580127998730553,3.9263637310111803,-7.812247717118964
806.252181108,-6.171601373755436,8.702635401069783,-3.614750282112031
806.75356576,-4.8080822320628025,7.002001235909286,-3.1770583896970193
807.2499367918367,-3.199534668151082,4.505917560099999,-7.932891931995989
807.74630768,-4.067918505315497,5.817911164000086,-1.5273764786641641
808.24769272,-5.315060475611594,7.259741349208264,-6.163817990723874
808.7490775,-4.502687686966215,6.82263394956597,-7.237586140740587
809.250461456,-4.28490339679595,5.636771659811549,-1.123097846461673
809.75184592,-3.1261240495093072,4.485452846777293,-7.596600093196401
810.2532305000001,-6.26420737611751,9.022629302702132,-4.493921584589086
810.7496013163264,-4.8619130825952315,6.3765080029794134,-3.25744238913255
811.2459726320001,-3.700773881869348,4.358453537516775,-7.622162162575922
811.74735738,-4.2777658117034,5.593803052824197,-1.4198393239450164
812.248741944,-6.069008766691461,7.692317383747805,-6.5344239845192185
812.7501265000001,-4.620586584825644,5.823561142064385,-7.704394520251571
813.251510704,-4.215026917933382,5.200298370268384,-0.9654929158922824
813.75289518,-4.178066030655399,5.1243813585221005,-7.215762498237322
814.254280332,-6.291965074901197,8.645559856296721,-6.118609408666358
814.7506513020408,-5.080124535879866,5.38461742006422,-2.566543169180707
815.247021694,-2.992597765318881,4.159345340593287,-8.132723532296193
815.74840624,-4.5397640529208125,6.2496226719694645,-1.2027553003984532
816.2497908639999,-6.136561168321116,7.8036266012090785,-6.153857498069561
816.7511754399999,-3.939130893137704,4.8905945135557864,-8.039603867140825
817.252559984,-4.721954291990002,5.4543459625326305,-0.9448185604555799
817.7539445399999,-4.160786012546283,4.839541737088854,-7.589545681696991
818.2503154938777,-6.312907617039436,8.456252719134069,-5.894085143789346
818.74668628,-4.488180302566531,5.901927043680517,-2.826113386795693
819.24807037,-3.115139381529374,4.0560235126189585,-8.27974253059992
819.7494548,-4.738289186892399,5.878474298255547,-2.233851237723669
820.2508398539999,-6.290819241424391,8.084186625916011,-6.4398398057367565
820.752224502,-3.401819069609563,4.884722594822438,-7.746958052341861
821.253608462,-3.774568801864657,5.288111628806166,-1.3942037969875003
821.7499790306122,-5.281321584441172,5.956279083319521,-6.771090746927318
822.246349988,-5.513374630829991,7.73728522618735,-7.37309784540886
822.7477347,-4.218380565486944,5.12225442206651,-1.8332459199315634
823.2491189839999,-3.2650489513942893,4.213815248029885,-7.645018888648529
823.75050352,-6.56906895724866,8.96022886336302,-5.430484508339097
824.2518881999999,-4.363146488705428,5.871429934054856,-2.2428589714190514
824.75327286,-3.002825001636603,3.8180429772976407,-8.106360511932822
825.2496438306122,-5.468266099352749,7.296327658115029,-2.5858296212008485
825.74601474,-5.260425448808527,8.027604344759881,-4.9908702951832336
826.2473993680001,-3.0396936792803153,4.131382276177168,-7.857633548095747
826.74878402,-4.1784843547395525,6.394089509742653,-1.7459453360565567
827.250168896,-6.6352528828626625,7.932565157912989,-5.230744659035944
827.7515536999999,-3.5315915752381755,4.639236691279041,-8.187225958795313
828.252937856,-3.682651079337934,5.399024353557052,-1.6248505757236102
828.7493084857143,-5.375030279124514,6.746072802728868,-6.253572763226533
829.245679568,-5.076206282519811,6.756805028559321,-7.652620950500343
829.7470643400001,-4.074220285674642,5.534662464096747,-0.9389944525138748
830.2484488360001,-3.045032427809558,4.1970664318359265,-8.123236443233498
830.7498334,-6.819082406376155,8.982539190977654,-4.803439439407904
831.2512181320001,-4.436755083587587,6.427746575363294,-2.450614493288214
831.75260282,-3.0580677233949944,3.7943699925545853,-8.190617878136415
832.2539877080001,-4.206112907458912,6.288028649132955,-1.755321641381496
832.750358655102,-5.619654571663121,7.614340655457885,-6.5204846606249145
833.24672928,-4.566626967449582,5.530337235235493,-7.800050335685472
833.748113948,-4.217356546725279,5.078793384377483,-1.1555360735827565
834.249498658,-4.843463432933825,4.898006291126699,-6.925516434983906
834.75088338,-6.82288137691102,8.222211137287307,-6.653660967129018
835.2522677920001,-4.510270849798915,5.161790221763905,-1.4611610978555891
835.7536524,-3.6210480115862755,3.9505705832303395,-7.5229999627211335
836.2500235632654,-5.7254593713248205,7.890511586476775,-2.710804294176505
836.74639454,-5.960385249798207,7.791002260553082,-4.910436083197007
837.24777894,-3.2304818691960775,4.78344433524788,-7.725839084761059
837.7491635800001,-3.7838628696157763,5.381710464866809,-1.5288281881957715
838.25054905,-5.463903594558538,7.397861354458453,-6.950565815623864
838.7519341999999,-5.066337753322145,6.230704526846617,-7.512264888751904
839.25331863,-4.283981930980213,5.677567232830081,-1.2090876049449306
839.7496894408163,-3.384221726845186,4.21445535672161,-7.931806424587308
840.246060628,-5.685605393644176,7.400532816161938,-2.6328030605892114
840.7474456200001,-5.813609032333988,8.198040567348029,-5.155785278607154
841.24883053,-3.546970442513778,4.132453428636262,-7.989838020950753
841.7502155200001,-3.9975604673003264,5.271203734957286,-1.348999804302761
842.25160071,-5.933663901329465,6.969755847365693,-6.624155209855473
842.7529858,-4.629372421989398,7.082714080261592,-7.799224779845731
843.2493569122448,-4.410664450253662,5.358990545087756,-1.2703285217474782
843.7457281,-3.010614873597025,4.111313239413644,-8.112136139226202
844.247113968,-6.991316612504009,8.935456359435506,-4.7073386230908545
844.7484994600001,-4.478499677123088,6.1421358923817095,-3.392032113215752
845.249884146,-3.26386797819986,3.969244767977599,-7.651850821161327
845.75126906,-5.281887218112015,6.573178476964938,-2.3077067456882303
846.2526544699999,-6.18771664056697,8.08962308172665,-5.262590678310785
846.75403978,-3.516622078376763,4.5192706148459045,-7.916011160305918
847.2504106163266,-3.923894858747021,5.44327647070251,-1.3240167414952073
847.7467817739999,-5.406532144277219,6.3259869397627515,-6.536847472140505
848.2481675519999,-5.653228217132896,7.341202133917563,-7.328907243561753
848.74955304,-4.142588488862235,5.282948862907955,-1.0499577704457215
849.2509378159999,-3.752378048128526,4.280548480676805,-7.525369306626049
849.75232294,-6.66760247590873,9.150761541137115,-4.9329442211916685
850.253709116,-4.779475747706684,5.80270452041863,-2.1797170409848805
