Time (s),Linear Accelerometer_X,Linear Accelerometer_Y,Linear Accelerometer_Z
10.249407382040816,0.572560827091674,-0.1435992437604997,0.11280495256350397
10.745662560000001,-0.08546321305912699,0.2981062121840807,-0.13285783847869925
11.246930368200001,-0.40831225450035374,0.5825050210791172,0.8781273269351751
11.74819825,1.0360745839768546,0.15862628720809863,-0.2666084572065121
12.24946611,-0.11296932114192294,0.40356678817176067,-0.22619614352102835
12.75073405,-0.2556446810476643,0.41391599934944184,0.9013506780912186
13.252002319999999,0.713687393556619,0.5035370778768051,-0.28663395312580575
13.753270829999998,-0.13600864106090732,0.27511743660526844,0.15938276973317966
14.249526225510204,0.461054210221191,0.473668987156955,0.5544827125137142
14.74578165,-0.3015657274305671,0.8287065609448017,0.3235301584292802
15.247049922399999,0.4522936452022674,-0.5592003551570514,-0.25775775402793866
15.7483181208,0.7724324903044306,0.5253728183499989,-0.05957091194152727
16.2495871752,-0.9121143421398753,0.9665844950683448,0.7323098939656103
16.7508564502,0.6778285580085054,-0.09489659564055025,-0.4456164446423145
17.2521252546,0.3756224962631731,0.6225904062738359,-0.010052749116224209
17.75339402,-0.3395892149726894,0.41891047668603415,0.566204800809593
18.2496507,0.08508556998290262,0.02168955907007669,-0.14524888482713733
18.7459075,0.6997626248045727,0.4712217684500866,-0.07116784803083338
19.24717692,-0.26058142514608074,0.2582514754411426,0.44701400623068127
19.748446429999998,-0.02412742002236867,-0.021912995921208652,-0.13527529773875058
20.249715762,0.7463729406158603,0.34506787072533335,-0.10909856596865385
20.75098501,-0.2047599695520583,0.011570547078209668,0.19707313333976834
21.252254602399997,-0.3848506478609158,0.5551983659181544,0.36095641655302885
21.753524210000002,1.0246634329396342,-0.03994937946396346,-0.2931633954275965
22.249781198979594,-0.03770269410735851,0.16613671833986415,-0.3820345084106054
22.746038159999998,-0.4443861278841111,0.46675309148890093,0.9417541389851966
23.247308048,0.8067816330384887,0.25958810051397263,-0.530138397589459
23.7485781204,-0.16180651729001824,0.09864776575960231,0.0522897338380818
24.2498483808,0.41184241542468203,0.328754646484381,0.5996674563026274
24.7511187506,-0.5489304447421515,0.6709426103524101,0.28625452110009597
25.2523902306,0.6029229924925492,-0.41880888342083966,-0.37669954203767225
25.7536623704,0.6665932675956854,0.22464529982015036,-0.33605460278022187
26.249919023061224,-0.8647693946152741,0.8561131241333528,1.0773338605554361
26.746175159999996,0.8819021635704551,0.012868822165887313,-0.18456539685351492
27.247445625199997,0.5394069638156563,0.6198682587719013,-0.17626047416399615
27.748716100000003,-0.2762600766086489,0.1166047541857045,0.4722584893805003
28.24998678,-0.35503906289738757,0.41961856117449214,0.3155096240410581
28.751257609999996,0.9770153805407289,-0.06364977673968586,-0.3780045590790524
29.252529094,-0.05181991457516846,0.2764006049543898,-0.21941083703032604
29.753800849999998,-0.6940217661029532,0.24757072697517335,0.9628918065063052
30.250059198979592,1.0309076140400282,0.12548824465236236,-0.519759383107772
30.746317610000002,-0.3188114675773575,0.4535875585680381,-0.00878470708411999
31.24758913,-0.11911559956838745,0.19813651744203198,0.7631470395067833
31.74886079,0.28031115590834155,0.3232448806243176,-0.3740771977116644
32.2501325558,-0.08342300443459566,-0.3390154491810032,0.01501093166163939
32.7514045104,0.2404244329434209,0.37975309177811023,0.36219106413644697
33.2526763758,-0.7121150730633147,0.3897218066213604,0.3841338711564428
33.75394828,0.5962092763988251,-0.5884959987141608,-0.4417697135249384
34.25020764734694,0.5239070140500335,0.32772753786698283,-0.19228563748020483
34.74646701,-0.9421645666835762,0.6549458927864957,1.0254211876574373
35.247739545,0.6021835378665732,-0.2837714005803455,-0.5335160850674429
35.74901224,0.4511748892171945,0.4148655121708753,-0.040988027178717426
36.2502851946,-0.4722516619764087,0.19991927161638376,0.4059441792057856
36.75155837,-0.43207375479860965,-0.018199969349669172,0.2843509669993869
37.2528310264,0.976237488824541,0.05786611327810709,-0.2721158760530693
37.7541035904,-0.11839961308951534,0.006905971630259189,-0.23203964972522179
38.25036427836734,-0.7293773971598683,0.3920456928325494,1.0232454905673438
38.7466253204,0.8343931479442814,-0.2696328779042224,-0.6958779897389052
39.2478986874,-0.47755983586359596,0.1293066673339146,-0.13856429696986328
39.74917223,-0.17959607093841093,0.23430371674153455,0.7404560013095163
40.2504458012,-0.30259559458860186,0.05192441351794972,-0.19620891776733948
40.75171953,0.24449155813917475,-0.5299291838307847,-0.18316320386821264
41.252993294999996,0.3876762577409004,0.16036830408616673,-0.31944183046890506
41.75426714,-1.0684672441780625,0.41696568323015415,0.927250303536204
42.25052974653062,0.5218712456916846,-0.015143082282610533,-0.3975681557090461
42.74679307,0.22692862449075002,0.1646988035094931,-0.024340710549739412
43.2480662832,-0.24740747042033515,-0.17528138582099878,-0.2118273419910664
43.74933872,-0.5023169899033819,0.3974576358855045,0.7965819725549826
44.2506132988,1.1451123251061976,-0.1155897108718844,-0.4683920468581372
44.75188825,-0.3182305912587761,0.14352261511779368,-0.4010116853921862
45.2531628888,-0.5585720607604864,0.24367102867429896,0.9902000309469743
45.749425164897964,0.3019953718258809,-0.10943758768121696,-0.42282564788129917
46.2456882122,-0.004680978470668975,-0.22964915394004695,-0.08946440676522734
46.74696475,0.24348490604950895,-0.04424817448574563,0.17964267834670067
47.2482391708,-0.8721681524657512,0.7126819558561528,0.624229794994049
47.7495127114,0.5019001195395166,-0.6886034011327243,-0.4759247200406994
48.250788638,0.6149254060308543,0.40393315509825084,-0.2706156585876513
48.75206491,-0.8675292256212853,0.2639678548725194,0.7825926869803582
49.253340678799994,0.016133718112563793,0.34033303767464906,-0.04111549905701446
49.74960366836734,0.6967922623796048,-0.3583319240601227,-0.11413671760028746
50.245867090000004,0.10001359985335447,0.09268104644553553,-0.47977612883797777
50.747143290000004,-0.6673902313709377,0.21137145927910073,1.079432293464279
51.2484196014,0.8198044841070578,0.14222656185545562,-0.6412629797687104
51.7496959116,-0.33851492050291737,-0.5319789722689496,-0.1398772957174963
52.2509726082,0.3687820835924279,0.10206044922438616,0.6307338070206506
52.7522495,-0.936741975568227,0.610096516837246,0.31987564899491383
53.253526573,0.5637017092907839,-0.7325011392247462,-0.5101290045672188
53.74979117612245,0.5000843680182464,0.4044218862762725,-0.1573446949808124
54.246055649999995,-0.7625693680771519,0.15828498256450452,0.6670293088147973
54.74733293,-0.1998740223944773,0.3695619239168599,0.06681541861329786
55.2486104322,1.0750441325150917,-0.19959207150514263,-0.3865329127319134
55.74988813,-0.026896103581443738,0.2821804330403754,-0.3754322142853106
56.2511657772,-0.6198402087852375,0.23107193839539494,1.1067386190154382
56.752443549999995,0.7729679533572181,-0.25308962425055276,-0.6659787672638399
57.2537212128,-0.1563083167743942,-0.08158615509228975,-0.05431468911119592
57.749986057755095,0.0626439314427195,0.2856190260034538,0.6569356986096225
58.2462514556,-0.44178875506870796,0.449645082136751,0.16661325705111985
58.74752994000001,0.5126537283684728,-0.6218541297314079,-0.4806763631787373
59.2488082184,0.5908811945233292,0.13300627321400538,-0.1382498421150901
59.750086400600004,-0.8535278552308035,0.824125389154753,0.929706422130594
60.2513650416,0.45470781326591775,-0.32990596118866444,-0.1875348413116128
60.7526437,0.920554483313352,0.33212138001808356,-0.42305849586023525
61.2539227478,-0.12471703812243423,-0.06480156931229428,0.1801311501840658
61.750189394489794,-0.6559245311322444,0.663137015087105,1.0426951452535829
62.246455475599994,0.9687462173500034,-0.3197663552574443,-0.724250130581532
62.747734300000005,0.07692843608149272,0.4400600644527188,-0.22533531489016823
63.2490135984,0.03156778858656377,0.16121354423840686,1.0163220907250798
63.7502929906,-0.36670988168120416,0.7184902569430855,0.22503609102920344
64.2515727264,0.8427380043305368,-0.6123994549976354,-0.3115597607764629
64.75285282,0.7355808333935766,0.5118723482256186,-0.3566313233661181
65.2541327446,-0.6839312226154959,0.8172007625163725,1.0231502180277918
65.75040016653061,0.07979195922834578,0.27688818062346354,-0.04428257470185187
66.246667235,1.0170941930062447,0.07794779274966707,-0.29174240138592983
66.74794706,0.2811799287054223,0.14715955315928358,0.03579562731233708
67.249227201,-0.5491089111469067,0.37479367283187304,0.8694265247816674
67.75050737,0.2795440537393203,0.1724536157111778,-0.16791680813295656
68.2517876172,0.5587010698226113,-0.3792587935000525,-0.07256112138491544
68.75306784,0.7149298274418113,1.001313628837599,-0.2797030807123209
69.2543484728,0.14464011569562366,0.04556530526676668,0.37317248125075386
69.75061661142857,-0.7440210087891166,0.888359634947219,1.1240176523248897
70.246884294,0.7397465366742694,0.22378731575973496,-0.31326012659917857
70.7481646,0.13061939204010142,-0.26840007601134974,0.11146955720637336
71.249446249,1.0235851738684465,0.38065187760576796,-0.2797974826974261
71.75072909000001,-1.1492072746691193,0.983461105966376,1.137988430959428
72.252009375,0.17905324607947712,0.5262647691024102,0.22026784229270346
72.75328884,0.9639220139249305,-0.17100003039927703,-0.2621689574149594
73.24955695020408,0.3704895680897712,0.055208155344906217,-0.2440492064859161
73.74582500000001,-0.7678454856609992,0.42225190223174286,1.1085996639042697
74.247106358,-0.010370073135255273,0.6176022289865993,0.02461329093446989
74.74838794,0.4074064493786064,-0.5744118326981392,-0.10141794451407439
75.2496700464,0.6547837708052969,0.5982485327019773,-0.3054895843515236
75.7509533006,-0.7286922405139136,0.49194411550183686,0.972466163933791
76.2522340308,-0.09530350742617216,0.6148694105362186,0.23641106505815926
76.7535138406,0.8628045754678954,-0.33667712799774063,-0.4251039986025478
77.24978257591836,0.17999396639995982,0.06464468973230404,-0.27724285775547747
77.7460513,-0.4895783747389637,0.2944617352131285,1.2159908044389516
78.2473329812,-0.06826683438810366,0.8265992158136938,-0.00039121047768365003
78.74861461,0.348629204321136,-0.9538435950722434,-0.3074618993483822
79.2498963826,0.7200148724933197,0.55908395598867,-0.13415866043722213
79.75117814000001,-0.5118403676915737,0.20302757715266492,0.7313642752415268
80.2524599768,-0.3539187984861605,0.4941334077134025,0.6740152763151243
80.75374173,0.7598973515515951,-0.13242710562759274,-0.753946805289123
81.25001125367348,-0.41381092181140333,-0.518218004918527,0.10285798966260865
81.7462812002,0.9563288110870757,0.17312218494785014,0.25714263190328673
82.24756322019999,-1.3434018198582558,0.8452660042206094,0.877431506141344
82.7488451208,0.056495525435513,0.2184540968598141,-0.1093870134821712
83.25012746460001,0.6755946259200951,-0.38374974384669364,-0.10866275585717934
83.75141002000001,-0.0330610470163494,0.03767877966757232,-0.4101686212274061
84.2526923824,-0.3211631914274834,0.4384727158315445,1.1719572665870421
84.75397484,-0.6257541341932671,0.2553452178355246,0.142865151288457
85.25024446979592,0.5735821833174181,-0.9986073235742724,-0.41190204444004286
85.74651386,0.6028452180151196,0.5086358190746971,-0.30175051356968713
86.24779652080001,-0.5489785135741009,0.2603740324122099,0.8117933366364418
86.7490792806,-0.5741400128750845,0.5619457768776399,0.573472114250679
87.250361954,0.9317447310313578,-0.33504265198453664,-0.5843843341278814
87.75164449,-0.25324438820982054,-0.03983457308379882,-0.24840421531695425
88.2529275762,0.06208360513491362,0.1512877737827304,0.9166850792351162
88.75421088040001,-0.8677295680222312,0.6865933635928003,0.33299808092499367
89.25048129183673,0.4527674623162494,-1.009388173739914,-0.5124419048901729
89.74675176000001,0.4168885086467105,0.5644957917560006,-0.22792068261027995
90.248034732,-0.5545725392118112,0.007562392811366436,0.5850443881898721
90.74931728060001,-0.3147538444192565,0.5176117842325041,0.44869024656868356
91.2506008598,0.9945905230093115,-0.4051747147322791,-0.48450728301736634
91.75188487999999,-0.15150021039730172,-0.046813490777177016,-0.41255374714254606
92.2531682188,-0.38515072717481447,0.24212481002906178,1.0338112278151121
92.74943842,-0.4592268040268972,0.682336743403555,0.06001114212456485
93.24570920800001,0.31112458985418945,-0.9111297464990221,-0.32749221824764313
93.74699287060001,0.5280524371129541,0.15346993080433666,-0.2613136758941993
94.24827680419999,-0.8387256251419494,0.6157293354170303,0.9451414165223717
94.74956105999999,0.19732764732421693,0.015860416687594556,-0.25015591171523627
95.2508447788,0.5111113543643317,-0.04793995528204343,-0.13319947435047008
95.75212824,0.08510676821106511,-0.08587345153365593,-0.3331247395271749
96.25341227220001,-0.6493828654505635,0.2816000628027247,1.0035299441764767
96.74968360000001,0.9263595757884654,-0.03165062593728157,-0.600157322917031
97.2459549204,-0.41619560924137106,-0.07001137291630893,-0.16581717300413995
97.7472394206,0.14635636702539703,0.12872903969656196,0.9599292863733322
98.24852349119999,-0.8252496803639505,0.461621205997746,0.11032445335348402
98.74980740999999,0.5627945167511296,-0.7436753722647333,-0.7030854635078962
99.25109159920001,0.3242584175307291,0.532013366446349,-0.04617592357502673
99.7523757602,-0.14734002052024245,0.15149654114594807,0.6578864824324961
100.25366003200001,-0.2627866204168308,0.5813678047103816,0.26470000959903905
100.74993146122449,1.104529963459767,-0.35668545688229897,-0.6214560763301952
101.246203224,-0.18608609820821095,0.21223446414517277,-0.23873122183455775
101.74748828,-0.07586079855922172,0.13638385949261375,0.9601489905809387
102.24877276,-0.5905460639745407,0.550877686643461,0.31728065724815663
102.75005724,0.766951031483092,-0.6137498093611836,-0.5807848922666773
103.25134181600001,0.4794287660011925,0.7561408333762689,-0.16201328195117767
103.75262670000001,0.10848376671090942,-0.168341234019745,0.2573727633344282
104.253911096,-0.473972825888066,0.7879361184206022,0.8289911134448142
104.75018237142856,1.0523770053729633,0.23538438465500086,-0.7408861796838849
105.246454204,-0.4020743847775713,-0.16072245031510263,0.07554388220407247
105.74773907999999,0.7673438554423402,0.38338323015544673,0.5843436584004656
106.24902382,-0.8277117452652321,0.9194382132586836,0.6638412984160523
106.75030871999999,0.7493231769000459,-0.4388668248710949,-0.4957650927999907
107.251593548,0.5756580527416574,0.41662665660570686,-0.28817656410787634
107.75287840200001,-0.29040982010998007,0.2638842308284859,0.6764919736626049
108.25416337200001,-0.2936022719781586,0.8127521909828076,0.4786069266616092
108.75043534081632,1.2558927915509468,-0.1628067630390281,-0.6333195763736136
109.246707682,-0.10292451519473411,0.2570826081977335,-0.23579876847926023
109.74799304,0.2838854252394674,0.20145086109589563,0.8631968470033665
110.249278598,-0.7747957655901584,0.9028737325309448,0.6777310936806107
110.75056476,0.5612009848903393,-0.7620631207722187,-0.5231181998620311
111.25185014200001,0.3961130733374499,0.6145761708402532,-0.1005235805589861
111.75313512000001,-0.18230747277072137,0.05510887356686645,0.5122668669750082
112.24940811428573,-0.3018133925392255,0.6763598714027746,0.5944768509671043
112.74568164,1.0611801532088412,-0.1247424137989594,-0.6953571810303987
113.24696739999999,-0.3195118452945965,-0.01816100660895297,-0.05897782405124905
113.74825286,-0.09000910486537875,0.2917093606595092,1.0318432480256903
114.24953909199999,-0.5310896769484309,0.6049289261640116,0.10293342782283339
114.75082574,0.7734071072061297,-0.5146777973857429,-0.48856373974603756
115.252112024,0.5741294797968431,0.6932172901540194,-0.19210335044853188
115.753398526,-0.24346413970438743,0.20412242571234432,0.7885839864076294
116.24967198367347,-0.30464685273486314,0.6432832392454149,0.6262413627923747
116.74594514,1.0608237407860484,0.2028150998438379,-0.4683730157048309
117.24723178,-0.33597606187765827,0.006371188084869253,-0.23156599490270338
117.74851874,0.40080004862159446,0.2938124244380163,0.8060518746892095
118.24980554,-0.661221221333876,0.8622135351909176,0.48009616798334775
118.75109264000001,0.5608036034967885,-0.5952222294151706,-0.22923872925917962
119.25237929999999,0.6070029467524067,0.7685039391615941,-0.17194314815959502
119.75366558,-0.22122828514448745,0.2947328630659205,0.7262947281506114
120.24993959795918,-0.32123376082404864,0.6979555338362735,0.43414749213456083
120.74621358,1.1101953512104867,-0.11298858440904055,-0.4495924392322905
121.24750060000001,-0.3489273569631014,0.32862684397004494,-0.16970158643683222
121.74878776,-0.22861391452667726,0.3056778838439362,0.9802836409945609
122.25007502,0.561268525166383,0.49278779826041985,-0.25441439625760887
122.75136242,0.015708039674469796,-0.6559872459699829,-0.029288242793044778
123.25264994,0.8183222724690296,0.2096876123000974,0.25168544361576545
123.75393786000001,-1.151695895524158,0.8539095904628171,0.7828660502695951
124.2502124489796,0.35052132560726834,-0.04282747049162605,-0.23921668461388207
124.7464871,0.3084128718754847,-0.0010744389896695371,-0.09210524814347282
125.247774706,0.20389768200028435,0.17152267718003192,-0.043159783310618476
125.749062182,-0.6733814479576288,0.3670544592047106,1.0574554041714326
126.25034996599999,0.5744334731514568,-0.1097340886122848,-0.6444335653488652
126.75163769999999,-0.2535378807150745,0.056129770296504906,-0.06420132246779856
127.252925642,-0.3435733627373163,0.1387441374446675,0.8232891850613747
127.754213466,-0.03494273253319461,0.317926795252935,-0.3315037751577669
128.2504887142857,0.12379720381461393,-0.6496353118497282,-0.156790449395046
128.74676398,0.515222167843592,0.20362213258409195,0.13779103487485275
129.24805234,-1.0039969869353982,0.5945621464006486,0.7456113334142295
129.74934074,0.4343985161628852,-0.5382358867521448,-0.550827396884235
130.25062935399998,0.38822155493143046,0.4235530245783341,-0.11279670393404775
130.75191816,-0.16801447369628267,-0.19503139618100357,0.0486696372862173
131.253206838,-0.4678409729955195,0.5193151230710912,0.7564100677313574
131.7494827653061,0.915697591635896,-0.21210221492954084,-0.3567991344497872
132.24575865999998,-0.3848893714829655,0.01786870296679064,-0.47299088190626676
132.7470475,-0.056896776159632824,0.2974693168180141,1.0866638532119752
133.248336552,-0.2414874527100931,0.26933402981860244,-0.2849341419977045
133.74962592,0.14799794036218297,-0.752690637329894,-0.13464651444207854
134.250914944,0.6521980706346805,0.1504863164077086,-0.25510256740567544
134.752203924,-0.9139265178920915,0.6503525348853344,0.7537070195408322
135.25349315,0.12261980760471879,0.17834426902913442,-0.07650383590796267
135.7497693367347,0.7931302326733374,-0.20299165917647544,-0.3456311788110925
136.246045912,-0.08287093531849607,-0.1806429703020425,-0.18946913307812424
136.747335888,-0.714953479874351,0.3799586374750403,1.037541134848007
137.24862523800002,0.3742671969740786,-0.03603011423677468,-0.6435223351842435
137.74991442,-0.08402376962295299,-0.6223143929667783,0.020284706580063937
138.251204024,0.7112479932973897,0.3544247082847841,0.00013008566801559596
138.75249394,-1.0644713912514414,0.5989135185443686,0.8287105789597909
139.253783452,0.09832143043032897,0.05669206033602795,-0.18375104292813468
139.75005958367345,0.5073361567493032,-0.03417596488123386,-0.3250285811260179
140.246336476,0.07819011191376973,-0.07406896713061997,-0.2316300634777046
140.7476264,-0.5650440114330693,0.3842769936943496,1.0030374712598196
141.248916288,0.9809165425824163,-0.16673009600161082,-0.6906552327838065
141.7502065,-0.36034649351950143,-0.09387046748242125,-0.41289821059376663
142.2514969,0.2198971687412893,0.07424257269879726,0.9155683124003611
142.75278906,-0.8740138714906459,0.5085533007673793,0.3350236500986646
143.254078832,0.5408260447006787,-0.5714113948331554,-0.580846894812139
143.75035420408165,0.354921275004912,0.4149044160120485,-0.19744569836115544
144.246631402,-0.19008266176818212,-0.0020222026162135575,0.3175110112120893
144.74792108,-0.39906816851449745,0.5122337527862235,0.5749536972423305
145.249211376,1.0893028666847444,-0.21610245557697524,-0.7853826097067039
145.75050208000002,-0.42593880895899416,0.14772810405909295,-0.16756389745875805
146.251792372,0.14459498674430232,0.05950870342335989,0.9531444471471479
146.75308248,-0.7151339547421174,0.2774150214081342,0.08066893681484684
147.24936000204082,0.48612992083748846,-0.6976073745659027,-0.47274947983033394
147.7456379,0.3588941239346315,0.6378992768982816,-0.18574000848946323
148.246928244,-0.19404261515823687,0.06930307448062323,0.4637964917186564
148.74821828,-0.3452088277419028,0.3130498942405364,0.34146021413466165
149.249508778,0.8594180657644892,-0.39487471914397426,-0.4632301734325561
149.75079974599998,-0.1291813490770528,0.16622000064991013,-0.4723053134829185
150.252090084,-0.1284634354340059,0.1589820748512362,0.9903835232337443
150.75338019999998,-0.47497824579352405,0.638909849667518,0.05639576348903159
151.24965765510203,0.40877631454659796,-0.7756098665365396,-0.4555968857056817
151.7459356,0.712956830876381,0.3367206232425255,-0.37073365109534234
152.247225872,-0.7278388552536508,0.7438846144763928,0.8353464781621541
152.74851546,0.2917107976572634,0.03451036519732323,-0.21888567036765244
153.249805834,0.6432708328682685,-0.035327384437184806,-0.0749220131007455
153.75109622,0.23257146515046162,0.06218309026788242,-0.167983799067474
154.25238663,-0.5169580977418378,0.5666499965016017,0.87802396413349
154.7536774,0.5591310600035441,0.33157145687764994,-0.4795772171613351
155.2499547857143,-0.15388104079275444,-0.25529234723890104,0.05185198235124285
155.746232288,0.6985032931137357,0.22683931635064508,0.3098538606949249
156.24752249,-0.6802706101616899,0.8765350160259618,0.5374241322354691
156.74881208,0.8688932010535776,-0.4972141367033776,-0.5820862324920238
157.250102456,0.5262100437857702,0.630628522979529,-0.1127193847687944
157.75139302,-0.33343440936162083,0.17172596413235527,0.5417516200676238
158.252683344,-0.3498495344820655,0.665676441531816,0.5360947212851431
158.75397426,1.2878744964774718,0.2804790684461742,-0.7236832368038377
159.25025145306122,0.1667842108629057,0.36620457500924863,0.027993281736847637
159.74652846,-0.2892916295425785,0.4316543710997526,0.920421146393016
160.247818688,0.5550508233426527,0.908839842806703,-0.2405910032159703
160.74910921999998,0.19960516219915994,0.09681032507194731,0.06844763861495924
161.250399556,0.7655870936475934,0.3530474960968762,0.47928136176168334
161.7516913,-0.09409744073047194,1.3801956326657958,0.46013798289738495
162.252981128,0.6540217977667484,-0.44568565339426236,-0.2382944604045008
162.75426950000002,0.72536190878925,0.6624412282565215,-0.31528013232336916
163.25054661836734,-0.4624908389655665,0.94686907706544,0.9130622090810552
163.74682376,0.25374634183580047,0.3553893263494078,-0.023515985051763433
164.24811381,0.8222669981964108,0.1510363930344114,-0.12476618053899563
164.7494039,0.169754963319116,0.1597235983458071,0.02957229861157143
165.25069382,-0.410732104976211,0.6196626428398767,1.0102527516606428
165.7519831,0.9230268421346552,0.1933041082334053,-0.7577164931793788
166.253273112,-0.2973173512051375,0.2646874867717543,0.0015130202002226723
166.74955063265307,0.2965541933085849,0.18682792052947936,0.8716752510670028
167.24582769,-0.873656283696632,0.5917212307071756,0.4306888429785633
167.7471176,0.3584272595643543,-0.7593267035051074,-0.49278719080778494
168.24840758,0.39891975028550236,0.5810645983825937,0.01882794244992178
168.74969732000002,-0.3833059584708011,0.7311065386086907,0.6748649681342997
169.25098709999997,-0.18980540606211385,0.12911995073572072,-0.11375543921766791
169.75227686,0.76042281649964,-0.007174766009658853,0.003574455259109506
170.25356664999998,-0.04129940417846898,0.06541533531966078,-0.07281795592928784
170.7498440367347,-0.6762244881726828,0.474568366720004,0.9715712724939691
171.246120656,0.7950582895005729,-0.21236550537733156,-0.4366614368766901
171.74740948,-0.45491106108518137,0.13715841295129147,-0.35709748560454363
172.24869909,-0.2797924555930514,0.3019522596519421,0.9345455002501869
172.74998878,0.23843203435227775,0.153062708983576,-0.43381193125009154
173.2512785,-0.31055584278497617,-0.038821663008693635,0.1756790122338413
173.75256856,0.11807179103594151,0.3889976144073011,0.5517869273260214
174.25385827,-0.21276797793054064,0.3253971635850145,-0.1973874744340381
174.7501350653061,-0.04950819546350717,-0.11418516696662645,-0.06052200588781856
175.246412036,0.18367663494794312,0.32170012120536845,0.5905198923724878
175.7477021,0.32270400423114187,0.1279796406117665,-0.4476544227353183
176.24899208399998,-0.2337191065427571,-0.013010924227984298,-0.2005205209633648
176.75028193999998,-0.31638604617330274,0.0867941092664366,0.6046926761334503
177.25157209199998,-0.03885730254451154,0.06119595502578276,-0.40220813260558297
177.752862144,-0.04103171061189062,-0.5778002522436229,-0.1397825033747358
178.254152324,0.17344514733771674,0.268349942872435,0.5701191570097008
178.7504295612245,-0.45924004593436246,0.34826592227068337,0.008218711853061124
179.246706992,0.23501776599969623,-0.9179168899639856,-0.31698847430883054
179.74799776,0.6836951227507937,0.3181501352291907,-0.1080110101809313
180.249288204,-1.1500378048932258,0.524728386715772,0.8074498766885756
180.75057848,0.17638225980448344,0.028542789250350503,-0.4617284230166925
181.25186912,0.3335859766099409,-0.07175865002279222,0.031047026576880906
181.7531602,0.3852004074874744,-0.11897372883420562,-0.48624097986752796
182.24943798367346,-0.7452156453851306,0.36946991799224654,1.00605048940322
182.74571568,0.7952467224890195,-0.21561947388469632,-0.5100012894385167
183.247006462,-0.49026674552812055,-0.0647566510999436,-0.057761530639032437
183.74829706399998,0.33281437879326864,0.17629958711294375,0.6726023387634399
184.24958797600002,-0.9907724485242616,0.5254050817802539,0.3311704334438205
184.75087846,0.36066374010558633,-0.7491821623433337,-0.6312283218669781
185.25216960400002,0.33065234513116815,0.23074685287565821,-0.14550132550618672
185.75346140000002,-0.4392035976393723,0.1347069843171269,0.38217806183821984
186.24973965918366,-0.17457079713116827,0.3692159406220215,0.12710251453201016
186.74601802,0.8258421466228673,-0.21256196440796957,-0.09457518189666018
187.24730910999997,-0.12803765067925507,-0.12679241470849903,-0.46640985180304556
187.74859988,-0.4054562736253746,0.2582920082864145,0.8900085544381355
188.24989117,-0.3021745012363932,-0.1171414131881388,-0.21891674673748698
188.75118292,0.09076000527307083,-0.6273104867936934,-0.0873294392302083
189.252474154,0.4884371915487696,0.324838081494679,-0.26240503006550475
189.75376534,-1.1090337195492959,0.480085840061893,0.8634560269195548
190.25004375510204,0.3503645708881291,-0.7152825909626432,-0.5515835470617455
190.7463221,-0.022949303974796866,0.33022233845061444,-0.0638042077322452
191.247613408,-0.42497814633594866,-0.015407022638554558,0.3551347545505661
191.74890404,-0.07221067013264375,-0.27403750270366545,-0.3425542761690805
192.250195452,0.3654211459438046,-0.1638402358534807,-0.013876044667467818
192.75148716,0.06931382325487405,-0.3159316282649214,-0.23448214347373267
193.252778692,-0.6524083906532977,0.4411604943861667,0.684034177659052
193.75407044,0.5474480696118983,-0.4124189439792695,-0.7042873384449515
194.25034916326533,-0.23503592048087424,-0.2993423448628974,-0.04513223610431873
194.74662772,0.3325968847443711,0.06141950158343946,0.2837081946563572
195.247919404,-1.436765396166189,0.4726490548780026,0.705423925196085
195.74921117999997,0.6427057833048597,-0.43486069599864285,-0.8009511804728828
196.250502848,0.29850967867155537,-0.029159951215627908,-0.14822666597047507
196.75179484,-0.7778527745452092,0.2563531550476009,0.6159418041363943
197.253086548,-0.006063124449129464,0.29832475537396974,-0.1331972961550579
197.74936559387754,0.5253346569570082,-0.09467167090172784,-0.10369485630611665
198.24564442399998,-0.16369514444769584,-0.16022159725217347,0.007082559061350207
198.74693634,-0.6829138910687472,0.16393017913788033,0.5288388417386828
199.248228148,0.6980250491895527,-0.41747107805455214,-0.35323539877040455
199.74951924,-0.150649251747589,-0.16108950771220304,-0.6006871448408131
200.250811168,-0.8294849696668795,0.17891513687670144,0.9385316012548803
200.75210374,0.3254970112102224,-0.1044210910122009,-0.5710217037286555
201.253395676,-0.5196998682504286,-0.5010308475567793,-0.10289100705617464
201.7496750755102,-0.29905439750978635,0.17714948065684277,0.6893200334912759
202.24595405,-0.37599768333955824,-0.08387648460320624,-0.4393940850346367
202.74724544,-0.08212748245225407,-0.5754465223812255,-0.09494786520707293
203.248537358,0.3501796815984779,0.11389188708831302,0.41061156707452295
203.749829202,-0.5062095663583359,0.7171604238212278,0.10220907149729419
204.251121168,0.06135979117530798,-0.7704526967573463,-0.3890119824951156
204.75241372,0.47808411333490297,0.09072448175758853,-0.003113387459832202
205.25370568,-0.9210750133240708,0.5214800693772667,0.747901709317261
205.74998376938774,0.4063573265096181,-0.671748456427889,-0.7870507079189961
206.246262906,0.11316148272042163,0.2920775075156079,0.0405905898709846
206.74755516000002,-0.602901853562086,0.327311361326291,0.5554767023086593
207.248847194,-0.14570085446510933,-0.30841402853058714,-0.36386553613573885
207.75013891999998,0.4089176261057473,0.035204747495775714,-0.03418115290527661
208.251430922,-0.0798349929661564,0.05191756321066515,-0.23831803651400463
208.75272398,-0.6875831416103404,0.1104478271859738,0.870971314354084
209.254015926,0.8339698579063911,-0.344887023522508,-0.8427503951393713
209.75029425510206,-0.490344807412114,0.2573411347196123,-0.1145242546922701
210.246573306,0.043197585302810336,0.18050935244368266,0.9248778857812777
210.74786542,-0.7584206159886725,0.08296481994968627,0.022401963201291543
211.24915733400002,0.46487374101982115,-0.48912583249308417,-0.4693726936221089
211.75044898,0.32904920520086334,0.5235864115721075,-0.13911539681658264
212.25174087399998,-0.47549628536572436,0.38202722777260073,0.6109966381256487
212.75303344,0.09744737649040541,0.3708695323557371,0.08945472505699165
213.254325326,0.6591069229314358,-0.21521339010583942,-0.059050615138831475
213.75060355918367,-0.03941307086744319,0.31173531175898367,-0.4527766755149418
214.24688254,-0.5955784955879179,0.2880652163438922,1.0303751044313305
214.74817424,0.4247098546810652,0.05927303387664988,-0.516169083228868
215.24946604000002,0.03422926920534871,-0.2528894000354812,-0.013837034818580528
215.75075791999998,0.7477894901456525,0.10111551520334654,-0.010127105500287286
216.25204974,-1.2582649793231753,0.8628519822669244,0.9306133890932867
216.75334139999998,0.5455990663269236,-0.130502547275338,-0.5043860061840089
217.24962025510203,0.3076894472437272,0.14313924483989746,-0.03719655574591765
217.745899286,0.1682610417346742,-0.021930728222682126,-0.10378185740725736
218.247191026,-0.5793867864378925,0.3683766169845773,0.9055091247111798
218.74848310000002,0.6569193155827263,-0.22056305732452522,-0.7666690161314178
219.24977478,-0.18854868985451578,-0.30400310647031004,0.11537724967958429
219.75106631999998,0.719755436957066,0.1361743012067811,0.004168227825377197
220.252358,-1.114463752472758,0.8337672183915167,1.0386391094038485
220.75364957999997,0.41438018704714885,0.11742024005499598,-0.3459381941846695
221.24992828775513,0.32023777313699586,-0.04967394142038302,-0.14048272520763133
221.74620701799998,0.3757573198174187,-0.06623583248492666,-0.46247770513845543
222.24749867999998,-0.6819850404296197,0.49326638126018607,1.131524893146446
222.74879016,0.5309791468547986,0.0400254881918947,-0.6795522370763394
223.25008183999998,-0.17655281880584434,-0.4569814230854532,0.18813883491561662
223.75137331999997,0.8667101661977148,-0.015073767739717647,-0.015468574280727907
224.2526649,-1.0671809725216626,0.8915897597652642,0.765167317355843
224.75395618,0.34836646051412173,-0.09068639123390299,-0.39895443053250496
225.25023478163266,0.2106253936234399,0.026778537482448905,0.07524189195655945
225.746513914,0.24723188436813948,-0.17319183767762752,-0.31939411875713136
226.247805402,-0.7908942618890211,0.43832406511995986,0.9150127583544587
226.749096724,0.571574085365035,-0.17168315538526144,-0.7571524510232954
227.25038818000002,-0.3106930420603866,-0.3697795922403207,-0.016882034752088035
227.75167921,0.5480855176671225,0.1561871080821887,0.2893410116004734
228.25297063999997,-1.1466259116897997,0.5948367628584479,0.5300887152300622
228.754262022,0.38942668177341844,-0.7342153103171793,-0.563060322731284
229.25054052244897,0.05162664366072847,0.4525119947981108,-0.11246780420420903
229.746819374,-0.23141326345736904,-0.0745951437492284,0.15852137468174696
230.248110806,-0.35337305073194786,0.4939641044808896,0.47986446136138533
230.749402848,0.8077862875531926,-0.39291799915563713,-0.40337021381542343
231.25069424,-0.41492359962478403,0.1951056905436428,-0.33398307110494657
231.75198506,-0.7116928790203925,-0.14508181741974582,0.6923018022906363
232.253276466,0.35435063136308576,-0.4326586068522273,-0.6599840813100708
232.7495542959184,-0.5110553910176074,-0.17355421177139665,-0.04081232358808935
233.24583277999997,-0.27646465293122946,-0.0679637461345681,0.604207780857258
233.747125004,-0.1333277377062284,0.02145224173895294,-0.3764424779033517
234.24841636000002,-0.21061384154699458,-0.45340209265253106,-0.2110192684224439
234.74970724,0.6987204478021691,-0.18204921107792882,0.013148620541777163
235.25099854,-0.9791755472465973,0.5364224874295426,0.7819333349997638
235.752290534,0.36444064670442083,-0.37064079151799817,-0.6462953345763467
236.253581906,-0.013547025693129511,0.3260153463399583,-0.11050617411446836
236.74986002857145,-0.18789706078055626,-0.016598337906743674,0.17448612950932077
237.24613850000003,-0.4577733944856191,0.32188043264328264,0.3209370537031521
237.74742984,0.9851886657353319,-0.12000411238868404,-0.29133103885879863
238.24872126,-0.24837595362007256,0.003876108272120773,-0.3812616149545143
238.750012776,-0.5092126845921132,0.2157192823650443,0.8998900327829966
239.25130420000002,0.6485944192125689,-0.08058864112193102,-0.5146272228678077
239.75259562,-0.39005186391603663,0.23233545696486854,-0.03618633063811669
240.25388708,-0.20419373476759278,0.17365710033600876,0.6416233836307592
240.7501657142857,0.37846440129700193,-0.04826135537980954,-0.4205677559490491
241.24644434,-0.37333195292460475,-0.16277554946935702,-0.2631456079938123
241.74773563,-0.24374985221218728,0.21135579585423417,0.7514096555600394
242.24902716,0.06297539597247978,0.1343076157411894,-0.3857429334668099
242.750318262,-0.2878274128330508,-0.5591539896118786,-0.06631723218889105
243.251609524,0.2172950441963497,0.420482558056965,0.5196397383201332
243.752901376,-0.5485047471050969,0.3076149001946468,-0.3101009596510481
244.25419266,-0.07008617881691992,-0.9455954391809297,-0.1690211660454479
244.7504711,0.05952759656815543,0.08583567025798582,0.2698419862168173
245.2467495,-0.6315342509495447,0.31686062132350906,-0.04188148057589189
245.748040464,0.14724435165272579,-0.6014669469187571,-0.3629880951150372
246.24933182,0.19813498674795793,-0.22240675302467902,0.05598280338647605
246.75062373,-0.9480831802277179,0.2725996310460516,0.43252651025233774
247.25191518,0.42203408627964395,-0.07486834461485632,-0.49637471455944665
247.753206746,0.23293599754045524,0.14236068690038778,-0.2605135978191101
248.24948549183674,-0.6284103379465593,0.04934276906391875,0.5572898988766832
248.74576437200002,-0.237776724704495,0.23013722962441463,0.06279204475627041
249.24705622000002,0.6928819250728618,-0.4913946961582528,-0.24730365981165092
249.74834731399997,-0.0062122043949158455,0.11028809907185456,-0.42794893494971065
250.24963928,-0.7098291988267563,0.27346063022836503,0.927729709813158
250.75093252800002,0.06226504601241757,0.09260927751178122,-0.2438269755140097
251.25222482,0.05308463176337622,-0.652150407018392,-0.0220835580375413
251.753516838,0.6259814732707137,0.19071510055030128,-0.266416505889294
252.24979630612248,-0.9900943882788947,0.818913661404754,0.9508138776394978
252.746075052,0.3197614873239283,-0.42042506745518454,-0.4259984900381308
253.24736764000002,0.45247123001680495,0.22453670001549886,-0.15374037898320655
253.74866091200002,0.1210135200829431,-0.10997358849565096,0.1228804268206632
254.24995378,-0.6035054053324859,0.5618423792140126,0.7953770859500788
254.751246636,0.5163176929344224,0.0034645182647477933,-0.5739033164354382
255.25253966,-0.24084685062615319,-0.264787923038256,0.12043943053428556
255.75383299199999,0.8463828668684262,0.050214914599717456,-0.18066913997909254
256.25011339591833,-1.1340750145489624,0.7766250795766662,1.0206580226956508
256.746393952,0.15412018466355942,0.24126391620507068,-0.23892550820893493
257.24768758,0.6751556303779044,-0.08234624891990112,-0.1380701076387189
257.748981244,0.4250673488776556,-0.16890473098865683,-0.4223165057157163
258.250275088,-0.7086042804976691,0.4940083481905686,1.1188625342650533
258.751568856,0.07018679612326226,0.22931203448469503,-0.27708066706110496
259.25286288,0.12464209142833305,-0.7914440661640374,-0.06570767773154755
259.7541575,0.6617323130762409,0.6052380752701562,-0.37430289518115556
260.2504388367347,-0.4233144969135554,0.2876269334244112,0.7854514546773761
260.74672039,-0.34591928530930866,0.5160657388009511,0.56950285397483
261.24801486,0.9872599702817269,-0.34548472720542606,-0.6077055785608143
261.74930916,-0.18180709761016012,0.1144932218255483,-0.23276448981396672
262.25060388,0.3996686474076413,-0.0037612368168176147,0.5595396265483747
262.751898832,-1.018322427520137,0.6795480656032425,0.7121680722935189
263.25319384,0.6808290813721827,-0.3364003772669604,-0.4619738924172647
263.7494756163265,0.2374170248526118,0.2766343600734395,-0.28047911635298683
264.24575786,0.3578715988841188,0.03634138794518327,-0.020422799586346435
264.74705338,-0.6701523328111527,0.35973730469240084,1.0082077672151621
265.24834876,0.10676401066511598,-0.07906976625802539,-0.18819320933802866
265.74964479,0.2644133880709746,-0.5389865834539193,-0.22860310111548487
266.25094042,0.4900430460766294,0.4640878388316093,-0.29219689161125667
266.75223564,-0.5380138100909596,0.42663378020326354,0.7458687891430468
267.25353142,-0.18390601868826295,0.28567838289719655,0.30035339582903836
267.74981502857145,0.9079865213632516,-0.35568060052697553,-0.5565007116322739
268.246098168,-0.31912676739839946,0.03632802961107502,-0.3737657999692557
268.747393596,-0.024227283028427634,0.15199802938983403,1.1230517980381203
269.24868968,-0.46035477333099833,0.485027304677441,0.10413253073537744
269.749986134,0.4445189081640722,-0.8171038100759971,-0.3604032490732575
270.25128248199997,0.5121612316742832,0.4647575978670024,-0.5123655346811539
270.75257881,-0.195629668396064,0.16882894975782997,0.6150250747168119
271.2538752,-0.2779261539903015,0.46135184075251295,0.48683605245393535
271.75015869387755,0.7157248405069851,0.03349424288236094,-0.66614915231534
272.24644224,-0.09020890420422056,-0.3840423076839562,-0.023603086744593257
272.747739098,0.7696245651717628,-0.023212712066312573,0.08499467060895202
273.249035824,-0.9475097543307652,0.8017665760075527,0.7857184296498031
273.75033256800003,-0.1275448013840709,0.35033399166620316,0.2289959737895386
274.25162938,0.7900745902588682,-0.5476056270779133,-0.34058895299982944
274.752925936,-0.10716023696385937,-0.08683166308367314,-0.6170151473283635
275.2542228,-0.2194134432508368,0.2692939520250758,1.0509309348929192
275.7505068142857,-0.7268128838456789,0.4427953071358336,0.07889181457058313
276.24679078,0.5372902916937564,-0.7792768600673428,-0.539455519919212
276.74808785,0.5110686256119829,0.3665229013905245,-0.22983721556708686
277.249384866,-0.6603187790530539,0.1447085042740792,0.6002900027950112
277.750682204,-0.17548813946061265,0.5378675379247444,0.44770738495746343
278.25197932,0.9168981898583187,-0.4698904944822917,-0.6423006772300943
278.753275912,-0.5337913331063142,0.17923168719242288,-0.19814582745255327
279.24956003265305,-0.10014803346260834,0.25480060703184243,0.7649064516654526
279.74584469,-0.015495786974718229,-0.16530764228035935,-0.25309463694498896
280.24714198000004,-0.4086034459191377,-0.4942979709042521,-0.04409851412640193
280.748438836,0.7074273234485274,-0.0540931182109524,-0.014930304232628444
281.24973608,-1.3599653438668284,0.40853421950081875,0.3909077695803532
281.75103338,-0.21999205487813026,-0.536614645947509,-0.4282888307235706
282.25233064,0.20279672324709136,0.0879867625542137,-0.06474317267807198
282.753628102,-0.3102548456735984,-0.40093719283309737,-0.1684554303459851
283.24991247755105,-0.6225707582929519,0.24762775725796982,0.5768591722003761
283.746197316,0.6696881113403005,-0.12050124454660992,-0.3120745890834561
284.24749476,-0.010394108513391122,-0.19814401051498437,-0.5246020099650611
284.748791578,-1.0674349120923943,0.2143345413494609,0.6315230449507611
285.25008882000003,0.935335820883542,-0.4375984249652331,-0.6825761457410825
285.751386498,-0.3136526514674121,-0.12458119766808162,-0.4147984961489508
286.25268394,-0.3629055359763293,0.34359659245938196,1.0220564679877737
286.753981254,0.08622832736438152,0.07447331238324598,-0.3463942157293691
287.25026569795915,-0.026585444843457363,-0.6005173326217833,-0.02934184100137853
287.746549796,0.5683279749343921,0.155949614137025,0.06879382646739841
288.24784722,-0.8615923167642212,0.6631541544480796,0.592658909316143
288.749144838,0.5021568234594436,-0.4670110379834632,-0.646551519597031
289.25044244000003,0.04784153734944857,0.42894931318460294,0.06205645659492234
289.75173939399997,-0.3518548274465529,0.04708688852354901,0.2938285660661183
290.253036846,-0.09933945806196949,0.08037290084439606,0.09628542961116845
290.754335164,0.33182852417915143,0.11743646465763627,-0.14930402983750057
291.25061985510206,-0.12564513475510125,-0.28626785935350707,-0.2061038568732548
291.74690423600003,-0.3579984743264473,0.5317754193460678,0.6047393402279095
292.24820186,0.7984327242999777,-0.2209796629102737,-0.19528774898396822
292.749499176,-0.7583050540527367,-0.07523356558343196,-0.5054823391048386
293.25079676,-0.2658880741423458,0.21553774565001194,0.762831198360217
293.7520942,0.05469086234549742,-0.04515917690236297,-0.3757465978505446
294.25339176,-0.3465906833371545,-0.349577350309851,-0.07696514124857025
294.7496757714286,-0.23387423756086673,0.20400247727495574,0.6123609173855594
295.2459603,-0.0029071229885089967,-0.056072489040531026,-0.41463534658826967
295.747258224,-0.27675539502303675,-0.35070161859140725,-0.05628224414411617
296.24855592,0.0531166098479354,0.3169994941993447,0.7400293877110528
296.749852916,-0.3925342032978042,0.053379113792225624,-0.443688856301022
297.25115038,-0.0010757431361818348,-0.782153869847927,-0.17546108861938822
297.752448004,0.3519920519571502,0.319066771197295,0.3414555965249207
298.25374554,-0.7135285924744913,0.40678116794586516,0.13166171426086695
298.75003053061226,0.23871882635682265,-0.8114111072377488,-0.40182803661104594
299.24631508,0.2705429220900222,0.23176584763286642,-0.32233237045629454
299.747612726,-0.6594827474798851,0.5485846289404128,0.7732167331666436
300.24891024600004,0.08829040364029561,-0.47167542653368827,-0.43164594772028897
300.75020747400004,0.37540874712451655,0.10505145252381715,-0.04111224231477875
301.25150487999997,0.06033578624163347,-0.07562635941079272,-0.0622643898738994
301.752801984,-0.5146867815052292,0.6521315515149344,0.9451581346813863
302.25409940000003,1.0275696602261726,-0.12116391359370526,-0.7026742853132916
302.75038382653065,-0.5164768866513545,0.039118749057210786,-0.09621942105984985
303.2466684,0.05112429347293899,0.1258259768737414,0.9124377956804356
303.74796569800003,-0.5005441458534223,0.490692862706549,0.1003904895113417
304.2492632,0.5226228776364049,-0.6228115490723555,-0.4719713359901057
304.750560642,0.4623985440380747,0.5270626799786072,-0.18132225290247866
305.25185822,-0.19095245021215043,0.00679445490992725,0.4954400738272953
305.75315562,-0.5253465769647063,0.5588619829910503,0.4752486318580623
306.24944015306124,0.8218412978237676,-0.3185217408887927,-0.6913239762204932
306.74572498000003,-0.5377378275267641,-0.32785827743481877,0.12473489527615181
307.24702258,0.9839251400916852,0.13075225758107795,-0.2663213745860166
307.748319798,-0.7048279384815088,0.6080401252635714,0.8504844908091961
308.249617204,-0.21983524968370655,0.5839224502266381,0.4738164120868616
308.750914516,0.9912211951137562,-0.2636657565504995,-0.8013930941756665
309.25221192000004,-0.3276221415818529,-0.17238655888892448,0.012406219119934114
309.753509768,0.6542453614418452,-0.017781135876254513,0.14599820286065726
310.24979430816325,-1.1965025312082747,0.7925222346179907,0.8572986620000522
310.7460786,0.02515087139570304,0.3383768285886636,-0.11146459426337081
311.24737600000003,0.9158991450003552,-0.27616945585285085,-0.31487777367937214
311.748674004,-0.08275935595134463,0.07346568115786638,-0.2306841267057537
312.249971544,-0.05382309539151093,0.22065766659015634,0.867823979889829
312.751268704,-0.5163454071914209,0.5268133891553367,0.2643134049082709
313.252566066,0.3099277815318234,-0.7622554044637116,-0.39859986422846005
313.75386339600004,0.4179529221265023,0.462985097520066,-0.21509909909897346
314.2501478693878,0.09263217758704101,0.011562046899782063,0.1951013579472354
314.74643262,-0.24607428884431592,0.6743344217147745,0.6310479546498461
315.24773032,0.46157703014690143,-0.07727731812200606,-0.4935885230977455
315.74902782000004,-0.3357778640879935,-0.2218486608408162,0.06170730572248303
316.25032548,0.8662135254067445,-0.07666458784396345,-0.31511718937936034
316.75162334,-1.2108624764326168,0.7727631952649251,1.0534127347533393
317.25292096,0.49649157332885674,-0.20857984641323082,-0.6294744337558882
317.754218524,0.374021894084501,-0.128421357648358,-0.06020597271098484
318.2505030510204,0.18656102226959392,-0.08435945782615743,-0.4508272847883919
318.746787682,-0.46022492641970913,0.27928062087656386,1.202119127804554
319.24808536,-0.2956350414067964,0.5619771992814173,-0.11673049011104805
319.749382654,0.5366056144530069,-0.605322232487379,-0.3463376962295854
320.25068024200004,0.26062748023043397,0.49457385831933753,-0.2275268384097694
320.75197887999997,0.16923750918060187,-0.140381945511882,-0.12293979730644736
321.25327672,-0.5314771851662095,0.4959126100504564,1.0175007493016168
321.7495611244898,0.5426152029466865,-0.1375709138730275,-0.5945169145038668
322.24584578,-0.1638271682791204,-0.21296282863236526,0.10733730557959262
322.74714397,0.6899755486622436,0.19497762888720646,-0.1073684027434905
323.24844168,-1.1937223198365117,0.4681015625901439,0.9180696051304387
323.74973866,0.2945564673796669,0.04459529091645278,-0.36753311094381624
324.25103618,0.7034481294363455,0.055082167938539456,-0.35196192458153946
324.75233427,0.16580935951833367,-0.058512749460153425,-0.18661006355434742
325.25363216,-0.7644557984371467,0.3480636548245397,1.110958733801124
325.74991690408166,0.005081269634761751,-0.12535548364592858,-0.5294816535792572
326.2462017,0.06133606408775114,-0.405404802399619,-0.1622153609356441
326.747500048,0.4796601360047957,0.10390328535960049,-0.27384279234016323
327.24879799999997,-0.8010256014095536,0.4121786526623581,0.6696431237529795
327.75009578,-0.02953177477968091,0.23759706851567663,-0.15866681085467596
328.25139368,0.4683456800904853,-0.0630812879129386,-0.06003710565603008
328.75269144600003,0.12115434209604847,-0.07427165844791585,-0.4512094447757276
329.253989344,-0.5536008919499243,0.3913283377713618,0.8621452309510813
329.75027382040815,0.6101212191049298,-0.6162701605925511,-0.746388257278796
330.24655866,-0.7019882389291037,-0.21643756645624054,-0.09092765886014643
330.74785679599995,0.031173397994196054,0.08221742614869974,0.7320659609398042
331.24915488,-0.7102428938076223,0.0958683515891796,-0.2458292964854278
331.75045313199996,0.10886197913565006,-0.9461293097994365,-0.6926972360836164
332.25175132,0.1291629068590564,0.2045495718619452,0.20428394449803772
332.753049128,-0.6756353148417279,0.3313264750071239,0.4974211589130815
333.25434717999997,0.30611845343478705,-0.27873542266843127,-0.5556874096827504
333.7506326163265,0.11081902366475394,0.08064043847928105,-0.0734503932537833
334.24691789999997,-0.05570403911641939,-0.4115982773028925,-0.2853155797624646
334.74821658,-0.6852114921531978,0.3486255158253414,0.7611127454367482
335.249515044,1.1194284185013736,-0.25153964016209374,-0.5437848858167145
335.750813062,-0.44839803759472796,-0.09299310972883568,-0.4670599434454126
336.25211126,-0.2836469757728479,0.22587769214508044,0.9116779639507467
336.753409588,-0.5170306986392315,0.3457833749828553,-0.01891218765565107
337.2496950102041,0.35475081247695284,-0.5348923260711138,-0.1419019260120494
337.745981024,0.5315389588042475,0.2065441130202114,-0.14905385603196816
338.24727966,-0.941141348210845,0.5796380613146994,0.7657192911597042
338.748577944,0.42980817171212493,-0.4307560460644148,-0.7520322085348249
339.2498764,0.0777049885686346,0.2794758298616745,-0.02745124431042946
339.751175044,-0.5110473211460491,-0.003810484204390432,0.36636086957925984
340.25247386,-0.3401852279608387,0.13838150230413798,0.2998014455536869
340.753773288,0.7231401171155732,0.09583289434778833,-0.28133807796988025
341.25005936326534,-0.2424006672360238,-0.26172410217401915,0.0119213335381778
341.746344562,-0.7304010049916321,0.4818954080387875,0.5170092166304044
342.24764322000004,0.754684220162584,-0.3557193068897959,-0.3676603830188752
342.74894247,-0.2541575618484491,-0.03775460325390072,-0.43273020486502994
343.25024144,-0.6690771772889701,0.24106484861791294,0.8704226002280726
343.75153987199997,0.6566231171452401,-0.5400966312255565,-0.572495605108886
344.252838702,-0.5175385032958328,0.012362846268529166,-0.38184350799335837
344.754138436,-0.5589207778955027,0.322654161851695,0.8083732670029637
345.2504248,0.3837419030355924,-0.3628248909617838,-0.4872261030198528
345.746711348,-0.4168343471510121,-0.1468079443809372,-0.22544525024124618
346.24801099999996,-0.14979157772488377,0.2086114959375689,0.6711227314167709
346.74931031799997,-0.11478140876995804,-0.1582790079541213,-0.38935485235404843
347.2506097,-0.1362615158070934,-0.592020892873462,0.013315119124167803
347.751910144,0.7745818863645342,0.19324482624221243,-0.02808371690821472
348.2532103,-1.3169193725572184,0.6190729017258656,0.8024866912518466
348.74949663877555,0.3570392575336785,-0.5705846137494522,-0.5924906760903598
349.24578418,0.41716902464130606,0.3775670972693492,-0.1761711257149604
349.747084616,-0.39331622188597065,0.08181583529942066,0.29066464887871357
350.24838564,-0.4497064406784999,0.30972296399403115,0.5997578357381694
350.749685952,0.9500526441365512,-0.31334468190157017,-0.5694510817488918
351.25098656,-0.23813375348370422,-0.03319028051574235,-0.40643121856621406
351.75228801799994,-0.06263733509857906,0.20764563473848996,1.0566078237691086
352.25358914,-0.6457329547807268,0.5656927712180824,0.2679153338351009
352.74987720408166,0.34168485316520597,-0.7113125351868977,-0.352256958921006
353.24616534,0.8246876455328745,0.05558158818908859,-0.5583493621530964
353.74746625200004,-0.800783571177396,0.7816860652901707,0.841607763036978
354.24876751999994,-0.07373218941270487,0.2790059080080023,-0.016330092495163786
354.75006936799997,0.9182881980053882,-0.3570430928890192,-0.35767182576371775
355.25137115999996,-0.011373734239881958,-0.09762249053956112,-0.38717214901359087
355.752672992,0.4583808808686598,-0.007641520327930005,0.7765461875798301
356.2539749,-0.9005413044620769,1.0524624047830553,0.6838164255693523
356.7502638653061,0.16434514040145584,0.08678018375612895,-0.007709016046713488
357.24655290000004,0.8924086155213632,-0.27877626694628066,-0.3530841769127154
357.74785498,-0.003127209506116655,0.11745660109098001,-0.33679352385074507
358.24915708000003,0.13841877163627045,0.23660901480097285,1.1055646966759125
358.750459136,-1.0568357519252316,0.6123476176132701,0.444782731847118
359.25176128,0.6971077829018918,-0.733298187462335,-0.5124165116905567
359.75306370799996,0.3050177826963408,0.3132730517647588,-0.4285391252542147
360.24935306326535,0.22788558436001943,-0.2532170906533457,0.41237727382167594
360.74564244,-0.1708910546833497,0.1950607680824341,0.18697407168323182
361.246945,-0.14108557390695675,0.4369407786167455,0.25023669664511156
361.74824828,-0.1482504626546922,0.6293969752949855,0.4097484061725094
362.24955144,0.2566038735666428,-0.5337926709842635,-0.2903153062490433
362.75085440000004,0.03337324763441008,-0.26132194415536036,-0.15321632664552345
363.2521575,0.48429825162748436,0.3868611219687819,-0.27643458241756397
363.75346061999994,-0.18891078372266384,0.14242448630776916,0.5559391627195636
364.2497510142857,-0.6362633427051142,0.6028284344528178,0.7997581459489556
364.74604115,0.8231431556435715,-0.2872030543592917,-0.6686303055394534
365.24734466200005,-0.2616737161206865,-0.40629815852165535,-0.09375454162821864
365.748648838,0.7812312823809543,0.04272432723845197,-0.003231367225529187
366.24995285999995,-1.182296845762376,0.8269111764293414,1.013421615189145
366.751256724,0.10167262102428086,0.3020115638620808,-0.20328519743231993
367.25256074,0.8669043168479295,-0.3584819736085803,-0.23082988836292334
367.75386527,0.04359879759898971,0.20800389483671602,-0.43964650135302996
368.2501567142857,-0.25041285328652424,0.17847679884766288,1.090385628948887
368.74644804,-0.40996279827680504,0.6654538620527197,0.2217031889742357
369.24775252,0.4707902096865197,-0.8016165187870976,-0.4199628008992806
369.74905707,0.3099798031566744,0.586613383662422,-0.2787519713162601
370.25036176000003,-0.015537511838576972,0.05320737302303435,0.36499585291282044
370.751666346,-0.4971102421368338,0.40689032334707514,0.84113113980009
371.252971122,0.592673429608442,-0.3228465851390006,-0.7515096064655132
371.754276284,-0.3076355692163082,-0.3563217225798372,0.0495848915687706
372.250568344898,0.6646010768968722,0.2113548744663939,0.1917235224677871
372.746860468,-1.2001933087807282,0.5467148408057424,0.5831824953461239
373.248165668,0.5785002781316024,-0.132492301239292,-0.6251763790107934
373.749470356,0.24408706850732897,0.29747275076831037,-0.04056869974952027
374.25077541999997,0.21945836078714112,-0.18555233153315662,-0.0006431726257336123
374.752081304,-0.6309287238329273,0.47753779874297886,0.8876906592941364
375.25338694,0.36722954525357066,-0.10537097144950902,-0.6536934724568746
375.7496787102041,-0.2978258465634272,-0.5459519017302453,-0.052943554057987244
376.2459708,0.5317292185165404,0.010028426397808168,-0.057096233368087314
376.74727647599997,-1.201057446078466,0.4091312932002459,0.6340171584516135
377.24858204,0.1478622427408004,0.1757969778280942,-0.3481531173060576
377.749888068,0.2481164295572329,-0.24253533979913705,0.0037832047376829257
378.25119381999997,0.14407350841359698,-0.2203613570032653,-0.43916037918051726
378.75249912,-0.7063637388010109,0.49001542064842796,1.0255514712712457
379.2538046,0.6088515776140088,-0.4598908114683755,-0.8597707670625978
379.75009699183676,-0.843460511989979,-0.5369970536483369,0.14052572402949198
380.246389586,-0.13245736941426706,0.030013824575049072,0.6440692851908714
380.74769596600004,-0.2047561915524833,0.4326251007407011,-0.2818991707157587
381.249002,0.18823864027488826,-0.770486669318096,-0.38949996498664574
381.75030774,0.3495213683955242,-0.031499141209683175,-0.23830773016396178
382.25161338,-1.1814314920863627,0.45004303835944065,0.9065657633676166
382.752918354,0.25729540067738177,-0.2993676955196721,-0.7545474460747841
383.25422366,0.16639890494789103,-0.05728721635240433,-0.004687790337001744
383.7505167530612,-0.002335321770175895,-0.2601057891605481,-0.16067767247994044
384.24680958,-0.5814073836564213,0.37863483082064486,0.6593963225419366
384.74811515,0.722525872730948,-0.5473211381271694,-0.5280031654618246
385.24942068800004,-0.4008446300979635,-0.027911173173994466,-0.47339824856897794
385.750726518,-0.31230417537415467,0.2553981132828192,0.9578694120218638
386.2520323,-0.42093889180277366,0.16471668094288858,-0.07270702442765659
386.753337886,-0.0461044017929581,-0.745434566704105,-0.3023565033707267
387.24963044693874,0.671222840958403,0.04943977050761808,0.009717493493950737
387.74592287599995,-0.8565831578688712,0.5147911228526705,0.4939024537361105
388.24722840000004,0.4790708784079351,-0.38373939332671886,-0.5440927733777372
388.748533504,0.13203121107278595,0.24982206981446853,-0.19052361576869908
389.2498388,-0.09526420821344779,-0.2723022202968389,-0.03191016759237422
389.751144538,-0.9327186615589206,0.23284447372019776,0.9035502976210705
390.25245012,0.7935383182252493,-0.23140035434005982,-0.4777488796009904
390.753755524,-0.3607150522439794,-0.5728790450829461,-0.37077852198308503
391.2500479122449,0.20343432015104002,-0.08314383681204522,0.5671370533132017
391.74634000799995,-0.9032162926684728,0.7657976695774633,0.43910988413830593
392.24764526,0.31051568596000495,-0.7762297524557544,-0.44275145246493525
392.74895087600004,-0.1404199289570135,0.16209932547879505,-0.0386828090651833
393.25025633999996,0.22308217649122786,-0.26750861285854766,-0.34574935822282044
393.75156146399996,-0.7785155684862376,0.329775976922456,1.0452993692648707
394.25286668,-0.05126752683786038,0.034398531946703115,-0.31094991474164163
394.754171808,-0.13583298453158574,-0.8734447043120167,-0.12942863310384323
395.25046395714287,0.8278777580676993,-0.09017167940923392,-0.2891531730773738
395.746756796,-1.2103459104008685,0.6692169097575529,0.7370353489133215
396.2480624,-0.40535267053794266,0.04807783237545822,0.08822163658217541
396.749367172,0.7507426457298427,-0.4361248045004887,-0.1983425380959555
397.25067214,-0.15662140718796547,-0.17981765634806912,-0.5059616908384273
397.75197804000004,-0.3561118278992644,0.011639804534327097,0.9479061106056764
398.25328362,-0.7307809172374227,0.2974221981524005,0.1449688997991849
398.7495755367347,0.1256040404245581,-0.7026043183493126,-0.40778824735411023
399.24586758,0.026737687044627628,0.22995830679196616,-0.13893020611223647
399.74717267200003,0.2762654256566671,-0.46596226434106774,-0.15512247769682427
400.24847786,-0.7198920169270409,0.3738711676641097,1.0669406160525
400.74978355,-0.3575433339682322,-0.01918250160130798,-0.04707962396463824
401.25108912,0.05686538915200876,-0.7203223755802844,-0.2957059364654151
401.75239452,0.3774714405374823,0.45967161374342536,-0.1864907488230387
402.25370000000004,-0.12300953020788548,-0.20159777483770305,0.19879520766082742
402.74999261836734,-0.8189020333300212,0.4655511890814186,0.7706990945004952
403.24628524,0.8453280741372221,-0.3985031841966889,-0.7036227569420441
403.747590162,-0.5403250454410883,-0.4674145198023929,-0.0679520741076661
404.24889542,0.5553397085786206,0.051768031722592055,0.4730497421385936
404.75020143200004,-1.4031955770463858,0.6317991871429627,0.810976509347715
405.2515074,0.23963649914646015,-0.26521679110132657,-0.4968983830288045
405.75281318000003,0.0004271674610364373,0.0003953653833428561,-0.0934556556497919
406.254119,0.0406207691967023,-0.5157129428744068,-0.32581570439023916
406.7504116326531,-1.0356050083232256,0.28600605577356414,0.802140703249004
407.246704448,0.7720375998346057,-0.29926074665310554,-0.5053129290352755
407.748010418,-0.5969045362134945,-0.47434700744564784,-0.022753111807320047
408.24931649999996,0.3489499985366449,0.0152566204178342,0.47622888643283773
408.750623034,-1.2774939179459737,0.826250453816879,0.7322942944791301
409.25192946199996,0.462529092757056,-0.7590608843965243,-0.5799892376406883
409.753235742,0.03136089200419885,0.2809677341474925,-0.2812229745322982
410.24952897959184,-0.19896801216366866,-0.21313981319223688,0.01829486753609038
410.74582202,-0.6198306252574143,0.1297567668894659,0.6801740629664172
411.24712833999996,0.678551316438912,-0.32651940589116407,-0.6608420061297882
411.74843514,-0.36945875659584215,-0.3620755996239447,-0.18013562315468545
412.24974199999997,0.007111868811944637,0.15666390466520258,0.9015707709435737
412.7510488,-1.1337719256443608,0.38974225051919376,0.4424518306052109
413.25235559,0.20346119721819164,-0.858260400201128,-0.6921983718307296
413.7536622,0.10333755250336328,0.13429072000375045,-0.03797559668009502
414.2499558795918,-0.4913104190621484,0.3286222376250166,0.3725595251250813
414.74624952,-0.20762181821044046,0.02435586960769008,-0.05943199805061389
415.24755647999996,0.35259812685260783,-0.2393170730017384,-0.13834486023719544
415.74886363999997,-0.07779893925436845,-0.19807946062091616,-0.23802898933917624
416.2501709,-0.6089234906389511,0.36188971357078,0.8782440147470847
416.75147888,0.7847247498134169,-0.41312387751822427,-0.6227984370864676
417.25278676,-0.46805508909326493,-0.21305781554840275,-0.5177150306783261
417.75409416,-0.16262599472616115,0.32271863333699585,1.1849729844640238
418.25038863061224,-0.3180490814720341,0.023277339390898086,-0.43228809738394547
418.74668336,-0.32036388309352803,-0.8105045655557993,-0.12357663556842374
419.24799121999996,0.9465546811047041,0.17120452874890799,-0.2918249314393984
419.749299278,-1.1843397649772878,0.7252229496260437,0.799479428646598
420.25060746,0.07637364496552483,-0.2233172830447507,-0.14008312262860925
420.751915178,0.36579688388690756,0.16369678819994601,-0.24520948213862784
421.25322314,-0.24025213002456927,-0.6173653678201222,0.08318610269944106
421.7495188204082,-0.5055577612758214,0.7061189323213215,0.6382074712805642
422.24581456,0.5829743082828791,-0.6378593089326479,-0.6651293303589496
422.747123454,-0.40810085599714463,-0.08408072074282577,-0.32791656706756966
423.24843238,-0.2891834627542458,0.5002691085101039,1.0190169159530948
423.749740972,-0.2733752697157971,0.06644097088454978,-0.27469851356991326
424.25104978,0.14842731694333008,-0.9420521806455779,-0.31261710387605474
424.752359346,0.7704794275603287,0.04339867602492643,0.11497922849846143
425.25366892,-1.4168886755894476,0.6974621302202039,0.6194016923078963
425.749965222449,0.3121374589582884,-0.7722423577891167,-0.6985112519883289
426.2462616,-0.18564393029301493,0.30277016977784377,0.10969981459785327
426.74757058,-0.03755875157526281,-0.317103711904528,0.03563258524150889
427.24887975999997,-0.5843866121906249,0.49022682548316804,0.6620363789907755
427.750189596,0.591566845445172,-0.3413541403340284,-0.4473179778650932
428.25149940000006,-0.28756001638069906,-0.19720840662988112,-0.42304000929276775
428.752809452,-0.36046891752497046,0.3693942718049319,0.9954157942618881
429.25411954000003,-0.19983006533999187,0.1358229051539548,-0.29740608061254137
429.750416177551,0.07560103463403482,-0.7690540798106213,-0.13501147510923336
430.24671307999995,0.7724919368996557,0.3248783136445356,-0.20974943411700064
430.748023388,-1.0961531745305058,0.7316003062094653,0.9955206063623482
431.24933376,0.019906794073343333,-0.7856597680186312,-0.5038258899316124
431.750643948,0.4683416244758719,0.2785153347746705,-0.28731216847923774
432.25195426,-0.6249414727865558,0.33169851756239693,0.598329181321711
432.75326468400004,-0.01291845192568843,-0.01268151524609972,-0.23350479153821332
433.24956204897956,0.270698581384324,-0.03862959164143863,0.04202575552010383
433.745859468,0.08440739397907628,-0.2302763693912113,-0.4322106529152105
434.24717003999996,-0.7462382723760578,0.3978781861162901,0.9794181083981508
434.74848123199996,0.3526090602273573,-0.38728732291058166,-0.6922762490692211
435.24979234,-0.552571743401423,-0.16685281367053634,0.041434627894177005
435.751103296,-0.062146098516731654,0.33350927923605184,0.8103439757023598
436.25241426,-0.26426958709207465,0.09666385141832767,-0.3022326390433573
436.753724828,0.04330518583332326,-0.967781649186775,-0.4100768069848988
437.2500224795918,0.9065408683048171,0.07711722382131521,0.20566407099138204
437.74632054200003,-1.3869107719944802,0.6341858912752143,0.4036306701353262
438.2476318,0.1375271197315689,-0.3423863752421256,-0.39720525823812464
438.74894321,0.2736229513053528,-0.4142404187624357,-0.12823464451998298
439.25025464,0.1021457149699187,-0.39636940887101857,-0.6141668075874932
439.75156567799996,-0.1283182876457183,0.0031716582444443553,0.9991821166482906
440.25287676,-1.1469018972313882,0.6029357672284553,0.32068068414765266
440.754187724,0.01517283718184478,-0.20071544882471015,-0.29203996634734575
441.2504855836735,0.6672595276677628,-0.12318985865661439,-0.4553890240970676
441.74678401,0.049663839428427316,-0.1537868324202124,-0.08184833160868912
442.2480956,-0.4944146691347707,0.42480451625387317,1.0839979777379074
442.749406724,-0.5216654013471408,0.04611303849549492,-0.021950242291627974
443.25071790000004,0.285043664995867,-0.6606308884236803,-0.35445331000551533
443.75202951600005,0.40937918361102105,0.7708556758822885,-0.059330541278139304
444.25334111999996,-0.05597833564514636,-0.46882469557272716,-0.021811408199663925
444.74963943061226,-0.9129440068209288,0.25189295956038443,0.736379840121712
445.24593778,0.0007689557889934595,-0.30971651807843475,-0.7258075276560255
445.74724932,0.784429240078884,-0.5216229956138013,0.12305110153472251
446.24856086,-0.3230733830845448,-0.8487401738994896,0.5651256025827195
446.74987218,-0.36559160588515793,1.2075270441224637,-2.920078791353853
447.25118358,-0.2942979995518392,-0.6948477411227499,-0.12899431408711953
447.75249529399997,1.0203531178909102,-1.8860771080452934,-0.045558053276317796
448.25380694,-0.8585879079126165,-1.0374872486946833,2.0243474744242547
448.7501058387755,-1.8249968062919086,1.1063833901390745,-1.3059116805156201
449.24640472,1.4672656246427527,-1.4143842639611077,-1.290868777284746
449.74771625200003,-0.10442528238275198,-1.547242092986784,2.970152023599734
450.24902782,-1.2905176642195835,0.7909859509881693,-1.5257496465068519
450.75033971600004,1.1099683534428264,-1.0035065082747552,-1.897109590445308
451.2516517,-0.1831495413473241,-2.3129735247046646,2.724597644698517
451.752963272,-1.7979144857089988,0.34656982100234324,-1.8522223085302831
452.25427488,-0.7733759448802846,-1.1323136185644582,1.0885527525155936
452.75057381428576,0.48437020961058086,-1.9324635906925487,-1.9007204530730057
453.24687278,-1.3186127332785278,-0.6097543317668227,1.5887692451343614
453.74818430799996,-1.137130796647533,0.7432065529513416,-0.3147743866487586
454.24949591999996,0.7593929197314143,-1.8166837632063906,-1.3979344163899814
454.75080821000006,-0.5860282317286898,-1.8896950800021957,2.5088571512815974
455.25212049000004,-1.7209166950600219,1.40809314968972,-0.974576036214197
455.753432462,0.8096062533487277,-1.4868672102753453,-1.6433016423439366
456.24973138367346,0.7160819321006956,-2.0457269046281157,2.598605203892307
456.74602997,-1.527635281968464,0.30924375009961685,-1.0037956287914285
457.24734170000005,-0.38947261608584754,0.21263560871718248,-1.5922811029575596
457.74865421000004,0.6562937632436325,-2.2451388992558194,2.717686213836651
458.24996678,-0.5356995248984014,-0.368647282553287,-0.628785672532135
458.75127892999996,-1.7005595974196321,0.9414675643150332,-1.5593889525651596
459.25259114,0.16051820027010655,-2.2735152225091317,2.627709512939514
459.753903416,0.08256299494492714,-1.5179914315175445,-1.396077002932937
460.25020261428574,-2.4926134569239276,1.435025835248329,-0.5701552049795884
460.74650168,-0.17073379661096816,-1.8964078958317419,1.84296603533889
461.24781386,0.7708287566202388,-2.1020676026974585,-1.8403109303958942
461.74912617,-1.5185742890244052,0.0689394074383091,1.0924292754259683
462.2504384,-1.3500139913092064,-0.5738683294224267,0.32891225166737015
462.75175088000003,1.123185456986082,-2.39558918167569,-1.88459514774789
463.25306314,-1.9250827799002088,-0.36161922420366155,1.6143504331745613
463.74936256122453,-1.3598227506264968,-0.3230049338994996,0.26932532034013545
464.24566182,0.8107721716178833,-2.2630605677692026,-1.7603287661250127
464.74697424,-1.3139932621433104,-1.4937642090740046,2.113561544951568
465.24828676,-1.918830530679967,0.5040622720263734,-0.5719853462219744
465.749599144,0.7983451678827523,-1.6710872877198155,-1.828311973655979
466.25091156,-0.47302616153445515,-1.1100025854416737,2.7054263485591314
466.75222401599996,-0.6324884042450382,1.4549610642799926,-0.6229469055213215
467.25353669199995,1.0573700707444942,-1.0697671682739256,-1.274799533682035
467.74983583673463,0.7380732408612887,-1.4518345822995682,2.531004481778963
468.246135088,-1.7998373347020942,1.6841819543773182,-0.5850219870724644
468.747447988,0.6418992199948385,-1.0958968250398553,-1.4983844525437666
469.24876102,0.9308078023114703,-2.069114839475236,2.7863351729158436
469.750073768,-1.2950211463244243,1.00627223367808,-0.8069697342904617
470.25138654,0.10443296054424966,-0.016636075088356808,-1.6427448073697537
470.75269897,1.2533610089252896,-1.956092301385124,2.9970944435026814
471.254011352,-0.240359405657729,0.04812547630732304,-0.7400900558083301
471.75031134693876,-0.9016484258740513,1.107892729768878,-1.6681957712501356
472.24661138000005,1.0578403090770427,-1.7975417660321427,3.1690488867367215
472.747924056,0.6574504489238816,-0.8301100697993112,-0.8709785191306202
473.24923664,-1.321157367140716,1.6364216585460765,-1.119653812325504
473.750549472,1.032219917860778,-1.6662922462127165,3.019547428807485
474.25186229999997,1.0174702211799889,-0.8963102056595315,-1.1679360093299416
474.753175304,-1.257575881723049,1.9163487210531627,-1.0403756259685966
475.2494752510204,1.0048909667275236,-1.2539355197075899,3.1662971707943415
475.74577517800003,1.5836888408140921,-1.4132584857756751,-1.6943552821594527
476.24708832,-1.891304159219872,2.114014746647706,-0.11208515403632592
476.748401134,0.7037647921728802,-1.0271537186843787,2.4796599648348168
477.24971404,1.7331011459771397,-1.9269316162162815,-1.6060809013318704
477.75102702600003,-1.5248583599467886,1.1863743826679072,1.6958263133601938
478.25234006,0.14370095609428132,0.31385465547596403,0.4765146552556137
478.75365289399997,1.626389285827675,-1.9310798642109221,-1.2302843843430937
479.24995265510205,-0.5889298405388874,-0.7583078518527101,2.301548683340786
479.74625222000003,-1.5443911119855844,1.4116101252150344,-0.33738733665312265
480.24756486,1.1130221560644364,-1.908066542883873,-1.7404253202336586
480.748878096,-0.3570592833897826,-1.8746387747188171,2.4573208016825774
481.25019138000005,-2.1801495314280266,1.3698219477884586,-0.667303142267236
481.75150418199996,0.7227250382869107,-1.918817824446287,-1.62681563416916
482.25281702,0.2426406981430447,-2.0172297396184034,2.7438992326189267
482.75413013799994,-1.9458849105602447,1.2156985732646857,-1.090252210153832
483.250430122449,-0.007349146906938664,-1.0992226461039738,-1.4302068367885243
483.746729804,0.6170731739071671,-2.5372898085137705,3.0496398855698765
484.24804262,-0.8882579806437357,0.29795193397073744,-1.3750971424161074
484.749355592,-1.0494068971584094,0.3513354795667371,-1.4450454583039174
485.25066862,0.670564932496613,-1.9245267743508103,3.0786220073254573
485.75198187200004,0.293620355159531,-1.3471448677671791,-1.3343858815520904
486.25329522,-2.0392281845811953,1.6048729507097743,-0.38137653677108196
486.749595467347,-0.47760282349563926,-1.6701231623744046,2.4589475920928594
487.24589579999997,1.1748994000287336,-2.318159467067682,-1.8117668794996473
487.747209336,-1.9337136437844453,0.4319493431110435,0.6826809530454139
488.24852294,-1.1506013305588143,-0.7171072104555258,1.1721936595669242
488.74983596,0.8115488515795913,-2.4410460040333195,-1.7257771055760056
489.25114892,-1.7447333405642658,-0.5312981029140604,1.6686323211250853
489.75246256400004,-1.0261431699152432,0.9245904741316504,0.020701512473001484
490.25377626,1.3526451878009507,-2.0172669817451174,-1.228193938666005
490.7500770040816,-0.3990605975598666,-0.8952441335279141,2.5648378225435127
491.24637786200003,-1.7473371664264574,1.799756146457294,-0.1622365497600915
491.747691366,1.2012954237656548,-1.8070780063971887,-1.34225320155666
492.24900478,0.6232933096336217,-1.2595898850087623,2.8026254825536743
492.750318482,-1.389225497398138,2.18774319249689,-0.5978895758151581
493.25163224000005,1.2463261439827447,-1.233868627679261,-1.2415920312554831
493.75294576400006,0.9256010740896322,-1.3213492910459095,2.967258850384177
494.2542593,-1.466746727380487,1.859424054523583,-0.7739098699874007
494.75055985714283,0.692231483090046,-0.7893180436443441,-1.4348250057937721
495.24686034,1.306472448365667,-1.6920764893565723,3.069500320620361
495.748174452,-0.9811849226668977,1.168037400621922,-0.8043613517624995
496.24948866,0.19754680505353675,-0.2787312393499104,-1.5449204928957476
496.75080256,1.0565798393187256,-2.2370691417258604,3.2964467218394615
497.25211654,-1.472843594582536,0.35137560538916224,-0.5605638415882533
497.75343050199996,-0.5963815651459149,-0.5243347195332518,-1.8229246135876682
498.24973140612246,-0.07700131403481987,-2.554873937491161,2.928815725654398
498.74603224,-1.5654862436314776,-1.214650406476028,-1.1551685073491942
499.24734612,-1.956015814889915,0.2413039192212643,-2.001001764733553
499.748660222,-0.20657214918970918,-3.170857771339341,2.458557856697476
500.2499744,-2.3068381885606715,-1.1280453838350863,-1.6828788997571167
500.751288336,-1.6384372533789022,-0.3918277397616519,-2.2568045855052823
501.25260233,-0.6053782788343719,-3.420815817032661,2.776604360465336
501.753916504,-2.625310216872738,0.26905951494679564,-1.4911313700005704
502.25021755714283,-1.1753915699938688,-1.1618639267479602,-1.8072890497348848
502.74651872000004,0.2986218696719219,-3.0335156555694174,3.4269908147166985
503.2478331,-1.0092051002088112,-0.42619910916172965,-1.2549390635420425
503.74914751999995,-1.7618655092508144,0.4439365711759621,-1.817195652942864
504.25046206,-0.12074823408657658,-2.669488509496666,2.635577060085897
504.7517762,-0.4543452421302632,-1.664679085016095,-1.2420387102037427
505.25309018,-2.812013437042178,1.0845489268009236,-0.45289502581726976
505.74939122040814,-0.926323977621006,-2.0021495442714428,1.600189088728512
506.24569206,0.36681003914713656,-2.2508996929671117,-2.1167802294171327
506.74700623999996,-1.3921294029126912,-1.984936855682512,2.59513361200285
507.24832038,-2.665299811165671,0.8555460620118036,-1.189250210044513
507.74963477999995,0.20100078844913066,-1.8492546365164861,-1.973493431904045
508.25094932,-0.3288007522587106,-2.69658992388012,2.790585474730776
508.75226368000006,-1.3954447599978892,0.35104694051424873,-1.4581799165908276
509.25357814,-0.8249458904233786,-0.10738081533131619,-1.6256589682014817
509.74987905102034,0.3576315699566311,-2.2213612525645803,3.2369602574589864
510.24617988,1.0680472986532588,-1.6136622499853641,-1.9665169410353087
510.747494332,-2.0856212894987847,1.730683953107757,-0.04489612639176542
511.24880890000003,0.24760622095166643,-1.0002356522171676,1.9549848526154554
511.75012336,1.5137159650009457,-1.441769773674618,-1.5300520884991122
512.25143798,0.08256205704971631,-0.8965613782640277,2.484747447303871
512.75275202,-1.240163465734015,2.240377323763569,-0.4410584219577844
513.25406588,1.1284204070555586,-1.2661046454154536,-1.47083502297519
513.7503673693877,0.9171026103315577,-1.7497852543596624,3.291609722694416
514.2466690599999,-0.2550903287296941,0.6078047457337735,-1.1054361309360143
514.7479836,-0.2594571278849592,0.4277258226296378,-1.6614170240353565
515.24929818,0.6158658434185615,-1.780527380827484,3.477627284503492
515.7506127820001,0.6740778268076991,-1.387299541901126,-1.3610927875692496
516.25192742,-1.9910688701163093,1.8756049271400672,-1.0891370713586428
516.753241912,0.13907412244412978,-1.9461555930528116,3.0168842348683427
517.2495431897959,0.55692537300965,-2.330278192986607,-1.8080187282488356
517.74584513,-2.0344430679695282,0.7667057792933099,1.1402623473155697
518.2471605400001,-1.0698285923650621,-0.6890644170042686,0.78636658208967
518.748475652,0.22306495718817046,-1.8052298162786204,-1.905794272103583
519.24979102,-0.4725147988567385,-2.0918391859908634,2.643190500311697
519.7511060639999,-2.4181260564628797,1.1718409932500973,-1.069291163417068
520.25242112,0.09033031365055941,-2.2044508541687877,-1.7985433563697415
520.753736402,-0.8106544946956464,-2.641931344117349,2.7703971849724294
521.2500385897958,-2.94246889566217,0.7080912985736614,-1.4308070578876722
521.7463408,-0.7887571087222922,-1.6530202976190114,-1.853587571881928
522.2476560800001,-0.551915190929811,-2.9429920202939015,3.024651781176962
522.748971984,-1.5557059560280695,-0.11329971305511347,-1.5784453357387584
523.25028808,-1.7481629370588536,-0.20619812141995286,-1.6285063277420866
523.751604,-0.32241608094572494,-2.8155522743301735,3.2820521573529824
524.25292,0.039823390440664415,-2.1310076374396094,-2.159958535778631
524.754236032,-2.520873002413964,0.921200774928885,-0.49203615864365147
525.2505389040816,-0.9412906515657898,-2.168046064599032,1.890402150344347
525.746842244,0.056569213755797085,-2.309910022767113,-1.7709363687847555
526.24815902,-0.7450592990002082,-1.9426481150510497,1.9896871131537182
526.749475072,-2.6343441568107915,1.143089277914756,-1.1558230193594354
527.25079124,0.02880117589466648,-2.0418094469705927,-1.7153820865463978
527.752107972,-0.5503988554263309,-2.6970915896116634,2.9651452028258825
528.25342476,-1.8593971276544103,-0.2518360573993476,-1.4190400967350467
528.7497282040816,-1.8936446994865455,-0.05058277288400535,-1.7811561043879833
529.2460319,-0.7654565534887413,-2.547791159211582,2.4803960850686586
529.747348916,0.7251152621678091,-2.6310864684091033,-2.3502773014540397
530.24866616,-2.201064353729581,0.25227053566483926,1.1461035185858301
530.749983044,-0.9444150331762715,-0.22747666505202496,0.4017669440574027
531.2512998459999,0.7228505602323106,-2.307009307654643,-1.7501306693501733
531.7526174019999,-0.1483024249052478,-1.6694512709377411,2.3868543807248983
532.253935306,-1.9576364984317922,1.1316902924481131,-0.8522026067387485
532.7502394591837,0.21149996382520406,-0.9212970264078321,-1.9892344721740347
533.24654376,0.6287843878374817,-2.1101485023619273,3.2505109477566276
533.747860908,-0.018557949893465563,-0.7037798350982666,-0.8759634783274269
534.24917792,-1.7718076502223619,1.209389611863292,-1.248242982583263
534.750495344,-0.2736318709927836,-1.671950992864184,2.6748645766097923
535.2518126800001,1.2854632645633404,-2.098725774158177,-1.8988505878545803
535.753130422,-1.6246895009316242,-0.4448985171236917,1.967645188517945
536.2494351142858,-1.5007939579156289,0.965390273009766,0.1310228498991057
536.745739596,0.4286122381705392,-1.9859162416407923,-1.716344525011455
537.24705722,0.0659804530680048,-2.409471454720081,2.3515068873649994
537.748375094,-1.7441674494389678,1.1445337592718998,-0.9904847491218782
538.2496931860001,0.09843387776776492,-1.0199029599035214,-1.7553222932532515
538.7510109360001,0.7200359098261289,-2.335909370430836,2.8178218386567226
539.25232852,-1.3581419475075924,0.4955516625199713,-0.5883760856821492
539.7536464159999,-0.28190828754528324,0.17057149163444893,-1.8499088094570837
540.2499513489796,1.3697562026025032,-2.1238639882981984,2.9328866927102584
540.746255976,-0.5177413606653181,0.27088938693251463,-0.8565171681778929
541.247573708,-0.5248237911878639,0.564238304612825,-1.4980861484886498
541.7488914959999,1.3544812871706833,-1.9486054336180916,3.042196349638782
542.2502092,-0.4593239778239113,0.19532178870532402,-0.7936850463772047
542.75152728,-0.4128167197835472,0.7125300465884696,-1.8209564525104383
543.25284556,1.5137917985094234,-2.1564666187731225,3.04002225611482
543.7541635,-0.9248862348674421,1.403555614757449,-0.7194221322946457
544.2504682857143,0.16304891316588116,-0.13414517232753326,-1.291566586702845
544.746773036,1.4171603158283022,-1.9867912036956097,2.9450510236108975
545.2480909000001,-1.2225331668262396,1.4150075497096173,-0.7415817550618101
545.749408972,0.4840463677436936,-0.29368351684394656,-1.5683341393384942
546.25072708,1.175972781712462,-1.9941967028874124,3.0012058840127174
546.7520450320001,-0.41645162117552326,1.0798851574894157,-0.6744520930361247
547.2533628599999,0.15581344413325016,-0.012979054454588725,-1.5422007219036644
547.7496677142857,1.1937240073438617,-1.7924453727800522,3.3202280533240636
548.24597254,-0.3485863363232158,0.6895906449290337,-0.7656214837246604
548.74729069,-0.31221081373351084,0.3621474629161105,-1.4557162245569066
549.248609,1.3501277256825117,-1.6130689759683576,3.280549399029147
549.749927004,0.2156922087782722,-0.6059961481825041,-0.8992465933500918
550.2512448800001,-1.060082033117637,1.3762345361432142,-1.4645208739212643
550.752562916,0.5510843027766755,-1.9763809738280733,3.3520429049443856
551.253880926,0.38561259539356496,-1.6881160016398686,-1.3230750290976132
551.7501860163266,-2.4506444719808425,1.7808313339028616,-0.8048334433455405
552.24649152,0.06770325077066408,-1.8147939459098938,2.285876995158489
552.7478097420001,0.8197352506151574,-2.4468579561169506,-1.422140716427134
553.249127962,-1.993100118526163,0.6871886677803428,1.1281242347190028
553.750445956,-0.5608299911598007,-0.20606515952602283,0.7689576230524457
554.251763768,1.0744760034127459,-2.7851325029807183,-1.7727874580621974
554.753081964,-1.4496425369980448,-0.20152738051528324,2.0987808847724874
555.2493869897959,-1.143685624832471,0.7551369085338814,0.27174920805808556
555.745691984,0.9600734507436666,-2.159049931936745,-1.7331645795825128
556.2470102,0.7241595099449312,-1.9476406925578262,2.7617914187061685
556.74832833,-1.6479545181817783,1.5576935271774917,-0.649555345782187
557.249646148,-0.44389821040461785,-0.4473428814432656,-1.8152819692032753
557.7509646899999,0.036444909169466085,-2.096598738805089,3.1161023154208762
558.25228358,-0.06848850796892358,-1.3607481808167194,-0.7790535633793375
558.75360176,-2.5829144492935048,1.5826424977738316,-0.9332987465514471
559.2499066551021,-0.37639043305586783,-1.918626560359551,2.276345150550386
559.74621174,1.0904068761032784,-2.0513594430848645,-1.6468720706267939
560.24753002,-1.6048485005737643,-0.5546140203276778,1.9340706656412083
560.748848312,-1.4075627846296803,0.564174724778052,0.19699131190360736
561.25016654,0.6081822005715112,-2.3776421200028697,-1.9382262685176121
561.751484748,-0.7633446366443973,-2.0342531473910284,3.4935485059140285
562.2528028199999,-2.5500874658857464,1.4215963983549949,-0.654978328884835
562.7541212,0.10709494923401706,-1.9144166272721295,-1.8034226991064932
563.2504264204081,0.5212914958166232,-2.365302400247814,2.99392153459392
563.74673186,-0.6863860330143597,-0.6108711369253977,-0.9903241434530011
564.24805068,-1.5220535489956453,1.0581349840436638,-1.1797257905148602
564.7493693399999,0.7938684428560806,-1.2820920246636707,2.835035143228162
565.25068832,1.2368750583368842,-1.5216870265836693,-1.2930269420939222
565.752006816,-1.6770973742920474,1.7616331334838315,1.4003194705876398
566.2533252,-0.10967861616119187,-0.06027530552503043,1.1198614887224985
566.7496306183674,1.1158650451867602,-1.4242352485355096,-1.5737867078615686
567.245936,0.4963539955467503,-1.5486725440655462,2.7171549497080774
567.74725453,-1.3028344349706744,2.0281217896606494,-0.6787144968696995
568.2485729,0.37171570873764403,-0.6600877686195814,-1.509149047518954
568.749891606,1.0632021959665008,-1.6297206538916487,3.3118808427355897
569.2512104,0.7496116760185242,-0.8388880871936658,-1.3435306318677867
569.752529176,-1.2583376816506981,2.2704124578623026,-0.833073024829902
570.253848044,1.1847007158567242,-0.42988830704938846,2.9625021778921137
570.7501536938776,2.005485727444892,-1.0831586847020502,-1.660402999279493
571.2464596020001,-0.1960282816390263,1.179433916675424,2.0095033768179196
571.747778314,0.7470185311518588,2.6374197908180523,0.2927738673885202
572.24909688,2.719518556135357,0.15762145324684163,-2.118053474432934
572.750415544,2.544187637962018,0.24024550788446838,2.977502464776263
573.2517339,0.1490390465733136,2.9548267564367188,-0.4074500438563746
573.75305296,1.202551986115983,0.2501660058354836,-2.2644404262130466
574.2493593387755,0.9731452315764061,-1.3084712028643661,3.370300084111935
574.745664732,0.5398986734151352,-1.3318135110136355,-1.6648520681254722
575.246982946,-1.6251180776618455,1.942791111548114,-0.8176765547326573
575.74830167,0.8327800160016358,-1.0269722013903737,2.5719342995484777
576.24962038,1.3880275446469292,-2.0891171326439677,-1.775013348131931
576.750939264,-1.1197033528199325,0.57701869798399,2.1476305278462116
577.2522584,-0.020615190097382007,1.0412343684343481,0.2632911466506631
577.753577214,1.335200231944025,-0.9507406975628149,-1.7485784335547212
578.2498827591836,1.1067032011257796,-1.7673847048066869,2.973485554578507
578.746188416,-0.7269368809997405,0.9657824583915913,-1.0895597159672086
579.247507206,-0.7189883340623091,0.23804108573027535,-1.5968552599667545
579.748826268,0.7192195994433991,-2.2551826595437863,3.11891139548217
580.25014568,0.8183276493471656,-1.008988583403449,-1.609762590556194
580.75146444,-2.1181191988951484,1.4974624450651166,1.0080341878684171
581.252783,-0.50846505081446,-0.47289362490472586,1.2282945269385521
581.754101802,0.5928251543087861,-1.4219302804727325,-1.8957615740365954
582.2504073755102,-0.23952347090337417,-2.2309234284127673,3.005202364626323
582.746713152,-0.8097804639523974,-1.616393223842203,-1.533483763559672
583.24803196,-2.5954924683034193,1.276986090316575,-0.5061925363534067
583.749350952,-1.3786932487290093,-1.4110428443586176,1.3517183553495193
584.2506698679999,0.707947423304221,-2.3651712862448147,-1.664943594925279
584.751988416,0.21260083291189322,-1.638989187669705,2.6406097035315748
585.2533067,-1.0977649382709913,0.43903405124178435,-1.1342472288255665
585.7496117857143,-0.7484453350947288,0.35182576877516275,-1.9967944464368705
586.24591672,0.5604411205668127,-1.881275318639962,2.8904341768981006
586.74723479,0.6345279691245671,-1.4653099679149464,-1.4951995300768974
587.24855304,-1.9634366720703,1.1706066467490306,1.247342498212872
587.749870898,-0.18677435017182917,-0.16772862937062738,0.814670475682878
588.25118852,0.8248600916300345,-1.3788985333002606,-1.7133377315042029
588.752506154,0.313357471282252,-2.118997811356848,2.8629761648695453
589.253823642,-1.581958754589835,0.290630429695937,-0.9551525693804733
589.7501280897959,-1.0576606409714442,0.2700219973760528,-1.8637318791441086
590.24643244,-0.20567618125100848,-2.084169095963676,3.1602718947103683
590.747750056,0.8036827748862688,-2.0104299052288623,-2.0627354214542093
591.24906752,-1.8156191949881246,0.03487579188155504,1.6806007029947876
591.750385292,-0.905460503163445,0.727664305334612,0.2378131782974496
592.25170348,0.9120739924446586,-1.788779071603718,-1.6449366916752137
592.753021062,0.432613808003416,-1.8405944093535112,2.898483862164974
593.25433816,-1.3018896287523265,1.4330524510508236,-0.6177843680850168
593.7506430183673,0.01357122559183939,-0.00969151209999381,-1.930215674749272
594.24694827,1.0824125796691704,-1.4906354268889408,3.380637110375144
594.7482662580001,0.7385491981306818,-1.1538040633629436,-1.0744392905576594
595.24958434,-1.9582151459246608,2.031986995139057,-0.39343795155228944
595.750902734,0.414010655797845,-0.6221291392868852,2.380776767625171
596.252221502,1.5544803749324263,-1.870567548240061,-1.5258287659719683
596.753540004,0.1168172699254923,-0.2676624740721407,2.3874461884731675
597.2498454285715,-0.8126558497832987,1.6412333290659928,-0.2955826644113866
597.74615076,1.1802378113201877,-1.3051314397536293,-1.8288418641944195
598.2474686999999,1.1634047603205762,-1.8950552340283895,3.071442973909451
598.7487879199999,-0.9960909169638086,1.6713626644028237,-0.33823127302839084
599.2501078,0.4648703501009631,-0.40452391236172347,-1.9151013863906128
599.75142722,1.2564511240219778,-1.7849342608621859,3.3116790864457757
600.25274694,0.24446576211236498,0.10382341027920233,-1.0322154536177002
600.754066494,-0.9805617685019986,1.3358636715203465,-1.2120404901291828
601.2503729,1.05160608881313,-1.3203645898945837,3.417017886201315
601.7466796,1.4841293942876732,-1.68253455014437,-1.8758548855717996
602.24799932,-1.9891215659522081,2.276652957101744,0.7475487514709439
602.749319924,0.8647575015382549,-0.33367839374630187,1.6857804430201049
603.2506412,1.5356635138015315,-1.9188780994971213,-1.6304773838762667
603.751962004,0.2563174802399729,-0.5604351072605641,2.607173955838633
604.25328284,-1.2212708681448057,1.8491828961782355,-0.3888080383125896
604.7495909571428,0.9312290230038069,-1.1739015280313543,-1.8715099228301162
605.24589952,0.9207258518915219,-2.15426034191358,3.104201933550261
605.747221274,-0.3767350183581001,0.0026052778463705904,-1.2419454811490318
606.24854276,-1.6059222490836984,1.0200062924256281,-1.4344648613482562
606.749865214,0.1759908754097404,-2.0638150193923286,2.9803838121307678
607.251188188,1.1735904161157062,-1.918891442304158,-1.8177006271037819
607.752511106,-1.8301859589817058,0.640763559568806,1.6881970800808483
608.25383424,-0.6125859906642673,0.2385454350157184,0.37535346106009
608.7501446142857,0.65058185532635,-1.5991055097663813,-1.801081274391466
609.24645544,0.30296199666011736,-2.062757579072115,2.501891426307777
609.7477796539999,-1.392252700428876,0.7507693358809755,-0.8257145812562992
610.249104248,-0.7659592873278156,0.014516946194071921,-2.0757062038579326
610.750428914,0.372897070782205,-1.802289593655467,3.290945674713654
611.2517534799999,0.5696629054718252,-1.9116778429245034,-1.7183915039559847
611.753078934,-1.3991836907153163,0.5330787214625868,1.539713466250103
612.2493915897959,-0.5661170370473813,0.8924118046401546,0.2471116494473608
612.745704216,0.5671496303158962,-1.2826999106976038,-1.726481858585808
613.2470302400001,0.3657204177636137,-2.2185724386350443,2.9814612109377547
613.748356864,-0.8585422743350226,-0.10936135200618452,-1.1780620973790423
614.24968372,-1.7745176348223257,0.8501545863688897,-1.764679109901607
614.751011112,-0.06936647051687155,-2.21907262979924,2.9890456249038477
615.2523390800001,0.6123444820898486,-2.1853048061365596,-1.8866013214623347
615.753666928,-2.4737742418232127,0.6436441926348152,1.312847274725321
616.249981622449,-0.8053298411568455,-0.05121064697034275,0.5327681804373732
616.7462970920001,0.13752614494750437,-2.1090177183945773,-1.869315732802015
617.2476266,-0.34291775947322284,-2.280781564865915,3.444670975738081
617.748955804,-2.0393546603848445,0.7747576651428743,-0.8274947233831819
618.25028536,-0.90726729464961,-0.708591576148549,-2.1381269115024772
618.751615094,0.18245105879413856,-2.106489330279504,3.5083652715052636
619.25294502,1.0663795089172867,-1.9778389077090435,-2.037698117623708
619.754275408,-2.4588308039914533,1.6537396228943768,0.783218532024261
620.2505925408163,0.08730809666594391,-0.42893352914342303,1.4007275971707231
620.7469102800001,1.2867005177274513,-1.5244016452168894,-1.55151148593615
621.24824174,0.41027042762084426,-0.9188324928664674,2.732087757478339
621.749573644,-1.187464185246042,2.000880583477697,-0.2641419670561491
622.25090652,0.7681297404173785,-0.5744807182058673,-1.7563459107555865
622.752238936,0.9230622028772073,-1.757806088495735,2.9175694146331024
623.25357142,0.29098903472298604,0.2203661257354934,-0.5356255382032814
623.7498912857143,-1.5561209409703822,1.5254394325023461,-0.7411485744567136
624.24621114,0.7400065974757868,-0.7360263379114952,2.174393765670457
624.747545052,1.0466725693779315,-1.8230894448930581,-1.2885650928488375
625.24887944,0.10202295113042875,-0.16874963339203625,2.3380054060935724
625.750214014,-0.9681056682200218,1.9080118336150012,-0.02492495050107686
626.25154904,1.2580949224914848,-0.4239484241572691,-1.7732963377320456
626.75288424,1.7606564542735075,-0.5286703166670682,3.31566197248132
627.25421942,0.9408076686461575,-0.9107366353461821,-1.4220589661273513
627.7505420408163,-0.8139040140702023,2.0476399161347323,1.6153547284126062
628.24686536,1.5345494189951085,2.643009646220248,1.015743997973612
628.7482018860001,3.0097015975420227,0.6496841674540107,-2.483964834747086
629.24953876,1.929069576641796,0.3977723573197432,3.0689681693529645
629.750876114,1.2538246219272855,-0.4899663391713089,-1.281563278613583
630.25221372,-1.1068660204894742,1.8357629519616523,-0.7269408460366023
630.7535515100001,0.574378854012643,-0.36323967953651026,1.5176867748282226
631.2498758061224,1.2475188961825858,-1.143010559475702,-1.7293743565976427
631.746200824,0.8655410060284452,-2.144757071632099,2.489710446862128
632.247539826,-1.0919060667811056,1.5490177744651792,-0.8266998410486868
632.748878946,0.1176657976955044,-0.14837583628222453,-1.9212566260868804
633.2502184,1.1093756342051995,-1.6477591562652818,3.530160331901638
633.751558328,0.5961521952065645,-1.3382665039644532,-1.716488902223762
634.2528987000001,-1.608047071482555,2.1570720520933766,-0.17376636472442897
634.754239144,0.566833701848116,-0.6111349116925741,1.7620226113259576
635.2505663367347,1.100233497260352,-1.622347240884383,-1.3967215645336455
635.746894132,0.7318404295247986,-1.1870301300299528,2.6303290095358767
636.24823584,-1.4144230525847832,2.063003285926756,-0.8442099518079609
636.749577828,0.07792567287824115,-0.7611368319706273,-1.8040894923342627
637.25092054,0.528590098772171,-2.184619552243995,3.219331406352602
637.7522631659999,-0.027199283241030922,-1.082363638349558,-1.1664914558429842
638.253605946,-2.6607049951133677,1.0229619507933918,0.6817186204789095
638.7499357938775,-1.1186112615792831,-0.9278957446726998,0.6240075831430998
639.2462655200001,0.06404675175184776,-1.9630561295052564,-2.1674894381979364
639.747609644,-0.5068674256181983,-1.9704263948909828,3.055743474330336
640.24895462,-0.11815859025275609,-1.6340534446530464,-1.591480240955363
640.750299176,-2.3832466639072765,0.8745213200072055,-0.19845708512605426
641.251644,-0.8047385280767831,-1.183212717524522,0.7745749301182103
641.752989232,1.3117018479571407,-2.0137657722124023,-1.7820632239317213
642.254334924,0.35517450743809853,-1.6643793402844473,2.5949620424922646
642.7506673183674,-1.540226052024208,1.2802349020117576,-0.9976282720409203
643.247000024,-0.28146056620960275,-0.4819358864161024,-2.026031318943831
643.748346492,0.5306231622590866,-1.8822105999071759,3.7431495914508957
644.24969276,0.5074581264061613,-1.5774224945206634,-1.5333513294916274
644.751039804,-1.88752330330923,1.4546161928605406,0.11510769872617452
645.25238764,-0.47062088989131007,-0.8463454074244587,1.7024849422481207
645.753735196,0.7953341654206944,-1.8356723309649772,-1.7405796917979635
646.2500693122448,-0.18533221535108949,-1.8010521016942376,2.599819561121676
646.74640389,-2.0266275060391177,0.7897469263554362,-1.0289197332772002
647.2477526,-0.5896808222762114,-0.9511870568171835,-2.08119321261057
647.7491011,0.09187838387912578,-2.370600312124946,3.308489393299283
648.25044962,-0.051069712567726654,-0.8875029320789772,-1.2809648585247282
648.75179892,-2.0426923180746304,1.2008936701536843,-0.9644956943194722
649.2531485000001,0.38714493340875855,-1.4090248823840223,2.7009711436083164
649.749484610204,1.2494445128536722,-1.9383066194043135,-1.4053458166051287
650.245821746,-1.4996750032589004,0.5507896810862529,1.8809614355555584
650.747172224,-0.39975904048698707,1.1720648479268576,0.45303065227349465
651.2485232399999,1.4677732314753833,-1.3200476646455526,-1.4684229805552895
651.74987433,0.939350228401689,-1.3456962159631942,2.798520368739653
652.251226086,-1.4525770864216654,1.7888357016710807,-0.6350793083424879
652.752577626,0.5179418467603526,-0.5675899884339454,-1.8976135294037555
653.2539293799999,1.2503806295878563,-1.6521310885119995,3.5065314843031077
653.7502680857143,0.42961446790084545,-1.0002739056673713,-1.3998470023513336
654.246607,-1.6370963479817455,2.249413822611585,-1.0815060497350084
654.747959924,0.9815530285156869,-1.2072275825511412,2.760396045682867
655.24931336,1.7248648001627145,-1.8724681205809213,-1.5210236133703052
655.7506669439999,-1.6053838862116194,1.9039348030599132,0.732643140873542
656.25202066,0.2532666718287046,-0.39072509385648774,1.7332623085467198
656.75337482,1.8201905345435485,-1.9877833670502472,-1.7355607112086546
657.2497153387756,-0.07052272858402586,-0.043025229779999126,2.8071957317965657
657.746056604,-0.46665197735742725,1.7331311848226323,-0.14972750428131396
658.247411446,1.3350613562503395,-1.5518697314077343,-1.5464555959587019
658.7487668079999,0.6262522567968319,-1.2419541199057833,2.9434300170249674
659.2501226600001,-1.2060146461290728,2.072925106412467,-0.4447744991515441
659.75147848,1.1222100204826642,-1.3050834763721397,-1.657703129529992
660.25283462,1.200373547662624,-1.6925551397330176,3.046355943222652
660.75419104,-0.844193475795162,0.6904950287719592,-0.6814285111331121
661.2505345918368,-0.5982882102309572,0.4784052698805747,-1.8429981950365784
661.746877982,0.6745162267288343,-2.069872150677094,3.474642240869693
662.248234904,0.15856389755767983,-1.2515498778331768,-1.2208399113519315
662.749592428,-2.4167554715656214,1.5568781745447904,-1.0884718214823619
663.2509499,0.13401771296687737,-2.0163413874535605,2.3459138742792205
663.75230794,0.8770889702695251,-2.1881673609186048,-1.3802741928266173
664.2536667200001,-1.9819277499578882,0.6934209015838425,1.577734743650119
664.7500116714285,-0.6415629941736755,0.25743710263278596,0.3993445425389052
665.24635644,0.7584119146285175,-2.169452437342789,-1.6497079941717923
665.747715474,-0.0810823782539854,-1.6739393027018517,2.6140502942423613
666.24907466,-1.710306510733131,1.299495553974235,-0.7349940103945073
666.750434232,0.2770828068110543,-0.6976804259925573,-1.8678051849713944
667.2517942,0.7339988964615859,-2.0744114814148844,3.481603974542628
667.753154278,0.41858838006278376,-1.1567810298792764,-1.5600196470996968
668.2495012061224,-2.474211075662521,1.8591702072905132,-0.3754283853766306
668.745848184,0.04077290685126957,-1.4099270596635307,1.802808661519152
669.24720904,0.7291764966712792,-2.078327535680011,-1.4754645101395207
669.748570074,-1.0301589101241955,-0.7472811380940212,2.2516874767422883
670.2499312,-2.0190601597005333,1.3037463718598448,-0.3859465003848609
670.7512927180001,0.6381606411409604,-2.041085232268504,-1.5250812763000148
671.252654724,0.16996711199705172,-2.1687665193602195,2.807891630836074
671.7540165620001,-1.8127021118942184,0.9509536940371901,-1.0635885378975134
672.2503640591837,-0.46689836024104997,-0.5281566661979693,-1.7866790160411816
672.7467128720001,0.2296323428054258,-2.5906321336349034,3.5384546540368196
673.24807632,-0.48513205613516547,-0.9752222187540286,-1.3734632528695736
673.749439244,-2.349895287831144,0.6746502858095015,-0.7585933351197116
674.25080206,-0.24389473905240705,-1.3292013234272082,2.2724292124522396
674.7521655080001,1.0138785811177593,-2.407134539570826,-1.6585081346628596
675.253529382,-0.6623076433044186,-0.3799524508271032,2.5976010134015888
675.7498796959184,-1.0640537154842822,1.9298474054356927,-0.4353190401664896
676.2462302,1.5850830488113126,-1.2542664477817707,-1.7004488387053989
676.747594652,1.3327977085512344,-1.5930123804371359,3.215345949444548
677.2489591799999,-1.3648881258349406,1.3194770472075268,-0.6308233846217085
677.7503241280001,0.301439785204046,0.2595516304540847,-1.8311370092070929
678.25168958,1.0970992655143603,-1.4974016114889555,3.4082656174989245
678.753055124,0.5030144061990709,-0.8556647307857302,-0.8264200767848817
679.2494073530612,-1.5143132644374733,2.1833877140646067,-0.6334220490382969
679.7457597599999,0.9092840698388526,-0.1552154174855416,2.322171140095367
680.2471260460001,1.8176369491694433,-1.5140642293742477,-1.4559175484341131
680.748492684,0.3511382366528229,1.501909458767516,2.3279811059302373
681.249859408,1.2249636815535794,3.0012303572155195,0.48912063730058014
681.751226494,3.4168307694514537,0.3182492533725936,-2.0953152553659424
682.2525935399999,1.7380460201186037,-0.476399032169101,2.9748648191398
682.7539611640001,-0.019939736238254433,1.231419627569114,-1.4092006858015083
683.2503159183674,-0.008989520031803868,0.6144811834663619,-2.1220562506843486
683.746670538,0.7851997131316901,-1.9209431289149104,3.352608753960114
684.24803912,1.0901282556048866,-1.2031235219480088,-1.5270246781471324
684.749408162,-1.770586204661575,2.2648022626385007,-0.8630852942432958
685.25077778,0.7115522302147603,-1.2943559070421509,2.6572182502855486
685.752147618,1.435869134014906,-1.4560551756862272,-1.2876723576129336
686.2535177799999,-1.373328045030459,0.6027323346323052,2.0336732103554724
686.7498747367346,-0.40334569654280633,0.9746010679550636,0.11941783190032115
687.24623204,0.5938911536594498,-1.3642738730680855,-1.6682897172127813
687.747603446,0.5414496652503694,-2.5481396520494908,2.549703768145036
688.2489754200001,-0.5716178415689364,-0.35271568743674864,-1.4003076385868434
688.750347466,-2.259743698382265,1.0614002602043566,-1.4944961444884428
689.2517191400001,0.07762490739964129,-2.6086640549129068,2.813239551760857
689.753091904,0.6574731596469197,-2.5741479948007755,-1.7479581302242326
690.2494514224489,-1.729224716757353,-0.0649777277842609,2.3532395630984055
690.745811024,-1.1839433753397732,1.102983690293505,-0.1951958067473446
691.24718486,0.8421648287512928,-1.689028251304115,-1.7748425291414862
691.74855884,0.11642758702585837,-2.1426884885369626,2.7385004027611743
692.24993274,-2.0784973334867898,0.8325295493713536,-0.9505758560161907
692.751307468,-0.4841647168389608,-0.502277401087769,-2.343600820169723
693.25268248,0.07884074333010802,-2.117242340854678,3.278504140049839
693.75405787,0.5553709056156959,-1.591684282985556,-1.3310140029411934
694.2504199102041,-2.6036658756663784,1.9418589487384792,0.3338458697796929
694.74678182,0.4145724721512647,-0.7576806770275522,1.5596714950286106
695.2481574999999,1.0175131280091905,-1.7733330389907223,-1.5023659090168069
695.74953366,0.47834840752481056,-1.7944314667252654,2.7256287054462702
696.2509097200001,-2.0158252413096602,0.7885415184612107,-0.870998134676892
696.7522865000001,-0.42515691080301865,-0.6852728163464549,-1.8605389806621417
697.25366424,0.004671397080975428,-2.4013280729069213,3.2615106175619677
697.7500278530613,0.008978498276751309,-1.2172530307026734,-1.6971087465787464
698.24639062,-2.0799120832787925,1.4032892140658257,-0.9433313148439999
698.7477684999999,-0.3429487376396304,-1.8387309076678142,2.488992075626891
699.24914774,1.1163180593636128,-2.4603921028597497,-1.8461073819236358
699.75052608,-2.0347424930082174,0.799084502417669,1.670235836034356
700.25190462,-0.2724343937872358,-0.04678427658940034,0.6962284234781202
700.7532834599999,1.4844977747465287,-2.1048460038858177,-1.5897965046956304
701.2496478734694,-0.6353420183992183,-0.5340225528471252,2.8472161166466927
701.7460133999999,-0.6276627532464235,1.5571794786449016,-0.4527767092987444
702.247393136,1.347144276378065,-1.7701160107081835,-1.5255287836015239
702.7487729600001,0.5831310080411138,-1.2351814967617303,2.6580997286357744
703.2501529,-1.549288203762535,1.8657366299588165,-0.45596779405866206
703.75153304,1.1916657311058498,-1.658032584411371,-1.607711365952786
704.2529139,0.8096969593863274,-1.2258957309396024,2.788007281575635
704.75429438,-1.3120865317970185,1.8689718134717226,-0.17719375366905227
705.2506605836734,1.2813227933848563,-1.4568715038229998,-1.7791896683636226
705.74702754,0.9205251116113309,-1.391267739735046,3.086954188717607
706.248408714,-1.4290312575830004,1.588788245172199,-0.3235641482006388
706.74978974,0.9007228893467534,-0.6436109474700173,-1.8573225694890911
707.251170842,0.9782957337495191,-1.8057082659303432,3.1655020572071773
707.7525522000001,-0.8948986081852931,1.164165544595497,-0.69233744866464
708.253933778,0.004236741873794561,0.010654243189385681,-1.7085668803016127
708.7503016795919,0.9953074369780093,-1.643965801573508,3.3873046988031734
709.246669104,0.7001280304113567,-0.15428343271626876,-0.8023830959088106
709.74805104,-1.1006852670449758,1.7060089459544567,-1.5335448419887425
710.249433612,0.9362010966430556,-1.7972761235522139,3.4397057950846124
710.75081594,1.3531128505671441,-1.2525647465374292,-1.5513584805090324
711.25219881,-1.619015995977998,2.3394721640148273,-0.32097501607365375
711.75358144,0.44994424359779245,-0.9723110309524333,2.188584910981408
712.2499507795918,1.0990089528507385,-2.019126215377639,-1.632695407120617
712.74631976,-0.7754706707060496,-0.68512012881006,2.6556571769853576
713.2477023199999,-1.6401192408693217,1.1689304234710773,-0.527035378026178
713.7490854,0.42037751538305007,-1.6426776194247972,-1.5007502204692866
714.250468116,0.5145469890765564,-2.395639475883752,2.706432590204997
714.75185134,-1.7408215686650512,0.8545145480908972,-1.0089482395443803
715.2532352400001,-0.9002603651853847,-0.5359096333960464,-1.8261827372719321
715.7496050000001,0.24937674384958633,-1.8976218382891212,3.0222872335672455
716.2459742960001,0.7785566606617996,-1.7284770928295663,-1.3218805634021698
716.74735792,-2.3184528618728306,1.9705673590018031,0.3542989408723156
717.248741786,0.28295534736392314,-0.5778229297493516,1.7132580634593493
717.750125504,0.9957396910981438,-1.6262260897984049,-1.318933205535703
718.251509412,0.4443526751412705,-1.4119366929405777,2.4574125681132033
718.75289318,-1.442019706037925,1.0769868839283259,-0.7689183929296558
719.2542762960001,-0.6593632865364978,-0.3880088995475179,-1.4541435216309677
719.7506463673469,-0.3500520272694386,-1.9130968263711363,3.4309663675187405
720.247016956,0.931805221126516,-1.585131892436419,-1.9542409392199513
720.74840108,-1.8233972966417795,0.47823494292538227,1.046393652311027
721.2497851060001,-1.1056766917950458,0.21789004725644645,0.38000096148024765
721.75116932,0.47448408572050627,-2.2504308225988607,-1.5386752990492725
722.2525532159999,-0.09295006981242268,-1.749881024732173,2.552098031585489
722.75393756,-1.9201768392473246,1.7216038440301935,-0.8492959032070989
723.2503087163266,-0.05162312973852691,-1.7168845777197246,-1.619695837983308
723.74667942,1.0643378407319872,-2.0334694180684347,2.923513017637497
724.248064584,-1.8341076614934273,-0.13994126869653806,-0.2258801916001144
724.7494493199999,-2.6156157751726288,0.9491135812163471,-2.4051934233001884
725.250833952,-1.0056945645169995,-2.255324598213624,1.7006849322172293
725.75221884,-0.45696405611639856,-1.865343981035574,1.1411229447992521
726.253603336,-2.242423968988534,0.781251659697171,-0.8645213335770846
726.7499745612245,-1.099776285742556,1.3146694935805132,-2.075796850130571
727.24634638,0.27469105603378724,-1.5278890669146876,2.0628163403704196
727.7477317400001,0.3374926388748948,-1.2301528522760174,1.4262761351283841
728.249117348,-1.4891833466526334,1.271766380363788,-0.405797931363236
728.75050284,-1.3275644545697625,1.1793180880859389,-1.9658480515468246
729.251888212,0.02981433845246787,-0.8307063423096566,1.7031046178139289
729.75327386,-0.21258978709234688,-0.8380593509095684,1.5892915328382968
730.2496458081632,0.08558618814251552,-0.39631306560195984,0.14816389031530397
730.7460176799999,-1.5534719347150365,1.5372276693617979,-1.3112449047813124
731.247403624,-0.3979717292119833,0.572798438850105,-1.2509966580146012
731.74878946,0.34730745503312194,-0.3485287099026827,1.5334740525431767
732.2501745640001,1.1977767934490062,-0.4762711194655225,1.2567227723584642
732.75156038,0.3043988754672238,1.512771655394283,0.10678793919625842
733.252946628,-0.051613952259518744,2.2806125870749465,-2.1312332229586426
733.7493187163265,0.7335347402349427,0.9706431417577376,-1.230078330911048
734.245690424,0.6373810274162761,0.06452126511019891,1.0910037250166196
734.74707636,0.6473196296810646,-1.3734109059739137,1.2249179508554797
735.248462024,0.10945483237330986,-0.015494673055446632,0.23763744665457195
735.74984796,-1.153312424376982,1.6717431622286296,-2.5608092629937342
736.251234164,-0.9318573468545484,0.34589732967494463,-0.29624431870287316
736.7526202399999,1.0456437725178096,-2.012018033391698,1.8945859944852388
737.254006078,-0.15155153053972117,-0.8955012260846067,0.9995679658155662
737.7503783857143,-2.0686869038416558,2.1220129340519542,-2.470438262685423
738.24675115,-0.9805911889145662,0.24127634588238267,-0.6051484534642992
738.74813742,0.17406358605556244,-2.006983728756097,1.4447234614804916
739.24952395,0.01168078736882877,-1.0282915972181492,1.4137609387251657
739.7509102399999,-1.2242570070227359,-0.15850068965647257,-0.25892071743377043
740.252296712,-2.357200296978753,1.7249341289678697,-2.583150141124601
740.75368326,-0.13437595634704977,-1.7389139914854632,0.17997578300206432
741.2500556510204,-0.040129124678347054,-1.5396319610832763,1.9737472245147962
741.7464285000001,0.8328165997805204,-1.7314799570358737,-1.5537302569542502
742.24781523,-1.6134096357065093,0.9185435555868415,1.3780352438909682
742.7492020799999,-1.5921798120741633,0.06581814798290317,0.4331221825678967
743.2505888100001,1.1623373006014337,-2.1482304196399844,-2.058839459000051
743.7519756,-0.3174628892024763,-1.9991641163639056,2.826238342931239
744.2533625799999,-1.7418749517655365,-0.6535396989303801,-0.7016706295859245
744.7497355571429,-1.1614959514544658,0.9556381220112116,-0.18832570875134835
745.246108656,1.032520396500971,-1.5045521488910438,-2.4865215782962826
745.7474954400001,0.4184362322791004,-2.3377758604849777,2.712004495788238
746.248882482,-1.2130825885338274,0.20046835207930067,-0.9879907258944882
746.750269182,-1.453343364345425,0.8156658617409944,-1.9431324387936473
747.251655462,-0.12424761036746736,-1.6817488360776525,3.03069471234266
747.7530421060001,1.1448126306300639,-1.4543533333035448,-1.5720958041876683
748.2494150428571,-0.44602486526528273,-0.6209305833151296,2.9463222528794124
748.74578778,-1.0805495111480645,1.1180343106574966,-1.0242887089294486
749.2471738600001,0.012011656116991088,-0.8617510472666998,-1.7719487228736681
749.7485603599999,0.16930331011717498,-1.86088790331768,2.9973028422170773
750.249946988,0.0835810642129395,-1.4444193120968953,-1.4750869571714338
750.75133344,-2.1524460031595893,1.282632529669309,-0.1460100172891884
751.2527199399999,-0.4943579984572443,-1.1253792521098895,1.4332494730355845
751.75410634,0.6749288513072925,-2.109979170946185,-1.855716975562549
752.2504789081634,-0.24506901403856854,-1.633354955881055,2.688217716591339
752.7468515200001,-2.1801405338495368,1.6639082820982836,-0.707668442365105
753.248238252,0.4629334065527621,-1.4042171794910059,-1.7833425782022343
753.7496247,0.9464307919256769,-2.24376653131144,3.1910983895408247
754.251011148,-1.0195599998761882,0.6811276449811531,-0.8290521565478065
754.7523974200001,-0.35519910487281403,0.5462323152484335,-1.846087515833494
755.253783708,0.9625247054221079,-2.0220329274591182,3.3348870258741155
755.7501560999999,0.9585123995684118,-1.2905698512170163,-1.6607752006105396
756.24652795,-1.8854944013130233,2.5616158065702566,-0.8206589143519508
756.74791398,1.0239942721863093,-1.7903077654554054,2.862576132570366
757.2492996,1.5097596253294088,-1.5993010746603489,-1.8518961963173826
757.75068554,-1.8081056552877504,2.1720686169357775,0.6785254218816411
758.2520724679999,0.555585139977149,-0.7550415455457952,1.6996275975551398
758.75345856,1.5622452774476319,-2.284200224430495,-1.759163352395163
759.2498305816326,-1.6922458178348252,1.2508964586951745,2.312108695620122
759.74620264,0.06739255456352888,0.39473542317264076,0.414165213800493
760.2475884739999,1.5892217976821492,-1.3878834148691614,-1.648108081285528
760.74897436,0.6278659594185233,-0.8582801370933508,2.8240436158382405
761.250359824,-1.2916419395031529,1.6664470550323225,-0.44323179500777493
761.75174562,0.8680882450314354,-0.8669759323027546,-1.7035007195531466
762.253132168,1.3891909086492356,-1.758551864163353,3.0092736352688156
762.7495042612244,-0.31172719766503404,0.24567239519688552,-0.9109656900254649
763.245875696,-0.9241315982605038,1.2713591430289417,-1.8455439123690567
763.7472614,1.3259192579222567,-1.6489821941510303,3.202106811590586
764.2486475239999,1.432595527951244,-1.620000982256843,-1.6165871505918452
764.75003328,-2.1463932624774547,2.3319797683833086,0.6572247145647242
765.251419172,0.6804190846473134,-0.7413998152468071,1.5683064479889932
765.75280488,1.3235990642760496,-2.2627196890609445,-1.8092355984247195
766.2541903279999,-0.3086764491582397,-0.5798297998041874,3.0458415186475656
766.7505621020407,-1.2779845602461566,1.2568147395178422,-0.9402757235918925
767.2469337759999,-0.2838062769544971,-1.3235894345380204,-1.7930056465052941
767.74831934,0.12142522254588049,-2.308327935287551,3.344475701497099
768.249704564,-1.377891307147353,-1.1571705455063204,-1.3794017363044027
768.75109,-2.5833551265794648,0.8794463372003131,-1.411878603292912
769.252478364,-1.1584777221442735,-2.4001214775678554,2.3203913304639308
769.75386428,0.31983832723545347,-2.5102686149597506,-2.1930380437156627
770.2502336959184,-1.660887593970309,-1.2823135317872654,2.568952733826957
770.7466048599999,-2.518455803004861,0.7571253955993603,-1.0853101566296781
771.247989656,0.42727476020486466,-2.32882028593623,-1.8975491251025614
771.74937486,-0.28427872330365994,-2.4848615847348285,2.7583937391381004
772.250760016,-2.5755029290656433,0.908231162095159,-0.7428817478241452
772.75214522,-0.5674260019502697,-0.687339384283546,-2.0956783440030167
773.2535304600001,0.10467979008733236,-2.305157785804401,2.8155619934250318
773.749901822449,-0.1875142579351999,-1.5314463930488311,-1.4195526024799323
774.246272954,-2.4372423048193532,1.3634547545706124,0.3614195112253497
774.74765808,-0.11783692973569067,-0.7362267272721321,1.7533401167405867
775.2490433,1.2111628833562975,-1.5811295979713091,-1.2293198865036745
775.75042846,0.08875194533176517,-0.7853837323792198,2.450715203966113
776.2518143320001,-0.8992960240590427,2.2228606872291006,-0.3677899292621516
776.7531995800001,1.1285051847522027,-0.47679413267717763,-1.7512688202557856
777.2495705591837,1.0736704225146423,-1.3588039223794461,3.2692161738637995
777.7459417599999,0.9697238023522823,-0.5878817680657147,-1.2567252901260721
778.247326798,-1.524623103502618,2.5269306366977893,-0.03674455673166321
778.7487118800001,1.1464314360630805,-0.07207125770136273,2.191924290585793
779.25009692,1.951528681712031,-1.2795276427105307,-1.5267911823677311
779.75148196,0.6626807999786228,0.36750707424033663,2.5141284169038327
780.252866796,0.5086833290068378,3.228138504381219,0.2621101298214327
780.7542517200001,2.8280290798600918,0.5376997263442514,-2.3387678901591715
781.250622844898,2.3471401129927787,0.29316075041860135,3.3978919269713383
781.7469939399999,1.9053836459071034,1.3468337414881717,-0.91024412292773
782.248379206,-0.3186763250702666,2.9074006091950495,-1.7106150899475079
782.7497642999999,2.048550585677214,0.9162491478574267,3.027372860136812
783.251149484,2.894229716583943,0.1749492892177728,-2.1527990228838765
783.75253454,1.1919365640610027,1.2075163490047598,2.5252039008423135
784.253919148,0.9991257739437535,2.5965355927076517,-0.6487730181079289
784.7502901979592,1.4652055891512434,-0.132619701146861,-2.1594121853005257
785.2466619600001,1.0749929995810452,-1.3700433633081701,3.267162600027695
785.74804724,1.2953225022902446,-0.7827200847387457,-1.6586719052222316
786.24943216,-1.7647724796715354,2.1455845568916776,0.11951132753855646
786.7508173000001,0.6976411481675848,-0.41052131622235266,1.8880865770344015
787.252201946,1.0400068661987603,-1.2637291452695782,-1.5773651304652765
787.7535869320001,0.696628149773205,-1.4626286791957197,2.4837491209355615
788.2499588122449,-1.2947647539209255,1.5793521958284753,-0.9176543281848443
788.7463301600001,0.04731909325351521,0.16366504375886504,-1.6141279783358564
789.24771514,0.5299699702275473,-1.4383911347823664,3.2232074432494
789.74910024,1.5497143183500464,-1.0033526575439067,-1.585465754585576
790.2504853,-1.0875745854254784,0.6820842680442127,1.7538007952797
790.75187016,-0.3925472119989701,0.9218510511389505,0.3211584154043262
791.2532545999999,0.2958052968904032,-0.895679027331486,-1.8938944355154754
791.7496252938776,0.18669566682637517,-2.3461793284398795,2.80863829262239
792.245996178,0.11713003496719317,-0.6813983545364464,-1.0448477827840694
792.7473808999999,-3.482573926323637,1.297522010078775,-0.16281978418661333
793.2487656400001,-1.3849131604091587,-1.8922296695370435,1.5917189006662977
793.7501504420001,-0.33447388261672345,-2.1182770203481973,-1.835646233054718
794.2515349820001,-0.2364410217572061,-2.068135544595354,2.4122822426753157
794.7529197599999,-1.973822412711637,-0.06045393971557377,-1.545720627811642
795.25430468,-1.4516185566062818,-0.1667405197265115,-1.9205639016704763
795.7506756632653,-0.12080903182614017,-2.028669048251652,2.5892176622778194
796.2470467380001,0.7619212853872247,-2.379751932349765,-2.375246946010797
796.74843156,-1.1273655823993682,-0.5010601642099747,1.9237061647001648
797.2498166720001,-1.6956258642383781,0.9787364759296644,-0.25863359811544406
797.75120154,0.7228604416248569,-1.7466040735384158,-1.6655936860156906
798.252585618,0.9637808835651229,-1.7288067304436592,2.7488526156600575
798.7539702,-1.4032419460573538,1.2474473622111022,-0.7493520556789568
799.2503417367348,-0.44971737303042764,0.07397636168304109,-1.7270261045908466
799.7467128,0.8168798585127865,-1.6545744199840897,3.1526147734330654
800.248097444,1.00992957520965,-1.7732158633800634,-1.4896218239515255
800.7494822000001,-1.990642811816543,2.317205148156438,0.34307037834711407
801.250867422,0.5717198851461146,-0.47907122581672806,1.9609942147616417
801.752252342,1.4716992769495645,-1.5136134796963054,-1.4520298878346145
802.25363636,0.05131718847196034,-0.7965139247627466,2.731973954345225
802.7500070979592,-1.096909064383732,1.7800780611759213,-0.5854656381424075
803.2463786679999,0.9589966667393116,-0.855058332074287,-1.8785827941328848
803.74776364,1.3186059240965782,-1.8615572403117155,3.2932149548904652
804.2491476800001,-0.3682521774299362,0.4080882525172859,-0.9610988792302945
804.7505322000001,-0.9165491385905955,1.325946998577801,-1.6155155483629773
805.25191778,1.2057205145385728,-1.3125182073343251,3.272057753474216
805.7533027200001,1.3998517302825388,-1.8100806523239064,-1.5826258018512909
806.2496732612244,-1.5410876240966378,1.5069141754390905,1.4345045336994955
806.74604406,-0.04959774833122412,0.48814809865994213,1.0827215956512368
807.247428948,1.3675541646340634,-1.5151877273578054,-1.627299287838464
807.74881368,0.8438625055414876,-1.336750094554362,2.7273407045838303
808.2501987200001,-0.6049944630202166,1.1069779652036806,-0.6974697945037
808.7515834999999,-0.06326785181212316,0.3271987832662333,-1.5421541339495521
809.2529674560001,0.7116760895286504,-1.5552684832411783,3.100128867863869
809.7493380714286,1.2301624303765468,-1.5823975524504534,-1.617124140920839
810.24570882,-1.8835727309170411,1.7490160540847748,0.7781297396137699
810.7470934600001,-0.21638171751030363,-0.48440355103578026,0.9617049652475549
811.248478632,0.7279808004152932,-1.833505387342363,-1.504479950360288
811.7498633800001,0.24115250981787906,-1.8698311372009442,2.682483667563801
812.251247944,-1.6520907546902674,1.1699583967400746,-1.1441443751606701
812.7526325,-0.46922266506605487,-0.7878112201898492,-1.8589114377427267
813.2540167039999,0.19868404371905485,-2.41687096059769,3.1844068809872033
813.7503873367347,0.008728390629433948,-1.4006229561007555,-1.4878021573084106
814.2467586180001,-2.3731021957460623,1.6026944958764908,-0.6167780385183701
814.7481434599999,-0.3763962919971309,-1.5830831095076336,1.7368442970623321
815.249527692,1.2053013865430122,-1.9175900958576038,-1.7595473820083845
815.75091224,-0.1754082993520991,-0.9999413263666506,3.230404821697679
816.252296868,-1.4288926272410962,1.556771817355942,-0.7187059132025331
816.75368144,0.33214294409508766,-1.3074776856527697,-1.8654675893667667
817.250052134694,0.16366782426635618,-1.8197351593959343,3.004639089804719
817.74642286,0.3711854700607459,-1.624176269722386,-1.7170111961543475
