Time_interval,Time,Acceleration_x,Acceleration_y,Acceleration_z
0,0.258872162,-0.03254479498531915,-0.20780774740978722,0.06748106224697872
1,0.7514152780000001,-0.1622151430556,-0.2450850550618,0.024556764533319998
2,1.251415278,0.027507240056780003,0.18487211592334,-0.010858119351399997
3,1.751415278,-0.14662587369336,0.10464114159459997,0.030216423542420004
4,2.251415278,-0.02058003611638,0.09037744319732,-0.03767813999976
5,2.751415278,-0.0058459766858,-0.33930484131759997,0.20286819283500002
6,3.251415278,-0.13759729115228,0.01800218346182,0.025289801388619998
7,3.751415278,0.118208442885918,0.08376788724579999,0.0161756995654
8,4.251415278,0.02696967953098,0.023487750675000002,0.13038297847299998
9,4.751415278,0.18062660692562002,0.1311709948682,0.1894536007844
10,5.251415278,0.03317606400468,0.0641469102984,0.195476730458
11,5.751415278,-0.009010255056919998,0.058331477391919996,0.19754145175
12,6.251215278,-0.045820966556039996,0.031942118752519996,0.20009486794800002
13,6.751415278,0.022070544498538,0.02475834966614,0.1858495001432
14,7.251415278,0.014068215936220001,0.08420771033654001,0.01204625341118
15,7.751415278,0.100774364427098,0.03962679803274,0.091568629889
16,8.251415278,-0.0248560883678,0.022498150083981996,0.04280940357664
17,8.751415278,-0.011575887291201998,-0.0003970617251340003,0.035564547373528
18,9.251415278,0.024941609070776,0.02859458016732,0.036322019925012
19,9.751415278,0.0059803666497800015,-0.005296198082778001,0.03288895973856
20,10.251415280000002,0.01072067679186,0.00656679628799,0.038728826846
21,10.751415280000002,0.00613919120314,0.012626575176923999,0.027904303096160002
22,11.251415280000002,-0.014813471124302001,0.016584978689442,0.026035057146099997
23,11.751415280000002,0.003744600975188001,0.0118446680524,0.0564683404558
24,12.251215279999998,0.0011056652562799992,0.0025106544989199997,0.0310685824084
25,12.751415280000002,-0.01658497841014,-0.0034513858811340004,0.026377141066788
26,13.251415280000002,-0.0073120511144199995,0.007067705400144,0.02897942534358
27,13.751415280000002,-0.002076939893399997,0.0002321281240599999,0.03128238540716
28,14.251415280000002,-0.03351815047282,-0.0094622952937,0.014575233349579999
29,14.751215279999998,-0.02248593147962,-0.044782496624580004,0.021502440067284
30,15.251415280000002,-0.032516332147564,-0.00034819293861600045,0.0061575169346600005
31,15.751415280000002,0.02518595457154,-0.00467311571414,0.00897971201596
32,16.25141528,0.03403127694388,-0.013041963126372,0.006572905198220001
33,16.75141528,0.00216856908182,0.027055200771162,0.014807361612116004
34,17.25141528,0.008179478659840008,0.07051212378482,0.00829554406044
35,17.75141528,-0.03759872632986,-0.016401719858999998,-0.01480736209938
36,18.25141528,-0.006432406151688,0.0023884812952999998,0.010177007236236
37,18.75141528,-0.001069013300204,-0.0034880379228659996,-0.002235765090488
38,19.25141528,0.00524732845403,-3.054327358000004e-05,-0.001808159765912
39,19.75141528,0.00034819300439200006,-0.002376264079922,-0.001698204085596
40,20.25141528,0.00230296029032,0.001740964602056,-0.001417206312784
41,20.75141528,0.001521053379286,0.002021962381158,-0.0014905100886
42,21.25141528,-0.003720166559154,-0.00034819296897600007,-0.001148425824944
43,21.75141528,-0.008081740981522,-0.0007635810230739999,-0.002235765096312
44,22.25141528,-0.0007391463576,-0.001740964658868,-0.001307250628112
45,22.75101528,-0.0007269290448260001,0.001887572177272,-0.001038470109936
46,23.25141528,-0.003488037936686,-0.003243691992498,-0.0005375610117479999
47,23.75141528,0.014544690480994,-0.004404335021168,-0.0048991354736159995
48,24.25141528,-0.009535599067988,0.001973093221524,-0.000940731772096
49,24.75121528,-0.005662716375308,0.001301141949496,-0.000195476728272
50,25.25141528,-0.002461785012368,0.006359102374868,-0.0008552106911800001
51,25.75101528,0.00033597571542,0.00473420205607,0.000244345916416
52,26.25141528,-0.002376264004896,-0.005247328501718,-0.0020769403023679998
53,26.75121528,-0.00029932374969999967,-0.0035002551332300002,-0.0022724169011079996
54,27.25141528,-0.0300362212166,0.03339597768634,-0.00757472338148
55,27.75141528,-0.0012034037118599994,-0.0028649558247399996,0.0008185588454760002
56,28.25141528,0.031404556561198,-0.008472694357619999,0.03110523453448
57,28.75141528,0.08250950705896001,-0.009169085677119994,0.08337082576220001
58,29.25141528,-0.0019120070005799988,-0.003585776739739998,-0.029578072463311997
59,29.75141528,0.08181311820086,0.007580834211180001,-0.041245589040999994
60,30.25141528,0.05653553541462,-0.08060360798946001,-0.01205847079876
61,30.75141528,-0.014446951659504001,0.0024862198527219985,-0.015051708086668001
62,31.25141528,-0.010622937878400001,0.019578216145104,-0.006524035822208
63,31.75141528,-0.0048563751711600016,0.015314381178539997,-0.007269291093932
64,32.25141528,-0.03668243159776,0.013005310960919992,0.0018081593319599996
65,32.75141528,-0.04208247344844,-0.16839709409821998,-0.02216217463076
66,33.25141528,0.01960265116182,0.01532659747734,0.01677434658208
67,33.751215280000004,-0.04521010204189999,0.1406394008536,0.06067109149154
68,34.25141528,-0.0007269292265999988,-0.09172134651377999,0.006194169736600003
69,34.75141528,0.031636685390999994,-0.045222321142200005,-0.017898338321640003
70,35.25141528,0.001301142520979999,-0.011282671851419998,0.009553925076019999
71,35.75141528,-0.0199203005982,-0.10166622889419599,0.01131321610994
72,36.25141528,0.07137954921805799,-0.004477641081299998,0.01912006716128
73,36.75141528,0.0514042719418,0.14765212351372,0.03403738547962
74,37.25141528,-0.06817861846056,0.009547817841639994,-0.016566652754539998
75,37.75141528,0.023060144811459998,0.03517970330658,0.027721043810260002
76,38.251215280000004,0.0324552438398,0.04720152303999999,0.029382596209239997
77,38.75141528,-0.001704312790239999,0.02367100985758399,0.008197805850799999
78,39.25141528,0.06569850763136001,0.1247202598596,0.03286452509998
79,39.75141528,-0.010842849662780001,-0.13278367719274,0.019437717113312002
80,40.25141528,-0.05632784004614,0.030048434972800006,0.0006597338656399999
81,40.751215280000004,-0.0048441570590200015,0.07086642219546,0.027953172504519997
82,41.25121528,-0.008472694839961999,-0.04575988104604,0.015821397530388
83,41.75141528,-0.021227550759079995,0.025271476741360002,0.03238805059326
84,42.25141528,0.01344513385174,-0.005210677367480003,0.049186831774648
85,42.75141528,-0.005760454775381998,0.015289945247580001,0.02207665307412
86,43.25141528,-0.06050615611964,-0.019712606383952,0.030323327594788
87,43.75141528,0.016303981466200004,0.021251984929119998,0.02968802817142
88,44.25141528,-0.00020158508754199972,0.0888625005584,0.04300488068204
89,44.75141528,0.02850905927218,-0.0836945840013,0.048722575084740004
90,45.25141528,0.016914846020039998,0.04918072341332,0.05694481473644
91,45.75141528,-0.006811142836559999,0.05318799685774,0.018362595255328
92,46.25141528,-0.08869145635624,0.0670790618518,0.003909534626008
93,46.75141528,-0.00015271675671999968,0.0208365979827,0.01009148617046
94,47.25141528,-0.048667597193159995,-0.040347618778418,-0.01727525605798
95,47.75141528,-0.007275399560289999,-0.0020097451998780003,-0.001246164110736
96,48.25141528,-0.007580831268819999,-0.008350521231256,-0.006768381819732
97,48.75141528,-0.0040622509964620005,0.00462424636696,0.00013439012972
98,49.256219201568626,0.001649933807215688,-0.0013385126487254911,0.0011618407550588235
99,49.75641528,0.026931033085489796,0.053827783254224486,0.009088171883469389
100,50.25141528,-0.01667049977734,-0.017953315917268,0.00552221755532
101,50.75141528,-0.004636463299059999,0.01753792806951,0.00443487827918
102,51.25121528,-0.018038836844862002,-0.02886336095042,-0.0018936807411040002
103,51.75141528,0.011212423187610001,0.031132723631800002,0.00255036040164
104,52.25141528,-0.015748093552862,-0.03745211908032,0.01585804984931
105,52.75121528,-0.0036102108542819993,0.00598036682196,-0.0019669846664680003
106,53.25141528,-0.006811142714439999,-0.0354973524531,-0.00651181869248
107,53.75121528,-0.006029235380659998,0.021985023798940004,-0.00421496697678
108,54.25141528,-0.00016493336666199913,-0.002755000108678001,-0.00151494461254
109,54.75141528,-0.012162318202561999,0.015216641796844002,-0.014868448722704
110,55.25141528,0.014007129517999999,-0.009132428687878003,-0.0014782927512600004
111,55.75141528,0.0034636030504399994,0.0018264851777799996,-0.0034086254925
112,56.25141528,0.0028038693704200003,0.0014966188252599991,-0.01683543311766
113,56.75141528,0.012272273648759999,-0.01981034468958,-0.0001221727360079998
114,57.25141528,-0.020958770919066,0.02584568894458,-0.02207665314382
115,57.75141528,-0.02585790597706,-0.02933983510714,0.009382882965980001
116,58.25141528,-0.0009590576406819988,0.03798968076752,-0.004373791910688
117,58.75141528,0.011844668221060001,-0.0116125393458,0.0030787584391599996
118,59.25141528,0.0011911862069600007,-0.01620624286658,-0.00692720654624
119,59.75141528,0.009437860788940001,-0.00461202898296,0.004447095451216
120,60.25141528,0.05131874951097801,0.04954724227778,-0.008955277714768
121,60.75141528,-0.0163772846698,-0.04462367282332,0.006585122409732001
122,61.25141528,0.01011286630656,0.021096215206400003,-0.01138957352876
123,61.75141528,-0.0007391451058799992,0.037302457469502004,0.007275399079399999
124,62.25141528,0.05096444875884,0.0517463551536,-0.02709796156046
125,62.75141528,-0.045930922871122,-0.005626064565278001,-0.00172263887252
126,63.25141528,-0.007959567416308001,-0.00799622000264,0.005131264074636
127,63.75141528,-0.02833801696008,0.02437961317416,0.00388509998792
128,64.25141528,-0.03657247412722,-0.013261873785620002,-0.0013805541688999999
129,64.75141528,0.0179044457644,-0.15460376732698,-0.028735079270539997
130,65.25141528,-0.008717040714500001,-0.026322163935500003,-0.024422373985747998
131,65.75141528,-0.005381718854819999,-0.005320633060779998,-0.06977297547826
132,66.25141528,0.08586926209505799,0.1666011512304,-0.06701186668971999
133,66.75141528,-0.0393824524256,-0.06508764157015999,-0.1345246413294
134,67.25141528,-0.038893760488482,-0.094445804233,-0.144249609114
135,67.75141528,0.030024004220897998,0.16464638536919998,-0.2127519859394
136,68.25141528,-0.09934494079658,0.041862563049159994,-0.15222750405268
137,68.75141528,-0.022327108015382003,-0.16211740434425997,-0.11939962893280001
138,69.25121528,0.004147772042180001,0.02187506774258,-0.1326309606362
139,69.75141528,0.037696465322672,-0.07862440578432,-0.158800407048
140,70.25141528,-0.084134406245,-0.1607124143806,-0.1592890995738
141,70.75141528,-0.037818638811466,-0.028435755682280003,-0.15917914391
142,71.25141528,0.002131918075340001,0.0074586602122660006,-0.154451050162
143,71.75141528,0.09068287676183999,0.0753990400938,-0.089308430935628
144,72.25141528,0.011575887622400001,0.03923584483994,-0.14548355793056
145,72.75141528,-0.08292489296279999,-0.10271691326299999,-0.1344879886824
146,73.25141528,-0.033713626943182,0.0728700594278,-0.11243577120090001
147,73.75141528,0.02010356061476,0.03681682009434,-0.04941896080952
148,74.25141528,-0.024342961662500003,-0.005406153395237999,0.0202318419116
149,74.75121528,0.099149462914,-0.11338260976983999,-0.026316054739387997
150,75.25141528,-0.045833185385919996,-0.221566753797,-0.08621745658149199
151,75.75141528,0.051697485719244,-0.013616178855200008,0.0988501396413
152,76.25121528,-0.11575276784132,0.09890511372884,0.11443940954132
153,76.75141528,0.18410853468403998,-0.006212492688460002,0.025705190221200002
154,77.25141528,-0.008936952702865996,0.035900522658,0.07134900575768001
155,77.75141528,-0.057402964649602,-0.0566454919862,-0.021111486877019997
156,78.25121528,-0.030842562682466004,-0.011490367482640002,-0.03265683128922
157,78.75141528,0.028264713619420002,0.091513653239002,-0.020781619861732003
158,79.25141528,-0.013860522335239997,-0.03224755168926,-0.010299180131071999
159,79.75141528,0.032662939892838,0.0186619185954,0.00333532170154
160,80.25141528,-0.0017531813410599994,-0.15686396421499998,-0.000513126601112
161,80.75141528,0.002754999602078001,0.0713795497959,0.0032375835530800002
162,81.25141528,0.013848304148738,0.23306323673982,0.00090407975892
163,81.75141528,-0.0008002326048659991,-0.06390256440558,-0.02301738488386
164,82.25141528,0.02527147634576,0.010574069125799999,-0.00246789384844
165,82.75141528,0.023084580480599998,0.04909520243585,-0.011227694732172
166,83.25141528,0.08935119122782,0.15781691527216002,0.010335832266119999
167,83.75141528,0.02010356015848,0.1342864062198,0.1087583641648
168,84.25141528,-0.01994473385336,-0.29438184511062,-0.20843928104754
169,84.75141528,-0.01888183019512,0.05721970437812,0.01602909201506
170,85.25141528,0.1770225058924,-0.0206777729012,0.05632173242116
171,85.75141528,0.043695159843592,-0.1292162268942,-0.10429905330518001
172,86.25141528,0.0405430935584,0.21978303572096,0.009248492234619998
173,86.75121528,0.042766642759,0.08054251982018,-0.057800025834559995
174,87.25141528,-0.039052586107159996,-0.120554164133276,-0.014062107037708
175,87.75141528,-0.02488052255276,-0.0024251331746740004,0.0010262527598399998
176,88.25141528,-0.014740167056302,-0.0275194582491,-0.0056566078444599995
177,88.75141528,-0.027617196859882,-0.048985247091379996,-0.0160290917544
178,89.25121528,-0.02854571048854,-0.08891136862364,0.01361006725552
179,89.75141528,-0.04744586778094399,-0.06441569278538001,0.0150150563324
180,90.25141528,-0.064721121395342,-0.10502597849506001,0.0001099556073199999
181,90.75141528,0.06111702192274,0.25456567999038,0.02345720717854
182,91.25141528,-0.003207039996201999,0.045539969448403994,0.0139399342533
183,91.75141528,-0.019749258385562,-0.018051054121736,-0.0008796453182080001
184,92.25141528,0.021105378100434,0.06566185532212,0.002590066612332
185,92.75141528,0.08441540415564001,0.13322349809344,0.01381776132848
186,93.25141528,-0.078367842870262,-0.2813826455196,-0.01260824918712
187,93.75141528,0.0112948889999,0.1380126804152,0.023835943833500003
188,94.25141528,-0.015546508666846003,-0.042290167879659994,0.001759290650588
189,94.75141528,0.02503934721282,0.03411679748454,-0.009663880791692
190,95.25141528,0.07003564730002,0.11988221419096,-0.054855656789408
191,95.75141528,-0.131207645966,-0.112588487877658,0.12952776787626
192,96.25141528,0.010464114454979998,0.02442848291666,-0.010140355309432001
193,96.75141528,0.06117810592159999,0.0266520267752,-0.05692038201834
194,97.25141528,-0.05429977018004,0.0011056650246799992,0.0076724614643760005
195,97.75141528,-0.047958993351299994,-0.0450634957948,0.043139270425199994
196,98.25141528,-0.005064068881939999,0.09141591367716,-0.009871574738928
197,98.75141528,-0.030170611348762,-0.04371959258036,-0.002272416894632
198,99.25101527999999,0.003463603302792,0.005626064671628001,-0.002736674214276
199,99.75141528,-0.0021807871794019998,0.0032681265737079996,-0.001991419189208
200,100.2514153,-0.043963938053046,0.0069455322667020016,-0.031422884213564005
201,100.7514153,0.08035926289980001,0.2166920546776,0.14275909945736
202,101.2514153,0.0776470243049,-0.14629600680479998,-0.06770825102454
203,101.7514153,-0.0567432291119,-0.059479902451360006,0.016432262706659997
204,102.2514153,-0.023035710442180002,-0.031783294439736,0.0065484703552
205,102.7514153,-0.03108690850232,-0.043023206176338,0.008271109043668
206,103.2514153,-0.0065790135821439995,-0.004758636646192,0.0006597339720919999
207,103.7514153,-0.023402229657505998,-0.006933314940659999,0.006169734267588
208,104.2514153,0.13280811100179998,-0.006249146644400001,-0.07380468309592
209,104.7514153,-0.12638181427123998,-0.03515527065342,-0.014697408079599999
210,105.2514153,-0.046810565921,-0.019468261561800003,-0.03637088947222
211,105.7514153,-0.02831358320028,0.01956599867102,-0.0195354556985
212,106.2512153,-0.0027550003575399994,-0.0035613425305560022,-0.00015882472573199987
213,106.7514153,-0.016120721434776,0.0002993241508399999,0.0009040797175199998
214,107.2514153,0.007568614681080002,0.01246774969262,0.001857028772608
215,107.7514153,-0.022547018741,-0.010036508553840003,-0.0048136145992
216,108.2514153,0.016756021197275997,0.012980876586262,-0.002736674336712
217,108.7512153,-0.000800232842604,0.011429279565259997,0.0008307760991520001
218,109.2514153,-0.007165443921169999,-0.0027549998475579996,-0.002981020148508
219,109.7514153,-0.005345066814282,-0.006713403814176,-0.0016615522308719999
220,110.2510153,-0.0002138026235839996,0.009291253364779999,-0.0027244569968
221,110.7514153,0.0006536254818360003,-0.0005314526265000003,0.004605920393828
222,111.2514153,-0.003292561392166,0.008570432464644,-0.0008552108868960003
223,111.7514153,-0.00966998946907,-0.008875864810252,0.0008429933632520001
224,112.2514153,-0.012712095662542,-0.01147814888512,-0.0043737918556
225,112.7512153,-0.004563159996164,-0.001484401379336,-0.0028099780108759996
226,113.2512153,-0.00842382540252,-0.004599812021759999,-0.0005131264779600001
227,113.7514153,0.0037079487256119997,0.0047830714199799985,0.0008918625698399999
228,114.2514153,-0.0005558868841220007,0.003365864789081999,-0.001075122013332
229,114.7514153,0.001325576636148,0.0022296564927600003,0.00100181825192
230,115.2514153,-0.004172206313216,-0.002864955720692,-0.00157603114258
231,115.7514153,0.006102538827797999,0.016279545577639998,0.000708603068
232,116.2514153,0.0001649334518,0.00988990091256,-0.0005009090534319999
233,116.7514153,0.009437860652152,0.011258238012999999,-0.000940731762724
234,117.2514153,0.0020708315286600003,0.00874147492152,-0.0029321509016680004
235,117.7512153,0.054580767860318,0.029938482452442,-0.003909534673348
236,118.2514153,0.029523094872196003,-0.11582606967144,0.031887141304308
237,118.7514153,-0.0039034260800799993,0.0522106138734,0.0024678936708479996
238,119.2514153,-0.015167773227339998,-0.0542264652188,-0.002162461287936
239,119.7514153,0.036450301224098,0.11293057119647999,0.0008429933690680002
240,120.2514153,-0.013017528400919999,-0.016426153756616,-0.002614501249696
241,120.7512153,-0.01950491265282,0.024257440024224,0.0011239913525559998
242,121.2514153,-0.010989457541384,0.0018509201590279994,0.0019181154339399998
243,121.7514153,-0.026774203100662,-0.0028771728856400005,-0.008332195845607999
244,122.2514153,-0.0038301223569159994,-0.011184934327258,0.005277871530168
245,122.7514153,-0.00287717319984,0.01285870358802,-0.005253437074696
246,123.2514153,0.0013500110882379997,-0.01579085464566,0.00206472294628
247,123.7514153,0.012162318187172,0.00817947961156,-0.00602312678446
248,124.2514153,0.005320632285540001,0.00012828174852399927,0.001478292758204
249,124.7512153,0.03043939242216,0.00700661906284,-0.007073814053944
250,125.2514153,0.16380338959208,0.2648648618522,0.05489230950096
251,125.7514153,-0.019199479879162,-0.1056124113532,-0.007415898476028
252,126.2514153,-0.018185444252024,-0.044086111388539996,-0.0069027720364959995
253,126.7514153,0.0016432265726800004,0.0033414300594619994,-0.00224798242294
254,127.2514153,0.014007129489416,0.0116491912474,-0.006743947178828
255,127.7514153,-0.0009957094490860002,0.00479528861512,-0.005510000283356
256,128.25141530000002,0.015021165282572,-0.009657772343318,-0.0019181154489879997
257,128.75141530000002,-0.019248349220352,0.03686568997976,0.004300488046012
258,129.2512153,-0.022986841796226,-0.01587637556656,0.017116431184548
259,129.75141530000002,-0.01493564335554,-0.004685332799517999,-0.021710134372379997
260,130.25141530000002,-0.000775798381826,-0.014373648149,-0.001881463412072
261,130.75141530000002,0.0029749114199719997,0.00863151922288,-0.009981530349548
262,131.25141530000002,-0.005699368453764,-0.01564424692642,0.004899135503188001
263,131.7512153,-0.004453204054261999,0.010952805649762,-0.0032742352267559997
264,132.25141530000002,0.00706770526006,-0.0019975279366920002,-0.0012461641605719998
265,132.75141530000002,-0.0015088360829000008,0.017427972078744,-0.003078758523496
266,133.25141530000002,0.008460477163,-0.007825177691415998,0.004056142207892
267,133.75141530000002,0.01344513389812,-0.005064069046638001,-0.00560773864756
268,134.25141530000002,-0.00015271614149199987,-0.0186619189013,0.002590066640384
269,134.75141530000002,-0.0027061309990799986,0.01168584311468,-0.002260199700016
270,135.25141530000002,0.00401338141922,-0.005186241757712001,0.002223547834672
271,135.75141530000002,-0.0009346226578599987,0.016169590890264,-0.002211330507096
272,136.25141530000002,-0.0058581930531280005,0.006688969286244,-0.0024923282743399998
273,136.75141530000002,0.000812450169056,0.010732894079084,-0.00317649683216
274,137.25141530000002,0.12092068336496001,0.14832407791396,-0.005790997925860001
275,137.75141530000002,0.1341275792026,0.234822529104,0.10818415197829999
276,138.25141530000002,-0.16622241530631998,-0.34016004912180003,-0.019767584356451998
277,138.75141530000002,-0.08227737693315999,-0.1373040792938,-0.040842419397171995
278,139.25141530000002,-0.015473204575122,0.027482806283079995,-0.014758493028460001
279,139.75141530000002,0.0214230277769,0.007250964814262,-0.0029565855062520002
280,140.25141530000002,0.02367101050432,0.050842274696,-0.02795317242744
281,140.75141530000002,0.03560730785038,0.075325735577962,0.013219113729600001
282,141.25141530000002,-0.023011276465328,-0.020311254098278,0.002113591955252
283,141.75141530000002,-0.00326812630357,0.006969966219679999,-0.0023090688761399996
284,142.25141530000002,0.0027061310475,0.055228285015539995,0.004386008984408
285,142.75141530000002,-0.006407971510742,0.00977994501862,-0.00354301576748
286,143.25141530000002,0.0013011420445899998,-0.01337182988536,0.005363392795600001
287,143.75141530000002,-0.027299547089624,-0.06841074712312001,0.0061819516449400005
288,144.25141530000002,0.008729257594360001,0.030659303655039997,-0.0005619955900319997
289,144.75141530000002,-0.002351829407688,-0.027714935201018004,-0.005497782964756
290,145.25141530000002,0.016584978589534,0.0672867555734,-0.006792816345088
291,145.75141530000002,0.04186256357206,0.14287516246594,0.0108856102543
292,146.25141530000002,-0.035802784934702,-0.09785442813946,0.000390953405644
293,146.7512153,-0.004331031326346,-0.015228858925258,-0.002064722935548
294,147.25141530000002,-0.010256419685539999,-0.04260781870232,-0.006866120059216
295,147.75141530000002,0.006688969260458,0.00695774974276,0.0039217518876079995
296,148.2512153,0.008008437213378,0.03940688729162,0.003298669786888
297,148.75141530000002,-0.004239401687804,-0.039141161121596,0.00187535486812
298,149.25141530000002,0.00014049902761999972,0.010317506390291999,-0.002669479073088
299,149.75141530000002,0.013652827694533999,0.02738506784558,0.009175188855636
300,150.25141530000002,-0.019138393650929997,0.01107497888006,-0.011655299795180001
301,150.75141530000002,0.18370536299662,-0.09379828734192,-0.126925482291392
302,151.25141530000002,0.1845727914514,0.20804221767788,-0.042394015694240006
303,151.75141530000002,0.010525200195736,0.013469568332000002,-0.011594213539459998
304,152.25141530000002,-0.0044532045320799995,-0.053725557494254,-0.0067439471647399996
305,152.7591417680851,-0.08180714173225957,-0.11529422868808512,0.032258859401740426
306,153.2547948,-0.0028527384234659993,0.04434267485166,-0.010091486294380001
307,153.7547948,0.0016676607894499998,0.02770271764994,0.0162245685135
308,154.2547948,0.009633337616034,-0.008338303827734,0.011753038888259999
309,154.7547948,0.023267839472112,0.02745837198526,-0.01199738420276
310,155.2547948,-0.00224187371621,-0.00115453454888,-0.00127059877812
311,155.7547948,-0.001777616450518,0.005858193137022,-0.0016371176201400001
312,156.2547948,-0.0020952661509079998,0.000995709441802,-0.006401862900139999
313,156.7422996851064,-0.010128008189770213,-0.014163614917657446,-0.00025994245919148945
314,157.2542272,-0.086150260674282,-0.09344398544912,-0.01932776155778
315,157.7542272,-0.049473938448299996,-0.07663298664648,0.048185014822700004
316,158.2542272,-0.07290671162144,0.06801979152198,0.06956528122904
317,158.7540272,-0.031074691666619997,0.02672533493324,-0.08295543710538
318,159.2542272,0.070475470144338,-0.032284203693558,-0.011655300061980001
319,159.7542272,-0.06354826268526,-0.042913250651818,-0.013292417579619999
320,160.2542272,-0.010769546240582,0.011917971764826,-0.00456926853664
321,160.7542272,0.006188060000258,0.00585819331414,-0.0006108648332200005
322,161.2542272,-0.01685375935404,0.016609413304062,-0.0017348559945
323,161.7542272,0.006823359597958,0.0009712748758620001,-7.330377823999998e-05
324,162.2542272,-0.014214823561523999,0.006957749690586001,-0.0040561421681
325,162.7542272,-0.002193004516002,0.012822051718222,-0.00312762768008
326,163.2542272,0.011319324089278,0.00343916870564,0.0006352993543199999
327,163.7542272,-0.00185092033923,0.009498947162082,-0.0010262528481199999
328,164.25422719999997,-0.002119700779614,0.012577705617699999,-0.00041538805005999997
329,164.75422719999997,0.012589923222032,-0.009584468484458,-0.00056199559704
330,165.25422719999997,-0.008155044819082,0.03039052264136,-0.00136833709878
331,165.75422719999997,0.02866788423482,0.01648724031882,-0.0012705987436800001
332,166.25422719999997,-0.034031277234064,-0.06236318548548,-0.0007819069246600001
333,166.75422719999997,-0.00786182964313,0.010916153412862,-0.00268780504828
334,167.25422719999997,0.004575377170556,-0.007312051533736001,-0.0028588471888200003
335,167.75422719999997,0.005699368403556,0.013750566008561999,-0.00017104214058
336,168.25422719999997,0.09857524952014,0.14332720186953998,0.10670586055103999
337,168.75422719999997,0.019627085421780002,-0.007214312982400002,0.0089919295574
338,169.25422719999997,-0.053187996066522,-0.08330363071278,-0.010213659160640001
339,169.75422719999997,0.020555600044896,0.02911992426332,-0.013732240437500001
340,170.25422719999997,-0.012504401758263999,-0.0020830491174599996,-0.0031764967857999997
341,170.75422719999997,-0.039455755875844004,-0.107005183779118,-0.02096487920664
342,171.25422719999997,-0.0006047557439419996,0.024452917200522003,-0.0034941464913599996
343,171.75422719999997,-0.020079125470762002,0.022986841177821998,-0.0015393792511999998
344,172.25422719999997,0.026322163643700002,0.01770897021316,0.00452039934706
345,172.75422719999997,0.06255866265743601,0.112881703491942,-0.0040317076582400005
346,173.25422719999997,0.03384801718764,-0.2900691386774,0.06665756425684
347,173.75422719999997,0.2864772578648,-0.1557277590682,-0.0584475417127
348,174.25422719999997,-0.013286309169199997,0.20817660935058002,-0.009553924951720002
349,174.75422719999997,-0.061837841646639996,-0.14397472019202,-0.0186191584279
350,175.25422719999997,0.024953826139516,0.011844668216280002,-0.04254062335382
351,175.75422719999997,-0.030146177213960002,-0.10480606913408,0.0023212864582
352,176.25422719999997,-0.061202543518859995,-0.12860535963964,-0.01407432461866
353,176.75422719999997,-0.161995230180104,0.22591612365232,0.01299920244638
354,177.25422719999997,0.024269657545348,0.13944210345191999,0.0011728609782600005
355,177.75422719999997,-0.0016065740982839998,0.05660883930294,-0.01576031103528
356,178.25422719999997,0.005332849475260002,-0.05197848449376,0.02971246259344
357,178.75422719999997,-0.024452917016845998,-0.0027916519838399995,-0.00383623082896
358,179.25422719999997,-0.024966043627644,0.02303571057894,-0.00561995599882
359,179.75422719999997,-0.003341430324434,-0.00787404708628,-0.00083077610238
360,180.25422719999997,0.022534801192998003,-0.02722624317666,0.00552221749094
361,180.75422719999997,-0.018099922177779997,0.03339597499178,0.0271712656506
362,181.25422719999997,-0.1302302620277,-0.05261378330834,0.09637002841438001
363,181.75422719999997,0.192721729822532,0.11940573902040001,-0.03413512351414
364,182.25422719999997,0.007800743282520001,-0.09112269899434,-0.02873507934296
365,182.75422719999997,-0.025137085712964004,-0.03426340547192,0.00544891390688
366,183.25422719999997,-0.0511843599118,-0.05996859514656,0.00364075407382
367,183.75422719999997,0.130364650427616,0.12050529645536001,-0.0038606655116
368,184.25422719999997,-0.0014355324541799987,-0.011856887277559998,-0.0383623082
369,184.75422719999997,-0.00661566546236,0.006004800139341999,0.0044715303417
370,185.25422719999997,-0.0062735811626,0.005125155140300001,0.0040805767964000005
371,185.75422719999997,-0.025528039110528002,-0.0037201668960399996,0.0048869181984799994
372,186.25422719999997,-0.02181398113163,-0.0014233146536199986,0.005742129042839999
373,186.75422719999997,-0.022156065659664003,-0.021948371344440002,0.0072570734073400004
374,187.25422719999997,0.007360920702998001,0.00710435680072,-0.00332310418604
375,187.75422719999997,0.0096089030544,0.002461784527040001,-0.006084213149360001
376,188.25422719999997,-0.018881830388942,-0.019358304923898,0.01045800491744
377,188.75422719999997,-0.0007269290621799999,0.012137882437899998,-0.0004398227672199998
378,189.25422719999997,-0.009621119959584,-0.010390809988700001,-0.0013439029409999998
379,189.75422719999997,-0.00964555517558,-0.0133718293344,-0.0010018180191399989
380,190.25422719999997,7.94127511340001e-05,-0.0035979933313399996,-0.01126434669618
381,190.75422719999997,0.011368193910820001,0.009376777177439996,0.004105010761319999
382,191.25422719999997,-0.005638282099282001,0.007910697146200001,0.0148806658799
383,191.75422719999997,-0.008765909777803999,0.016194024009240002,-0.0032253661131800004
384,192.25422719999997,-0.0004825834188799996,-0.01723249459912,-0.004007272569879999
385,192.75422719999997,-0.010818415753801998,-0.02119089951036,-0.002956585697220001
386,193.25422719999997,0.014471386578836001,0.0458331835032,-0.01304807191888
387,193.75422719999997,0.0235366204571,0.023475534622179998,-0.013341286681479998
388,194.25422719999997,0.030989170292736002,0.04109287337114,0.01295033324376
389,194.75422719999997,-0.031343471985204,-0.027568327882,0.0075014201991
390,195.25422719999997,0.03741546714659601,0.05604684585821999,-0.0016371175641600008
391,195.75422719999997,0.05163639940228,0.0489852469514,-0.004202749762600002
392,196.25422719999997,-0.02132528875146,-0.01711032377654,-0.0048624832916799995
393,196.75422719999997,-0.005662716586562,-0.024147484131279998,0.0083321960173
394,197.25422719999997,-0.029339834697361997,-0.04026209628162,-0.0146485367418
395,197.75422719999997,-0.0117713647748,0.0203479078388,0.0023701547040199996
396,198.25422719999997,0.023267838241619997,0.022766930000380006,0.0088941909567
397,198.75422719999997,-0.009645555662999997,0.0106229389637,0.01070235112658
398,199.25422719999997,0.058062697672560004,0.0903774448968,0.042760534357599994
399,199.75422719999997,-0.06411025850766,-0.0426689061856,-0.0265359658308
400,200.25422719999997,0.004966329695200003,-0.066834714261,-0.0828821330532
401,200.75422719999997,0.0007635795510199972,-0.087897336893,0.05243663312778
402,201.25422719999997,0.0035246897866600007,-0.10842238899119999,-0.05006647741642
403,201.75422719999997,0.0193827393123,0.09015753351323999,0.016517783824
404,202.25422719999997,0.02671311663726,0.11332152478419999,-0.0100181827057
405,202.75422719999997,-0.006688968668169998,-0.0250026957008,-0.0028344125507399997
406,203.25422719999997,0.012541053654780001,0.030195045866202,0.00224798226004
407,203.75422719999997,-0.010989457394181999,0.0564133615282,0.007037162158880001
408,204.25422719999997,0.0016432260771979995,-0.023634358457699997,-0.00205250561006
409,204.7540272,-0.06833744292920199,-0.083279195896736,0.0024434591593600003
410,205.25422719999997,0.0629251819983,-0.09830646809215998,-0.045375035450479995
411,205.75422719999997,0.02883892645838,0.028386885610362,-0.00601090940112
412,206.25422719999997,0.03416566699412,0.0016065744207799987,-0.00496022204164
413,206.75422719999997,-0.027702716915624,-0.031453427044479995,-0.00168598689952
414,207.25422719999997,-0.017440189869724,0.10303456254744,-0.0007819068945000002
415,207.75422719999997,0.08691995028438,0.09609513711484001,0.03782474711516
416,208.25422719999997,-0.018808525838599998,-0.1067608381206,0.0025167626284599994
417,208.75422719999997,-0.022522584348219996,0.011820233320940001,-0.010433570250840001
418,209.25422719999997,-0.024477351342699998,-0.006774490507378,-0.00356745035338
419,209.75422719999997,0.027250678180377998,-0.01197905821814,-0.00439822640052
420,210.25422719999997,0.011575887691596001,-0.0017653992015360003,0.000488691826708
421,210.75422719999997,-0.01118493400582,0.017660100649862,-0.0065484704607
422,211.25422719999997,0.007751874248358001,0.006933315237160001,0.00141720625806
423,211.75422719999997,0.0055771955786119995,-0.0019853106863199996,0.006328559098460001
424,212.25422719999997,-0.001142316732439999,0.0007269290179599997,-0.0058154326791199995
425,212.75422719999997,0.002498436837116,0.00954781638053,0.0013194679258
426,213.25422719999997,-0.004343248605012,0.006102539097764001,0.00097738367504
427,213.75422719999997,0.009755509931500001,0.0010690132746599996,0.00354301574836
428,214.25422719999997,-0.043169814114202,-0.13109768981356,-0.0021746784818
429,214.75422719999997,0.06404917216389999,0.00026267100178000075,0.03130071163986
430,215.25422719999997,0.010464113520520003,0.12439039494201999,-0.034868161642479994
431,215.75422719999997,-0.095508709258402,-0.08516065883575999,0.01749516719674
432,216.25422719999997,-0.0064201890335019995,-0.0178677958767,-0.01275485649104
433,216.75422719999997,-0.03466657598124,0.06420799601642,-0.01150869259546
434,217.25422719999997,0.06468447134332,0.081996379083162,-0.04615694259112
435,217.75422719999997,0.004013381690596,0.05357894925866,-0.014611885703680001
436,218.25422719999997,-0.07742711116612,-0.096913697499858,0.041807585440599995
437,218.75422719999997,-0.017098105384599997,-0.015570943545,-0.00459370312276
438,219.25422719999997,-0.031074691115604,0.067726578141162,-0.0175196020862
439,219.75422719999997,0.002791652543578002,-0.0104885477038,-0.00877201803216
440,220.25422719999997,0.2137843476264,0.07444608997062,0.04349357242188
441,220.75422719999997,0.11260070312986001,-0.25962363959924,-0.007648027964059998
442,221.25422719999997,-0.04605309756322,0.0578550025976,0.006010909394720001
443,221.75422719999997,-0.008619302098840001,0.08830050386204,-0.0347215541333
444,222.25422719999997,-0.003219257393321998,0.0001893677003800001,-0.00957835975052
445,222.75422719999997,-0.005955931935159999,-0.104903808969858,0.04574155442538
446,223.25422719999997,0.02023794993144,-0.07783028144396,-0.019620976898660002
447,223.75422719999997,-0.012773182517739998,-0.0060414523475940006,0.00518013326468
448,224.25422719999997,0.010366375389594,-0.017623448777598,-0.004667006857039999
449,224.75422719999997,0.026664248194640004,-0.118025183618958,-0.003982838364760001
450,225.25422719999997,0.022852451062476,0.13746290272512002,0.00466700691186
451,225.75422719999997,0.03487427022172,-0.007385355802060001,-0.012999202771360002
452,226.25422719999997,0.019187263442440004,0.0771583302348,0.014709623667339999
453,226.75422719999997,-0.05541154429194,-0.041398304850340004,0.02453232997058
454,227.25422719999997,-0.02286466877208,-0.017770057614000002,-0.04498408272426
455,227.75422719999997,0.04709156501954,0.03229642272714,0.00996931313066
456,228.25422719999997,6.108203619998864e-06,0.011087197077102002,-0.00957835965704
457,228.75422719999997,0.0815687732212,0.087689638832,-0.0068905549449400005
458,229.25422719999997,-0.03689012372398,0.025601342735819998,0.00972496712944
459,229.75422719999997,-0.024086397810299996,-0.05021919492982001,0.024263548725119998
460,230.25422719999997,-0.014239257676399998,-0.10539250227402,-0.01876576613106
461,230.75422719999997,-0.029779657583683998,0.0426566872762,-0.00962722893758
462,231.25422719999997,0.11626589325426,0.023793182379600007,-0.01573587646002
463,231.75422719999997,-0.1054291516206,-0.0637070891798,0.023261730742619998
464,232.25422719999997,0.021386375719618,0.01328630944234,-0.00364075394384
465,232.75422719999997,0.0003726275798000006,0.00820391421746,0.00408057670132
466,233.25422719999997,-0.041410523725947994,0.013261874738601999,-0.008845321994600001
467,233.75422719999997,-0.022644757473559998,-0.01784336049058,0.00346971210124
468,234.25422719999997,-0.008350521403339998,0.16157984255236,-0.019669845898139998
469,234.75422719999997,-0.057195269929399994,-0.06754332111868001,0.0011239910815399995
470,235.25422719999997,0.00799621994422,-0.043206465371498,-0.01163086538178
471,235.75422719999997,-0.01660941376462,0.008643736948659999,-0.00329866989486
472,236.25422719999997,-0.01612072171818,0.0008002324687600005,0.0168109987827
473,236.75422719999997,0.057085313548980006,0.11762201289676,0.010555742866119999
474,237.25422719999997,0.006359101650258001,-0.11379799962802001,-0.02460563331572
475,237.75422719999997,0.018845178399240003,-0.009853250423239998,0.03003011363684
476,238.25422719999997,-0.041092874171239996,-0.024269659277498003,-0.02023184160444
477,238.75422719999997,0.045967575752118,-0.0596998146572,-0.020573926013
478,239.25422719999997,0.011490366661800002,-0.094690150572218,0.00923627552882
479,239.75422719999997,-0.045564404015702,0.08378010343157999,-0.01082452397744
480,240.25422719999997,0.01107497810548,0.011551452887002,-0.007476984892600001
481,240.75422719999997,0.0004703662655160004,-0.02888779591938,-0.0085032376039
482,241.25422719999997,0.027079635542354,0.0937982874937,-0.014196497693680001
483,241.75422719999997,0.016890411466586,0.10689522832250199,-0.01182634227516
484,242.25422719999997,-0.06090932745288,-0.05029249691382,0.010506874068780002
485,242.75422719999997,0.019480477385320005,0.02093433561774,-0.02318842705472
486,243.25422719999997,0.028264713278477998,0.00827721726432,-0.00662177427196
487,243.75422719999997,0.007055488687220001,0.1286053614276,-0.019156719473179998
488,244.25422719999997,-0.0012644895456,0.119161393154242,-0.02419024557048
489,244.75422719999997,-0.12277771227192,-0.20401051120868,0.02521649810444
490,245.25422719999997,0.05488620038274,0.09685261127926001,-0.01815490135434
491,245.75422719999997,0.06632158892544,0.25350277348922,0.11469597054286
492,246.25422719999997,-0.1887022379418,-0.4330603700832,-0.02646266226522
493,246.75422719999997,0.008118392913498,0.0421679956943,-0.0009285144948399998
494,247.25422719999997,0.00012828184135200003,-0.017134757023398,0.0037140578260199996
495,247.75422719999997,-0.0016798781675079995,0.017391320307042,-0.01187521132362
496,248.25422719999997,-0.03478874963722,-0.04589427076935999,0.026682573444359998
497,248.75422719999997,0.16493959979829997,0.115911592225,-0.0029565846430599984
498,249.25422719999997,-0.00915686344756,-0.041886998175059996,0.00723263893992
499,249.75422719999997,0.007556397407636,-0.00865595442414,-0.0827110915028
500,250.25422719999997,0.00941342692906,-0.00056810422806,-0.02389703024254
501,250.75422719999997,-0.09396932870854,-0.2399537920304,0.033084436191840004
502,251.25422719999997,-0.012260056376424,0.12030981806584,-0.0018570288664999997
503,251.75422719999997,0.0664193272666,0.20649062354946002,0.015833615268300003
504,252.25422719999997,0.13300358921208,0.021545201842200004,-0.0727173437538
505,252.75422719999997,-0.146699176579,-0.15746261487946,-0.023286165385360002
506,253.25422719999997,0.11633919723533999,0.13120764636562002,-0.02690248512634
507,253.75422719999997,-0.09939380843158199,-0.10458615971980001,0.05236332811516
508,254.25422719999997,0.038417286528218,0.0503535845646,-0.03689623291768
509,254.75422719999997,-0.0884226752172,-0.061288062668878,0.08837991664105999
510,255.25422719999997,0.070035646724874,0.084464272591122,-0.04772075688988
511,255.75422719999997,-0.03056156496392,-0.07570447177306,-0.018839069870500002
512,256.2542272,-0.011038326831168,-0.014129302743098,-0.08938173499686
513,256.7542272,-0.03073260708312,-0.09532545046386,0.08691384021361999
514,257.2542272,-0.03642586633362,0.07107411753268,-0.0615996043764
515,257.7542272,0.012980876551128001,-0.026981897311758,-0.04894248644384
516,258.2542272,-0.069290391992982,-0.05615679918664,-0.00276110883984
517,258.7542272,-0.035497352692982,0.000482583444521999,-0.03323104395714
518,259.2542272,-0.011722494949588,-0.0022052220700799997,-0.03336543429106
519,259.7542272,-0.01189353741161,-0.02583347148978,-0.0371894477664
520,260.2542272,0.047213738888,0.04578431556392,-0.04151437045802
521,260.7542272,0.045136798079936,-0.0004703664986400004,-0.0736702923456
522,261.2542272,-0.008301652377044,-0.004355465863356,-0.0248011097888
523,261.7542272,-0.023035710828824,-0.023390012355038,-0.01202181880354
524,262.2542272,-0.049962630276304,-0.04325533437214,0.01419649757386
525,262.7542272,-0.002021962439168,-0.0010323615080999997,-0.0051556987314
526,263.2542272,-0.0008491020005840003,-0.004453204295718001,0.00395840379168
527,263.7542272,-0.00566271652117,-0.00222965673868,-0.00368962330056
528,264.2542272,-0.0037812529643999997,-0.014446951882477998,-0.003176496864768
529,264.7542272,-0.00686001145944,-0.013933825643019999,-0.00102625285034
530,265.2542272,-0.0002138024922700002,0.011111630581879998,0.0046425723607
531,265.7542272,-0.003439168696726,-0.00489302702338,-0.00039095344957999995
532,266.2542272,0.00946229547414,0.017146974490342002,0.001539379228
533,266.7542272,-0.008594867315752,-0.01828318225192,0.00029321505940000015
534,267.2542272,0.008265000489384,0.014092650357042,-0.0026633704409199997
535,267.7542272,0.0006414081033660002,-0.005821541331720001,-0.0001466075238
536,268.2542272,0.00973107622516,0.02337779544934,-0.00315206221834
537,268.7542272,-0.003610210865926,0.004734201816584,-0.00442266098684
538,269.2542272,-0.001215620918546,-0.006114756432897999,-0.0008063415230600001
539,269.7542272,0.003891208408488,0.01072067665916,-0.00215024400476
540,270.2542272,-0.0037079492583659995,-0.007776308807978,0.00087964521526
541,270.7542272,-0.0010201443789499998,0.008912517282862,-0.00432492268014
542,271.2542272,-0.0018264858430499997,-0.00274278275366,-0.00227241705184
543,271.7542272,0.087164295724414,0.08629686730386,0.02484997886222
544,272.2542272,-0.0729555811374,-0.07511804178340001,-0.043078183830660005
545,272.7542272,-0.089155715834004,0.057586222682079996,0.05439139963292
546,273.2542272,0.044648105980019996,-0.01593746180546,0.054611312808779996
547,273.7542272,-0.06105593489376,-0.066785845426338,7.330370800000003e-05
548,274.2542272,-0.04573544632961999,-0.07409179092040001,0.024287983584
549,274.7542272,-0.1223378898656,-0.1252822595102,-0.00813671925696
550,275.2542272,0.15018110397523599,0.26855448296643997,0.00816115336552
551,275.7542272,0.01618180869438,-0.022559236777999998,0.0113376503549
552,276.2542272,-0.018099923001965997,-0.018161009956738,0.010042616950200001
553,276.7542272,-0.01489899228136,-0.00425772788156,0.0032009315581400005
554,277.2542272,0.011759147027696,0.0026083923039,-0.01681099873236
555,277.7542272,0.00015271633825399985,-0.0017653993010200006,-0.022137739487240002
556,278.2542272,-0.0006780601741080001,-0.0031093016874400004,-0.007794634568820001
557,278.7542272,-0.015363249137504,-0.019065089596158002,-0.00613308236208
558,279.2542272,0.0034758207041400008,0.0194193913022,0.00772133090744
559,279.7542272,0.0019486588816180004,-0.002205222217598,0.018912373671060002
560,280.2542272,-0.033591454148028,-0.05360338448556,0.023163992536200002
561,280.7542272,-0.026847507073762,-0.009095777025,0.01615126475198
562,281.2542272,0.16884913287980002,0.09020640175416,-0.0966632420175
563,281.7542272,0.028521276707956,0.04324311724124,-0.01588248432004
564,282.2542272,-0.015705334003362,0.12744471852244,0.01898567799266
565,282.7542272,-0.04304764138619999,-0.12364513921486,0.01229059950382
566,283.2542272,0.030353870865371998,0.07696285430776001,-0.0106779163864
567,283.7542272,0.02761719629076,0.027922629149580002,-0.01314581018022
568,284.2542272,-0.03911367208508,-0.0925643404516,0.0090407988378
569,284.7542272,-0.01619402523134,-0.008093958530738,0.00430048799614
570,285.2542272,-0.0033414297929439995,-0.0015454873080599995,-0.010018182435780001
571,285.7542272,-0.005027417180861999,-0.018771874543280002,7.330373867999997e-05
572,286.2542272,-9.163082920000093e-05,-0.012296706749200002,0.0026878049479600002
573,286.7542272,0.01193018884504,0.03097695241174,0.0037384924872
574,287.2542272,-0.014776819370582,-0.02795928040978,-0.00305432385296
575,287.7542272,0.026859724472572,0.0505001907857,-0.00466700691284
576,288.2542272,0.0199691696187,0.1505354081818,-0.054660180581319995
577,288.7542272,-0.03860054522734,-0.10585675730669801,-0.03569893750806
578,289.2542272,-0.20260552047139999,-0.08584482638739999,0.06186838434044001
579,289.7542272,0.09051183508918001,-0.23729042503818001,-0.014001020999519997
580,290.2542272,-0.047910124788679995,0.025894557651400002,0.01615126428108
581,290.7542272,-0.01221118727676,-0.051954049259200004,0.00957835976942
582,291.2542272,0.15438385632200002,0.12180032628988,-0.01634674136518
583,291.7542272,-0.038331765195340005,-0.10830021652739999,-0.02951698598378
584,292.2542272,0.02073885929822,0.08226515967348,-0.0035430156972439996
585,292.7542272,0.0038423393014340003,0.012797616334600002,0.0147096237959
586,293.2542272,0.034361144062340004,0.05384772986002,0.0036651887112799995
587,293.7542272,0.03754985717658,0.04991376144064,0.011716386430879999
588,294.2542272,0.33127807974600004,0.0523205686596,0.00637742828294
589,294.7542272,-0.1356913943902,-0.06198444907974,-0.004838049145312
590,295.2542272,-0.0689727424315,-0.013713914415040001,0.00182037703452
591,295.7542272,0.033896886572734,0.02931540077586,-0.00284662986864
592,296.2542272,0.4050338910592,0.004502072872239999,0.0038117960808680003
593,296.7542272,-0.10402416396677999,-0.05433642246776001,0.01483179682086
594,297.2542272,-0.5786416592402,0.06330391801613999,0.1291490305207
595,297.7542272,-0.15820787211263998,-0.544763106988,-0.17591683954716
596,298.2542272,0.050365801520812,0.112038707375384,-0.009724967247168
597,298.7542272,-0.00023823723544400002,0.0005558868808480002,-0.0062674726523159995
598,299.2542272,-0.000226019920936,0.004489856071846,-0.0015882484359399998
599,299.7542272,-0.00038484476020999995,0.00191200668697,-0.000598647483924
600,300.2542272,-0.00039706208509600007,0.004074468104679999,-0.000513126407644
601,300.7542272,0.00045814863914999987,0.00027488911447399994,-7.330378864800001e-05
602,301.2542272,0.00017715084362400008,0.004379900360284,0.000329866990156
603,301.7542272,-0.00048258309457400013,0.003707949123632,0.00047647453491200006
604,302.2542272,-0.000201585314726,0.002547306103616,-0.000623082077328
605,302.7542272,5.497790885400002e-05,0.0005803215072120001,-0.001258381448092
606,303.2542272,0.000531452411706,-0.00027488918956399997,-0.002541197477864
607,303.7542272,-0.0012767073029500001,0.002156352618292,-0.0008429933991360001
608,304.2542272,-0.0002626717425640001,0.0016676608299040002,-0.000806341505384
609,304.7542272,0.0015821398540840001,-0.000751363763652,-0.002565632086532
610,305.2542272,-0.00014049883525200002,0.003952295055732,-0.0009407317522599999
611,305.7542272,0.0019120068074240002,0.001105665289556,-0.00141720627668
612,306.2542272,0.00021380275612400002,-0.002070831618198,-0.002504545597892
613,306.7542272,-0.0016310088941299998,0.0009712749666299999,-0.001123991193136
614,307.2542272,-0.000580321502948,0.00956003385755,0.0042027495521
615,307.7542272,0.32575586038098003,0.7136794232188239,-0.012803725956028
616,308.2542272,0.045478882956559996,-0.12971713802225998,0.12416437232202
617,308.7542272,-0.18801807239236001,0.020555598269859997,-0.08644958396152001
618,309.2542272,-0.11885596024957999,0.05830704301099999,0.039571820544528
619,309.7542272,-0.0070921401040199995,0.007336486389739998,-0.075502886731308
620,310.2542272,0.21171962491058,0.3574353098008,0.074989761091612
621,310.7542272,-0.08735977192389999,-0.07984613485106,-0.01071456815282
622,311.2542272,-0.005748237496588,-0.015094468808400001,0.009981530400404
623,311.7542272,0.07070759781698001,-0.11651023915692,0.019547673032112002
624,312.2542272,0.1909746549603,-0.4855703029774,0.044080002725580006
625,312.7542272,-0.13597239138834,-0.12368179150724,-0.027085744308431997
626,313.2542272,0.036633560953338,0.04908298541812,-0.016982040890328
627,313.7542272,-0.0201279942957,0.2688721330694,-0.0018448116600200005
628,314.2542272,-0.036340345657764,0.0359371741324,-0.02340833868152
629,314.7542272,-0.120590815926704,-0.032992806895479995,-0.1924468408502
630,315.2542272,-0.028496842083199997,-0.02357327229892,0.00342084283506
631,315.7542272,-0.0034269514107819997,0.08806837462779998,0.0863274113492
632,316.2542272,0.291840645994138,-0.111183497887918,-0.16112169602712
633,316.7542272,-0.17097494498893998,0.08244842099,-0.075295193159
634,317.2542272,-0.0027427828288,0.02342666458872,-0.00194255000682
635,317.7542272,0.002693913728574,-0.006469057865178001,0.002382372637204
636,318.2542272,0.000568104301038,-0.024049746368479997,-0.002761108776288
637,318.7542272,0.003622428194228,-0.040616399640100005,0.01032361477346
638,319.2542272,-0.002645044485986,-0.00594371428052,-0.0006597339396920001
639,319.7542272,-0.001789833729464,-0.015509856830491999,0.0005253437046599999
640,320.2542272,-6.10862717400007e-06,-0.0013622284871200009,0.0026389359426800003
641,320.7542272,-0.00055588689811,0.012919790250259999,0.03676184245124
642,321.2542272,0.003561341727956,-0.046639526574156,0.06884446009879999
643,321.7542272,-0.22955687544748,-0.9415930714426,0.22244029946840002
644,322.2542272,0.129020749351616,0.42032994562653997,-0.042565058029088
645,322.7542272,0.0023151775350299998,-0.013946042833476,-0.022064435817924003
646,323.2542272,0.00043371406661600007,-0.00021380271812800015,-0.012974767895328001
647,323.7542272,-0.00043371387092599995,-0.002156352695394,-0.004972439299428
648,324.2542272,0.003365864812812,0.00838717344702,0.004984656600244
649,324.7542272,0.0037201665904580006,0.0024373506675799995,0.009822705579912
650,325.2542272,-0.0020830491809419997,0.011026108709581999,0.012302816556679998
651,325.7542272,-0.001374445728184,0.008057306314984,0.005925388336908
652,326.2542272,0.004037816226318,0.00462424628408,0.007073814102808
653,326.7542272,-0.002339611926486,-0.0032070401176160007,0.00546113103792
654,327.2542272,0.003268126473678,0.0015699227591800002,-0.00973718463706
655,327.7542272,0.002864955668552,0.0035124725284859997,-0.017727295861892
656,328.2542272,-0.001056796057032,-6.719515685999974e-05,-0.0147218411552
657,328.7542272,-0.0007880155583399999,0.012296707833942,0.004740310819528
658,329.2542272,0.008998038234696,0.009718858642841999,0.006890554490131999
659,329.7542272,-0.0021807871594280003,0.00439211783192,-0.0030909757581919998
660,330.2542272,0.0018264858262939999,-0.00011606432657600003,0.0030054547437239998
661,330.7542272,0.00193644139263,0.005980366165368,0.003921751862684
662,331.2542272,0.0018264857979099999,-0.0013255765775079997,-0.004972439284684
663,331.7542272,0.003634645487424,-0.009034690099136,-0.0017715078697120002
664,332.2542272,-0.00021380264980800008,0.000592538862422,-0.004153880503311999
665,332.7542272,-0.005723802982414,0.003976729672666,-0.001062904713948
666,333.2542272,-0.003891208579286,-0.007116574731172001,-0.003787361596456
667,333.7542272,-0.00082466741311,0.0016310089111680002,0.0015393792348559999
668,334.2542272,-0.003683514577312,-0.0003970622034260001,-0.00125838145372
669,334.7542272,-0.002498437028466,0.005088503578178,-0.00335975629276
670,335.2542272,-0.006212494793212,-0.018991785878976,0.000635299425368
671,335.7542272,0.16355904530220003,0.4466215683454,-0.03590663170394
672,336.2542272,0.2379135043626,0.3102521142938,0.084995721425
673,336.7542272,0.106540928866936,-0.21977081784858002,0.657351590508
674,337.2542272,0.3007348385742,0.24651448473639997,-0.32998915469162
675,337.7542272,-0.105624629117682,0.010610721045719997,0.09440304294182
676,338.2542272,-0.0932485085708,-0.057635091646454,-0.040182685128840004
677,338.7542272,-0.056608839310822,-0.012296708034376,-0.006414080177172
678,339.2542272,-0.028191409581061998,-0.0049296789433140005,-0.011252129355172
679,339.7542272,-0.19202534362801998,0.013005311021246,-0.039950556415288004
680,340.2542272,-0.10723731072453999,-0.15247795636119998,0.00443487800844
681,340.7542272,0.07120850724238,0.0909638743626,-0.052436632939588
682,341.2542272,0.011856885435098002,0.033542585579769996,-0.010421353091328
683,341.7542272,-0.024330743983519997,-0.028081453799498002,0.010409135856348
684,342.2542272,-0.004844157376819999,-0.020066907543676002,0.0003665188753679998
685,342.7542272,0.01535103193462,-0.016389501981480002,-0.0033841909514
686,343.2542272,-0.00808174099056,-0.015302162552438001,-9.773834037200005e-05
687,343.7542272,-0.01973704060308,0.018539745642726,-0.00930957919046
688,344.2542272,0.06981573566214,0.00712878924974,0.0045692680351199985
689,344.7542272,-0.02183841549494,-0.09933272163557999,0.03281565606334
690,345.2542272,0.050463540088218004,0.00018936733035999854,-0.07132457189152
691,345.7542272,0.070182254764,0.14408467376576,0.05143481402788
692,346.2542272,-0.0031703879932419997,0.023695444482639997,0.03885099977274
693,346.7542272,0.09455575916525999,0.11905143686085999,-0.00963944642818
694,347.2542272,-0.132795894768204,-0.06800757589698,0.10145242265294
695,347.7542272,-0.056731012084902,-0.01442251769758,0.06795259779448
696,348.2542272,-0.032443028346104,0.0171958433637,0.047207630255220005
697,348.7542272,0.016181807459916,0.015265511282359999,0.05922944901596
698,349.2542272,0.03822180945392,0.04549110012132,0.0574701584118
699,349.7542272,0.009193515374980001,0.020714424779861997,0.0320581839757
700,350.2542272,-0.005442805389601999,0.031881032510582,0.061990557648399995
701,350.7542272,-0.014019346562320002,0.0648432960173,0.046425723245599994
702,351.2542272,-0.014410300162362,0.031221299196360006,0.0477207563428
703,351.7542272,-0.588501021552,0.42359196465502,0.199410700168
704,352.2542272,0.155287937815418,0.10845904379366,0.16446923441761999
705,352.7542272,-0.041703738428506,-0.11746318888622,-0.00237015537632
706,353.2542272,-0.0077885258570839985,0.02389092214866,-0.10660812169828
707,353.7542272,-0.017318016415188,-0.05173413793702,-0.0028832816884399996
708,354.2542272,-0.0201035599224,-0.03850280709524,6.10864275799999e-05
709,354.7542272,0.007141009297876,0.011795798780444,-0.00894306029182
710,355.2542272,-0.004685332722848001,0.00453872525904,0.00017104218460000002
711,355.7542272,-1.8326154812000063e-05,-0.01864970186738,-0.01431867047148
712,356.2542272,0.0090469072817,0.00023823748318000022,0.00652403582592
713,356.7542272,-0.014214823342744001,-0.02671311691822,0.00449596481878
714,357.2542272,-0.0041722065112399995,0.003390299621399999,-0.00557108684598
715,357.7542272,0.004941895940076,0.00854599834064,-0.01062904704364
716,358.2542272,0.0615324118032,-0.022681408149600006,-0.3062142960746
717,358.7542272,0.3734399652196,-0.3051208482082,0.01075121992772
718,359.2542272,0.1147998181892,-0.016108505058520003,-0.008210022633240001
719,359.7542272,0.010122029145734002,-0.07677959394846,-0.01373224023324
720,360.2542272,-0.034129015858659996,-0.050536843230738,-0.0779952148776
721,360.7542272,0.028496841758800007,0.24634344106179998,0.0691987621932
722,361.2542272,0.009560032996896001,-0.03822181109988001,-0.04847822986392
723,361.7542272,-0.03395797307566,-0.08078686629822,0.0009773840473400004
724,362.2542272,-0.014019346481739999,-0.0571586211719,0.08776905052876
725,362.7542272,0.096620482462556,-0.0486798145918,-0.041563239875419995
726,363.2542272,-0.06667589051172,0.007373137443580003,0.01346345960836
727,363.7542272,0.01041524420618,0.02232710776782,-0.0092362755694
728,364.2542272,-0.023646575455906,0.06093376131895999,0.0089674950609
729,364.7542272,0.04523453597534,-0.008949168174600003,-0.00210137490916
730,365.2542272,-0.02420857143346,-0.010903937905600004,-0.00623082084068
731,365.7542272,-0.024819436275799998,0.049327331506621996,0.013585633037339999
732,366.2542272,-0.010134247697219998,-0.014666863669799999,0.0040317075522
733,366.7542272,0.029205445657200003,0.01426369286274,-0.00302988941558
734,367.2542272,-0.01064737315444,0.006200277508440001,-0.0059131710592
735,367.7542272,-0.028655666304844,-0.005455022826736002,-0.0021258094413200003
736,368.2542272,0.03641364961196,-0.13163525177694,-0.01937663087372
737,368.7542272,0.00985324943938,0.18183611934434002,0.0070860315497
738,369.2542272,-0.021862850623560002,0.03197877031693999,0.02262643147726
739,369.7542272,-0.0213008548584,-0.021899502013338,-0.01722638679882
740,370.2542272,0.038661632766056,-0.06524647146979999,-0.01116660832658
741,370.7542272,0.007727438755876001,0.005662716561240002,0.0072326390229
742,371.2542272,0.010512982198680004,-0.026004512788079998,-0.0004153881339200001
743,371.7542272,-0.017049235091942,-0.01571755099618,0.0016615522005
744,372.2542272,-0.066700324776004,-0.06942478414788,0.00012217292046000014
745,372.7542272,0.022168284381200002,0.043291987126902,-0.01233946860454
746,373.2542272,0.04154491362238,0.048863074591320006,-0.00283441265314
747,373.7542272,-0.0038789913393199957,-0.027275113153738005,-0.0049846565555599995
748,374.2542272,0.006407970970574,-0.00457537720654,-0.00796567676086
749,374.7542272,-0.047641343881,0.16993646875020002,0.031642795965279996
750,375.2542272,-0.040286532986000004,-0.0254180839632,0.0035918847426200003
751,375.7542272,0.020995422132838,-0.03919919303482,-0.022821908291840002
752,376.2542272,0.0056260645018600015,-0.069986778311858,-0.0013683372949600003
753,376.7542272,0.1273836311744,0.22391248524360002,0.0033964083488200003
754,377.2542272,-0.10305899648280001,-0.3073688307498,-0.04386009173646
755,377.7542272,-0.052210613015822,0.13726742470764,0.004642572578220001
756,378.2542272,-0.06371930584186,0.014508038335139996,-0.028441864001899998
757,378.7542272,0.01412930216568,-0.03668243039326,-0.00662177429716
758,379.2542272,0.022046109867979998,0.07598546876298,0.026511531365719997
759,379.7542272,0.002620610392460001,-0.005259543152079996,0.014782927839299999
760,380.2542272,-0.014043782149419998,-0.08369458534808,0.01715308272218
761,380.7542272,-0.014605776471159997,-0.02470947969042,-0.01299920252492
762,381.2542272,0.010659590745440001,0.04316981266521999,-0.02526536754834
763,381.7542272,-0.01441030044396,-0.045747663161220004,-0.03369530143
764,382.2542272,0.057818351743600005,-0.03382358267922,-0.03513694175952
765,382.7542272,-0.0025595231204439996,-0.012150101100438,-0.00583986732822
766,383.2542272,0.005528325942418,0.08766520515536,0.00290771635306
767,383.7542272,-0.039333583192739996,-0.05561923842058,-0.00794124223758
768,384.2542272,0.0004948003673400003,0.121555982539384,-0.0046914415337799996
769,384.7542272,0.0895344508064,-0.08877698084920001,-0.017983858332079997
770,385.2542272,-0.052332785626823995,0.0712940282102,0.03198487967124
771,385.7542272,-0.0073731374766,0.06430573614774,0.00349414644582
772,386.2542272,0.007483093599057999,0.0686062238388,0.0049846566005
773,386.7542272,-0.01956599899662,-0.35838825660106005,0.016468914386
774,387.2542272,-0.02897331664398,0.13633890900328,-0.014734058515299998
775,387.7542272,0.051416488500615996,-0.02097098841334,-0.01490510057396
776,388.2542272,-0.00893695198712,0.035643959392739996,-0.03066541206464
777,388.7542272,0.006676752015489999,0.08114116943682,-0.03134958037852
778,389.2542272,-0.00769078805443,-0.0007880153767600001,0.01558926923146
779,389.7542272,-0.07588773221654,-0.05212509213938,0.00693942395772
780,390.2542272,0.017770056704080002,0.021691808634821997,0.0006597340405200003
781,390.7542272,0.06141023577718,0.15376077437836,0.04852709788138
782,391.2542272,-0.055851366959824,-0.04577209844584,-0.00266337059438
783,391.7542272,0.026957462993,-0.01703701856438,0.0013683370576199996
784,392.2542272,0.005870410895836,-0.03907701960004,-0.005375610107659999
785,392.7542272,-0.011771364329648,0.005149590030259999,-0.00449596477174
786,393.2542272,-0.0021685700202199996,-0.02568686369492,0.0015638138397199997
787,393.7542272,0.01613293905806,-0.0003726272018200016,-0.0017592905838
788,394.2542272,0.016377284800452002,0.013652827496139998,-0.01155756167312
789,394.7542272,0.029254314424777998,-0.15277117227217998,0.01053130901322
790,395.2542272,-0.0074220071815619985,0.06855735363038001,-0.00818558811412
791,395.7542272,-0.010622938529534,0.0619844489035,0.00244345922864
792,396.2542272,-0.042632252940944,0.03713447009516,0.0039095347467000005
793,396.7542272,-0.016756021200664,-0.00330477885636,-0.00105068745302
794,397.2542272,-0.013432916193064,-0.01461799425436,-0.00950505585386
795,397.7542272,-0.012553271219102,-0.020115777134518,-0.0033719736079
796,398.2542272,0.006530144483018001,0.012968659712441998,-0.0019058980949999999
797,398.7542272,-0.0022663082705199995,0.009694423643579999,-0.00505796033052
798,399.2542272,0.003842339390880001,-0.00403781647922,-0.0089674949149
799,399.7542272,-0.010451896284903998,0.023035710385980002,-0.00847880311284
800,400.2542272,-0.0029504769295,-0.008436042534816,-0.02081827148962
801,400.7542272,-0.010060942899904,-0.0031337364213380003,-0.01903454645692
802,401.2542272,-0.02442848249422,-0.03025613255998,-0.01517388106796
803,401.7542272,-0.00690888069324,0.015925244754906,-0.00725707360494
804,402.2542272,-0.0033414302021999996,0.004807505962682,0.0050090911891
805,402.7542272,0.018771874806934,-0.0267619860867,0.028368560235240002
806,403.2542272,-0.042705556700182,0.027116287835122,-0.0017837251004799999
807,403.7542272,-0.00326812664137,0.016902628334619998,0.00593760550028
808,404.2542272,-0.0010201440501399995,-0.02590677479252,0.01111773904834
809,404.7542272,-0.011160499501982,0.041850345954662,0.00215024397768
810,405.2542272,-0.01226005623556,0.012993093865781999,0.005277871693839999
811,405.7542272,-0.00500298265612,-0.0017898338370000006,0.0050823949464
812,406.2542272,0.019773692714814,-0.039907796129820004,0.01744629802842
813,406.7542272,-0.027580545529629998,0.024159702532700004,-0.01136208481592
814,407.2542272,-0.00761748329694,0.00304821489324,-0.00559552141374
815,407.7542272,-0.008399390691244,0.015314379771302001,0.0006352993519800001
816,408.2542272,0.006065887215351999,-0.02727511238086,-0.00109955661198
817,408.7542272,-0.023548837248603998,0.02907105460844,-0.0032009314509999997
818,409.2542272,-0.0034147340116,-0.002547306278178,0.00219911322034
819,409.75342720000003,-0.007666352957130001,0.005638281828244,-0.00505796038248
820,410.2542272,0.0008124501925340003,-0.011270455291076,-0.00395840376856
821,410.7542272,-0.003512472461674,0.016462805969179997,-0.00466700687802
822,411.2542272,-0.005467239941706,-0.007849612292938,-0.0012950333603
823,411.7542272,-0.0008735366206239996,-0.0011789687936,-0.00730594271272
824,412.2542272,-0.004514290700709999,-0.00860708481904,-0.00400727288824
825,412.7542272,-0.014727950074125999,0.00048258306354400016,0.0007819069197600001
826,413.2542272,-0.018051054141644,-0.005650499105418,-0.00952949062702
827,413.7542272,-0.015632029812322,-0.001960876198698,-0.00691498931018
828,414.2542272,-0.0005070175275819994,0.00781296064598,-0.0025900666365
829,414.7542272,-0.00480750590676,-0.016743803560357998,-0.0026878050505400003
830,415.2542272,0.06832217061986,0.1255724173636,0.00735481190216
831,415.7542272,0.14526364507238,-0.05611403841494,0.024361287527959997
832,416.2542272,-0.0040072724254,-0.1142927999276,0.008185588072940002
833,416.7542272,-0.043908960334140004,-0.029187119085768,0.00390953447676
834,417.2542272,-0.19217805693833998,0.0813794068548,-0.0060353438765
835,417.7542272,0.03003011292732,-0.003457494974660001,0.0009773838407000001
836,418.2542272,-0.049260134895440004,-0.116149829968414,0.02096487940376
837,418.7542272,-0.09585690039996,0.14649759145483998,-0.03396408175558
838,419.2542272,0.006255255340879999,0.2151587938534,0.031813837563540004
839,419.7542272,0.020256276021119998,-0.12032814264578001,-0.01624900305332
840,420.2542272,-0.01378110947228,-0.10527643606373999,0.103822577419
841,420.7542272,-0.13263096151816,0.10974796658227999,-0.07919251016466
842,421.2542272,0.25243375851524,-0.543437525412,-0.020207406874820002
843,421.7542272,0.0745743716506,0.0806463679716,-0.06472723153394
844,422.2542272,-0.0715689175568,0.035173593924479996,0.020647229560359998
845,422.7542272,-0.04811171009546,-0.012473859001036001,0.0041294459393400006
846,423.2542272,0.024678937153000003,-0.08697492738179999,-0.021746785961240002
847,423.7542272,0.0069882934642200014,0.07040827466036,0.00745255026714
848,424.2542272,-0.01561370391358,0.02691470232112,-0.02558301684856
849,424.7542272,-0.01341459044654,-0.017482949934694,-0.00615751694844
850,425.2542272,0.048404925374280004,0.04076911472602,0.0025167630170000004
851,425.7542272,-0.02824638730466,0.063517720269766,-0.006621774229700001
852,426.2542272,-0.02103818307764,0.04240623291324,0.00466700697044
853,426.7542272,-0.01448971296856,0.01567479068628,-0.0067928163894
854,427.2542272,0.07784860748734,0.126632268951,-0.0124860760958
855,427.7542272,0.03022558951042,0.027452263406820002,-0.01304807169084
856,428.2542272,-0.06582678907282,-0.11299776762798,0.00432492262432
857,428.7542272,0.08268665768442,0.1320323139032,-0.0059864748569
858,429.2542272,-0.03618762947666,-0.05965705447284,0.0044959647046
859,429.7542272,-0.007745765321959999,-0.012522728056954001,-0.0008796452941
860,430.2542272,0.0014660754891600001,0.0018936807505439998,-0.0005375610106
861,430.7542272,0.00134390250088,0.0028710644437679998,-0.0006108647841399999
862,431.2542272,0.00256563207828,0.005045743024542,-0.00095294905834
863,431.7542272,0.0023701553699,0.002235765074044,-0.00029321509416
864,432.2542272,7.330377354e-05,-0.000623082067532,-0.00041538805004
865,432.7542272,0.00190589812592,0.001453858121546,-0.0010262528342
866,433.2542272,0.00398283834564,0.003335321505938,-0.00205250566374
867,433.7542272,0.00183259436394,0.005583304013696,-0.00053756101754
868,434.2542272,0.0035430156974799996,0.004483747387882,-0.0006352993729799999
869,434.7542272,0.0021502440147000003,0.010616829937292,0.0033475389611
870,435.2542272,0.00017104225648000007,0.00638964571438,0.00222354779454
871,435.7542272,-0.004886918137759999,-0.013011419824896,-0.00332310440958
872,436.2542272,-0.00469144140584,-0.009688315648488,-0.00329866983232
873,436.7542272,0.0084543684175,-0.020390666594854,-0.0015393792490200002
874,437.2542272,1.3979999996180382e-11,0.013939934121446,-0.00031764968528000004
875,437.7542272,0.0012950333533799999,0.006291907117112,-0.0006597339711399999
876,438.2542272,0.0074036811546,0.004801397147476,0.00068416856
877,438.7542272,-0.0034452774070999996,0.001404988876944,-0.00053756101986
878,439.2542272,0.0016615521973200001,0.00284662974778,-0.00070860316278
879,439.7542272,0.0005375610987600002,-0.002944368246014,-0.00168598682842
880,440.2542272,-0.00263893590032,1.2217386479999454e-05,-0.0018325943570199998
881,440.7542272,-0.0004153881503399999,-0.00013439025755399985,-0.00017104210579999997
882,441.2542272,0.020989313657139998,0.0030176721941600005,0.0031276276824
883,441.7542272,-0.0033475390026600003,-0.005461131123200001,0.00017104214066
884,442.2542272,-0.01483179683758,-0.017434080867701998,-0.00124616416644
885,442.7542272,-0.0158336151153,-0.016114612821054,0.00090407988988
886,443.2542272,-0.0008307760556000001,-0.0012339468448780001,0.00063529937528
887,443.7542272,0.0019792018805600002,0.0038484479919699997,-0.00019547672943999998
888,444.2542272,0.0027855434059599997,0.0035307984077959996,-2.320000008076972e-12
889,444.7542272,0.0018814635229599998,0.002528980132216,7.330376657999997e-05
890,445.2542272,0.0031764968463199998,0.00277332604795,-0.00046425723473999994
891,445.7542272,-0.00469144147786,-0.0036529714009120003,4.886918468e-05
892,446.2542272,-0.024825544794060003,-0.036297585131802,0.00034208426950000005
893,446.7542272,0.00828332632778,0.018313726004546,0.006181951570039999
894,447.2542272,-0.0097494017427,-0.007929025066696,0.0048380490205599995
895,447.7542272,0.01072678563596,0.008515454958340002,0.00190589810962
896,448.2542272,-0.006963858418660001,-0.005094612356274,-0.00102625286446
897,448.7542272,0.00674394732572,0.005461131149112,0.0014172062906399998
898,449.2542272,0.01126434686616,0.015601486231980002,0.00207694024772
899,449.7542272,0.0013927719068799996,0.002406807107151999,-0.00254119749608
900,450.2542272,-0.0086009761219,-0.00792902480872,-0.00237015536498
901,450.7542272,-0.0056932597602,-0.005241219824381999,0.00217467860568
902,451.2542272,-0.02460563339216,-0.03417177579574,0.00329866981602
903,451.7542272,-0.01158199610142,-0.01684765076782,-0.00215024403972
904,452.2542272,-0.01927889247772,-0.03529576710308,-0.00315206226664
905,452.7542272,-0.00664620882828,0.0041660980276859985,-0.00029321505952
906,453.2542272,-0.0008796450662000011,-0.004141663349400003,-0.00041538800354
907,453.7542272,0.0025167633905400005,0.004874701111240002,0.00268780504798
908,454.2542272,0.0004153881125799999,-0.002577849440834,2.4434561080000007e-05
909,454.7542272,0.004618137551920001,0.007195987051779999,-0.0021991131801599997
910,455.2542272,-0.004349357002939999,-0.006976075495074001,-0.01776394775548
911,455.7542272,-0.007012727657060001,0.022394303351606,-0.01099556607844
912,456.2542272,-0.05986474889453999,-0.11285115928806,-0.03853335026856
913,456.7542272,-0.01627343760002,-0.02872286212072,-0.034550511918979995
914,457.2542272,-0.0038362308554799997,-0.004019490620360001,-0.03865552333072
915,457.7542272,0.021502440081460003,0.0473908881774,-0.03459938126956
916,458.2542272,0.0011239916770399996,-0.029553639196193998,-0.03105636547524
917,458.7542272,-0.008307761728440001,-0.014110976175114,-0.0025411974499400004
918,459.2542272,0.002076940192539999,0.00519235072442,-0.011239911838479999
919,459.7542272,-0.0068172513170600005,-0.008051197728040001,-0.0009040797246000001
920,460.2542272,-0.02521649826112,-0.027354525255359995,0.0156625729707
921,460.7542272,0.00151494537484,0.03932747416296,0.011288781221419998
922,461.2542272,0.00349414709982,0.0082711092604,0.0064996013325000004
923,461.7542272,-0.0075502897226,-0.012156208958880001,0.00434935721078
924,462.2542272,-0.00671951256194,0.021197008358566003,0.045692685689359996
925,462.7542272,-0.009602794773,0.0196087592628,0.0359677180579
926,463.2542272,0.0125838149286,0.046780024911059995,0.035796676065499994
927,463.7542272,0.0002443460100800008,0.006756164238179999,0.04381122224892
928,464.2542272,-0.003249800032960001,0.0013072506404399997,0.0491379629893
929,464.7542272,-0.01082452428776,0.018215986704599996,0.0236526842596
930,465.2542272,-0.01539379248368,-0.029944591359642003,-0.0029077163123799998
931,465.7542272,-0.003200931075739999,0.0015760313587799984,0.0019792018016399995
932,466.2542272,0.00627968980716,0.002846629989339998,0.01060461261984
933,466.7542272,-0.0016371177698799996,-0.007049379438160002,-0.00036651883699999983
934,467.2542272,0.007086032713140001,0.014770710842345998,-0.0036407540229800002
935,467.7542272,0.0042760538360800005,0.002138026582759999,-0.00679281634992
936,468.2542272,-0.03176496834308,-0.048368272863576006,0.00105068743878
937,468.7542272,0.3248823239579,0.149674086765406,-0.010311397479399999
938,469.2542272,0.01021365793486,-0.0529375431155,0.04449539057742
939,469.7542272,0.004202749258379998,-0.007904590341379998,-0.01869246207278
940,470.2542272,-0.02995680854498,0.007977893867978,-0.00803898063276
941,470.7542272,-4.886918981999969e-05,0.009297361920732,-0.01478292756436
942,471.2542272,-0.013243548672972,-0.0161146128137,-0.009944878598327999
943,471.7542272,0.09705419586250001,0.1457889891402,-0.0025656321705399996
944,472.2542272,-0.07176439460094,-0.135477588867,-0.014514147034819999
945,472.7542272,-0.024239114699999998,-0.00543669671406,-0.01197294970482
946,473.2542272,-0.040243769553740004,-0.04279718597058,0.03467268538724
947,473.7542272,0.154108967184,0.1341825547295,-0.01874133168038
948,474.2542272,0.032351400291400004,-0.08509346138236,-0.011166608564060002
949,474.7542272,-0.03122740748004,-0.0403292929038,0.00620638640522
950,475.2542272,0.011093304077440002,0.04023155433952,0.008552107117660001
951,475.7542272,-0.0266581389364,-0.003750709279340003,0.026218316179220002
952,476.2542272,-0.013512329211639999,0.02520428075474,0.0195721074689
953,476.7542272,0.012828160932380001,-0.017214169800579996,0.03579667629734
954,477.2542272,-0.032009314669400005,0.06845350686599999,0.0267803120973
955,477.7542272,0.012486076155679999,0.016896519997799998,0.02335946938136
956,478.2542272,-0.03186270686864,-0.007684678891979999,-0.00696385848106
957,478.7542272,-0.1575298093976,-0.0862663242756,-0.00332310449104
958,479.2542272,0.09351117999901999,0.09129984825452,-0.01060461243056
959,479.7542272,0.04229627708862,0.144493954443,0.00842993420194
960,480.2542272,0.02868621002538,-0.13469568267368,-0.047623018581179996
961,480.7542272,0.0014416407194399988,-0.0754418001992,-0.03960847272516
962,481.2542272,-0.013927716826659999,-0.024202463296839997,0.0165910873854
963,481.7542272,0.012363903616400001,-0.01929111008674,0.0015149441978999992
964,482.2542272,-0.022504258642180003,-0.024642285252094002,0.005888736406
965,482.7542272,0.0501642159795,0.0307264978952,-0.012632683818200001
966,483.2542272,0.00901636421108,0.017091995653406,-0.0047891799476400005
967,483.7542272,-0.006768381579359999,0.005119047284086,-0.00305432386536
968,484.2542272,-0.0005131263720599994,0.04399448128546,-0.0028099780181400002
969,484.7542272,0.002125809719959998,-0.06234485954845401,-0.014953969753559998
970,485.2542272,-0.01634674156928,0.066352132492338,0.0123150343258
971,485.7542272,0.025802929174280002,0.005216785649500002,0.01033583161506
972,486.2542272,-0.02130696369002,0.031215189657600003,0.011875211611
973,486.7542272,0.00801454570744,-0.029797983596560003,-0.0009773836612200003
974,487.2542272,-0.01544266180688,-0.03739714172866,-0.00706159695094
975,487.7542272,0.005180133580940002,-0.08924734450592,-0.01295033338798
976,488.2542272,0.0468166767878,0.24555542417974,0.04896692047502001
977,488.7542272,-0.05409818508282,-0.20624016895379998,-0.03665188656624
978,489.2542272,-0.02196669765188,0.016994257322000002,0.0071837696340000005
979,489.7542272,0.09373109143585999,0.063810934679886,-0.06091543613336001
980,490.2542272,0.001270598992080001,-0.04956556735362,0.02577849391096
981,490.7542272,-0.02844186404652,-0.013060288616733999,-0.0091629716781
982,491.2542272,-0.0746232426927,-0.17579466563774002,0.023359469269600003
983,491.7542272,-0.036114325719620005,0.17723630718980002,-0.00481361448864
984,492.2542272,0.0321314881736,0.0639086737292,0.044935212972659996
985,492.7542272,-0.03481929278556,0.03832565689716,-0.01519831585662
986,493.2542272,-0.018448116317639998,-0.057042552602634,0.00510682964214
987,493.7542272,-0.01099556584494,0.008442151033060001,-0.012730421865619998
988,494.2542272,0.008649845802379999,-0.0325102236553,0.00518013328044
989,494.7542272,0.0016615518612599993,0.07710335229788,-0.00403170763912
990,495.2542272,0.03904647669074,0.0825278303558,-0.01092226227664
991,495.7542272,0.1797897224909,0.1275852174064,-0.16229455422188
992,496.2542272,0.0909455492508,0.1439563951229,-0.09888679071464
993,496.7542272,-0.17265482209799998,-0.37026957586259995,0.00422718411836
994,497.2542272,0.0008063418236800007,0.030726499164280004,0.10638820945859999
995,497.7542272,-0.09588133560199999,-0.06972410643372,0.1470473689132
996,498.2542272,0.0027611086452400003,0.020341796933226002,-0.00498465672838
997,498.7542272,-0.035161377227980004,-0.0007208202676799999,-0.03003011266138
998,499.2542272,0.01314580990218,0.005167916578039999,-0.007648026977819999
999,499.7542272,-0.01739742865172,-0.01059239560818,-0.014905100671319999
1000,500.2542272,-0.02074496751412,-0.015308271919054,0.00215024407986
1001,500.7542272,0.10418909663952,0.09330348790938,-0.0234816422188
1002,501.2542272,0.018252639107380002,0.03023780584516,-0.029614724145059997
1003,501.7542272,-0.048502664475600005,-0.029016077389827998,0.00210137496678
1004,502.2542272,-0.02663370530664,-0.017996076620794,7.330397212000052e-05
1005,502.7542272,0.004349357804000001,-0.0184603335936,0.01163086554462
1006,503.2542272,-0.00026878074095999875,-0.0187046797605,0.0003909534033599999
1007,503.7542272,-0.40365944758829997,-0.16279546275520002,0.18003406869798
1008,504.2542272,0.08706044794711999,-0.0731205147836,0.08300430590814
1009,504.7542272,0.44148419229620006,0.21041848367340002,-0.08862426168583999
1010,505.2542272,-0.06604669893444,0.06349328901580599,-0.23882369568038
1011,505.7542272,-0.017861685839379998,-0.044849693303339995,-0.14567903228452
1012,506.2542272,0.04324922579326,-0.0468777624346,-0.16073074077468
1013,506.7542272,0.04874700953852,-0.059046190404214,-0.10492213429346
1014,507.2542272,0.047916233230560004,0.24887852881264,-0.06492270829372
1015,507.7542272,0.03435503472536,-0.05068956028767999,0.20979539961059998
1016,508.2542272,0.03332878176218,-0.273581898286,-0.048356055596639996
1017,508.7542272,-0.02560745147194,-0.053523971851,0.12943002995078
1018,509.2542272,-0.0204028837185,0.069724106519266,-0.01996306120088
1019,509.7542272,0.00444709582094,-0.019828670698514,0.02150244024032
1020,510.2542272,-0.028392994948960002,0.031264059842726,-0.009798271199039999
1021,510.7542272,0.0185458546674,-0.022247694849348,0.02010966854062
1022,511.2542272,-0.19748037134256,0.15016278281348,0.19545229440258002
1023,511.7542272,0.154695395447,0.3187614582607,0.032326964548280004
1024,512.2542272000001,0.13671153712244,-0.6777789041334,-0.33727066180907994
1025,512.7542272000001,-0.1136941511242,0.1369436690334,0.14541025067102
1026,513.2542272000001,0.0022724172093800004,-0.052644326845020004,-0.06565574576376
1027,513.7542272000001,0.01253494541826,0.012669335296466,0.00403170765268
1028,514.2542272000001,0.0006352996734999983,0.036908449530780006,0.052412197868419996
1029,514.7542272000001,-0.02441015681928,0.52975415303386,0.21675926027682
1030,515.2542272000001,-0.01194851582198,-0.0622226847188,-0.0035674504611800007
1031,515.7542272000001,-0.00740368083656,-0.032901176893288,-0.0520701135877
1032,516.2542272000001,-0.01263268419374,-0.007782417360940001,-0.0025656322411599995
1033,516.7542272000001,-0.017812816744000003,-0.0161146111064,-0.0033964080085799996
1034,517.2542272000001,0.00581543252396,-0.01066569950244,0.0030787583345399995
1035,517.7542272000001,-0.0042516191637999995,0.0013072512049399985,-0.00019547657373999994
1036,518.2542272000001,0.0054489139492,-0.004752527899674,0.00713490065478
1037,518.7542272000001,-0.005595521859359999,0.006707295346026,-0.01036026656194
1038,519.2542272000001,-0.006255255117460001,-0.004312705179202,0.0061819515169200005
1039,519.7542272000001,-0.01576031161682,-0.019804236501454,0.00469144180188
1040,520.2542272000001,0.0017592906597400004,0.017287473290332,-0.00356745036176
1041,520.7542272000001,0.013365721435880001,0.0071715526139599995,-0.01700647554346
1042,521.2542272000001,-0.004105010999200001,-0.018826852636514,0.01097113143142
1043,521.7542272000001,0.03992612179694,-0.00929736248988,0.012803725860520001
1044,522.2542272000001,-0.00813671952016,0.004752527819179999,0.00923627549642
1045,522.7542272000001,0.021380267561580003,-0.014086541656960001,0.01143538842968
1046,523.2542272000001,-0.013414590686279999,0.015381574908152,-0.00691498915886
1047,523.7542272000001,0.013903281748359999,-0.05816654440444,0.02123365962918
1048,524.2542272000001,0.01644447982174,-0.040182685641894,-0.081196146908
1049,524.7542272000001,0.04747641111038,-0.04436100148784,-0.06455619021902
1050,525.2542272000001,0.02631605447568,-0.04961443798045399,-0.08994372987006001
1051,525.7542272000001,0.02653596603698,-0.08572876304448,-0.11051765632842
1052,526.2542272000001,0.01769064367134,-0.05875297496,-0.1562347754786
1053,526.7542272000001,0.04593703148474,-0.13633280127939998,-0.1925445772682
1054,527.2542272000001,0.02643822799524,0.022663083169319996,-0.28248830865348
1055,527.7542272000001,0.06653539177276001,-0.1434188335214,-0.15005282447842
1056,528.2542272000001,0.058520845952,-0.1250440201928,-0.189734601153
1057,528.7542272000001,0.016737694363699998,-0.1836626040128,-0.20977096527800002
1058,529.2542272000001,0.03218035681798,-0.15429222655614,-0.24405269771539997
1059,529.7542272000001,0.049357874429019996,-0.12296708004788,-0.248231011924
1060,530.2542272000001,0.023115123866,-0.13139701369424,-0.225946663673
1061,530.7542272000001,0.12439650417898002,0.1058139983162,-0.1898079035054
1062,531.2542272000001,0.016077961773000003,-0.1332784773384,-0.06934536970468
1063,531.7542272000001,0.00669507820856,0.0037018402635199993,-0.11005339865555999
1064,532.2542272000001,0.01387884768958,0.019804237039252,-0.05214341736486
1065,532.7542272000001,0.02753778441536,0.029345943906960003,0.00630412429078
1066,533.2542272000001,-0.059266100992080004,-0.13426807745752,-0.03451386007356
1067,533.7542272000001,-0.027904303607159998,-0.01276707451476,0.0037140579421200003
1068,534.2542272000001,0.011117738765160002,-0.02500880374646,0.0185702891784
1069,534.7542272000001,-0.02294408127884,-0.006780598604493999,0.032595744447259996
1070,535.2542272000001,0.01189964596974,-0.012889245991074001,0.01111773917602
1071,535.7542272000001,0.01180190748514,-0.006145299593933999,-0.0018325943775200006
1072,536.2542272000001,-0.03161836051086,0.020170755277599997,-0.025436409435679996
1073,536.7542272000001,0.0066706434441,0.005998692123539999,-0.016639956139779997
1074,537.2542272000001,0.01749516709478,-0.00211359230172,0.002345720765099999
1075,537.7542272000001,0.0065240360609600005,0.012669334879471998,-0.00613308222632
1076,538.2542272000001,-0.0459125971029,-0.06779377375648,-0.05094612264118
1077,538.7542272000001,0.0186924623116,-0.38681179822379397,-0.16424932221594002
1078,539.2542272000001,0.020928227984819997,0.2108094366128,0.0781662568098
1079,539.7542272000001,0.2286100366192,-0.14258805854294,0.22848786387880002
1080,540.2542272000001,-0.1123013817172,0.031068581252200002,0.02976133015136
1081,540.7542272000001,0.07892372983232,-0.007293725625339998,-0.0022235479929800005
1082,541.2542272000001,0.04806284096568,0.01833816030024,-0.00935844843424
1083,541.7542272000001,-0.035014769088279996,-0.021783437709188,-0.005668825303499999
1084,542.2542272000001,-0.0034697117420400005,0.02410472404218,0.00618195166108
1085,542.7542272000001,0.03887543488458,-0.0656679640288,-0.0327667866121
1086,543.2542272000001,0.049357872892039995,0.18393138511446,-0.01964541108342
1087,543.7542272000001,-0.12713317762778,-0.11451271224328799,0.01263268349964
1088,544.2542272000001,-0.026878050128848,0.011789690295426002,0.0033475389379800003
1089,544.7542272000001,0.0017837251721399998,-0.005363392669174,0.00840549937194
1090,545.2542272000001,0.0031764966628000002,0.010323614803226,-0.006621774232260001
1091,545.7542272000001,-0.01703091016272,0.01284037779414,0.00371405781884
1092,546.2542272000001,-0.0023457206177599998,0.002700022385706,0.005106829511759999
1093,546.7542272000001,0.00691498957098,-0.0794490734995,0.0058643017733
1094,547.2542272000001,-0.003982837900800002,-0.0179227726757,0.117163864522
1095,547.7542272000001,-0.1695516291486,-0.0353690705986,-0.04021933670318
1096,548.2542272000001,0.14023011905468,0.034684902361178,-0.040952375083319996
1097,548.7542272000001,-0.0601335290756,-0.004654789568148,-0.00381179640726
1098,549.2542272000001,-0.012095122582,0.01029918018621,0.00711046606758
1099,549.7542272000001,-0.010409135869179999,0.005534434798895999,0.00205250567762
1100,550.2542272000001,-0.0036896232118600004,-0.001429423676522,-0.00043982264352000007
1101,550.7542272000001,-0.004447095610499999,-0.0015760312039780004,2.4434593520000007e-05
1102,551.2542272000001,-0.0051312640964,-0.002528980319924,-0.00100181822668
1103,551.7542272000001,-0.0034208427950999996,-0.00238237274599,-0.0009285144695
1104,552.2542272000001,-0.00855210691666,3.665175835799997e-05,-9.773835775999999e-05
1105,552.7542272000001,-0.00579099806506,-0.005412262042024,-0.0005864301859799999
1106,553.2542272000001,-0.010286962869359999,-0.006927206727882,-0.0008552106889799998
1107,553.7542272000001,-0.00222354783162,-0.0024068073560960003,-0.00124616415478
1108,554.2542272000001,0.025240932548380002,0.05411040199852,-0.0114842578644
1109,554.7542272000001,0.05888736490528,0.01755625390448,-0.02042731814762
1110,555.2542272000001,0.009407317389759999,0.010958914087080001,-0.02565632090248
1111,555.7542272000001,0.250014736207,-0.3698297528164,-0.2458852929398
1112,556.2542272000001,-0.22702178701072,0.00572990979572,0.01749516669584
1113,556.7542272000001,-0.029907939714380005,-0.0085398893784,0.0228463427436
1114,557.2542272000001,0.34479651508054,0.44371995747799997,0.0037384922584999996
1115,557.7542272000001,-0.0057176937955999985,0.13555089502286,-0.023310600199880002
1116,558.2542272000001,0.0168843024216,0.03966955774814,-0.00652403577082
1117,558.7542272000001,-0.05468461528518,-0.030579890751860003,-0.001270598734
1118,559.2542272000001,-0.056150690541340004,-0.05867966994524,0.00461813769546
1119,559.7542272000001,-0.05500226594478,-0.24335630766600003,-0.01847255087646
1120,560.2542272000001,0.06460505938922,0.27903081404524,-0.0077457653334
1121,560.7542272000001,-0.09028581401562001,-0.08822109100406,0.0027366740826000008
1122,561.2542272000001,-0.1222951276998,-0.085313375948654,0.1343169477961
1123,561.7542272000001,0.05578417214564,0.07866716585545999,0.01109330447886
1124,562.2542272000001,0.6248902378052,0.23722322553902,-0.1802784129164
1125,562.7542272000001,-0.23193313989936,-0.16406606179376,0.062283772646099994
1126,563.2542272000001,-0.2401675967788,-0.0835540848084,0.24771788484204
1127,563.7542272000001,-0.08644958395422,-0.07431780886419999,-0.046230246793700004
1128,564.2542272000001,-0.004886919023340001,0.07075035860864,-0.031007496033459998
1129,564.7542272000001,-0.0015393792831399997,0.006878337552872,-0.00974940179792
1130,565.2542272000001,-0.09377996037838,-0.030775367590694002,0.08388395164422001
1131,565.7542272000001,0.02135583257584,-0.00230906885206,-0.001478292816972
1132,566.2542272000001,-0.01172860387304,0.014379756891358,0.02929707478164
1133,566.7542272000001,-0.006548470764099998,0.059119493828980005,0.044006698827340006
1134,567.2542272000001,-0.018399245975360003,0.03698175377572,0.07420785369962
1135,567.7542272000001,-0.00537560933682,0.0587041053979,0.0830531756622
1136,568.2542272000001,-0.0435913107162,-0.009932661655474,0.0779952151694
1137,568.7542272000001,0.0061575170661,0.133498389020306,0.1679633799162
1138,569.2542272000001,-0.00860097591692,-0.17076114010680002,0.11176382008400002
1139,569.7542272000001,-0.18912373425102,-0.10464113718240001,0.16442036419880002
1140,570.2542272000001,-0.00014660703041999957,0.461972595232,0.2607659561306
1141,570.7542272000001,0.01444084269918,0.0492234842334,0.17409646294599998
1142,571.2542272000001,0.00527787129146,0.0924727098154,0.11640639259840001
1143,571.7542272000001,-0.01927889260354,0.08013324251254,0.1564302516006
1144,572.2542272000001,0.008112284374780001,0.060976521737300005,0.15533069571774
1145,572.7542272000001,0.04227184293494,0.213937064565166,0.1478048405198
1146,573.2542272000001,-0.019278891977,0.12076796714987999,0.064091933159
1147,573.7542272000001,-0.070933617556,-0.010958912295193999,0.138104308693
1148,574.2542272000001,0.03646862732888,0.09468404142164,0.0925093622486
1149,574.7542272000001,0.0010629050063599998,0.07998663400944,0.09679763354080001
1150,575.2542272000001,-0.20021703860875997,-0.166191870793674,0.02856403703692
1151,575.7542272000001,0.6120620694192,0.491391849056,0.08830661254392
1152,576.2542272000001,-0.18509202764182,0.017165300108206005,0.04618137729444
1153,576.7542272000001,-0.36431975487220003,-0.37777099472482,0.058252064508799994
1154,577.2542272000001,0.09568585828688,-0.039669559190828,0.0728150824852
1155,577.7542272000001,-0.03591885008218,0.0972618892058,0.07498976053578
1156,578.2542272000001,-0.032986698264799996,0.02691470162236,0.08266222188689999
1157,578.7542272000001,-0.05485565673047999,-0.02515541253678,0.050042043056339996
1158,579.2542272000001,0.05302306306119999,-0.02317621067626,0.00752585430348
1159,579.7542272000001,0.06778155652424,0.11783581677720001,0.01883907009622
1160,580.2542272000001,-0.00237015476042,-0.0170919973032,-0.00290771642354
1161,580.7542272000001,0.01886350372708,-0.021050399225259996,0.0030787582092
1162,581.2542272000001,-0.01918115378552,-0.15236189349122,-0.00806341519564
1163,581.7542272000001,-0.02922377165676,0.128611470937766,0.0038606653970600004
1164,582.2542272000001,-0.009187406255440001,0.0441899581468,0.0030298892358200003
1165,582.7542272000001,0.11247242438666,0.128269387265,-0.07987667887544
1166,583.2542272000001,-0.016872086636040003,-0.13221557409280002,0.08740253215758001
1167,583.7542272000001,-0.040500334769119996,0.148391271802526,-0.07117796343822
1168,584.2542272000001,-0.033719735594,-0.05193572330356,0.01544266156572
1169,584.7542272000001,0.010531308859560001,0.02190561124716,0.0459859005906
1170,585.2542272000001,-0.0153937924785,0.04123337248680001,0.1003284312778
1171,585.7542272000001,-0.02951698590188,0.042015279772880006,0.13636945336200001
1172,586.2542272000001,-0.014001020889559998,0.06882002648832,0.14431069672
1173,586.7542272000001,-0.04329809487438,0.055600912174391996,0.165617658642
1174,587.2542272000001,-0.00835663033016,0.0800599373098,0.141745063664
1175,587.7542272000001,-0.01473405843824,0.07837395071464,0.14521477609
1176,588.2542272000001,-0.01783725158822,0.0546479625904,0.1178969021126
1177,588.7542272000001,-0.01353676340752,0.040378161716071996,0.074574372394
1178,589.2542272000001,0.0525099351652,0.0680136835218,0.2531668012972
1179,589.7542272000001,-0.08786679033656,-0.0227852572832,-0.10848958390624
1180,590.2542272000001,0.11875211297938,-0.0408424192702,0.03306000226006
1181,590.7542272000001,-0.015833615244400003,-0.028405210940734,-0.04412887152284
1182,591.2542272000001,0.0045692697575600025,-0.009810487383159998,0.0094806213915
1183,591.7542272000001,-0.0078190694571,0.011545345226572001,-0.005790998046459999
1184,592.2542272000001,0.18196440168220002,0.08262557034274,-0.020793837418820002
1185,592.7542272000001,-0.0543669657394,-0.11810459763344,-0.020476187319500003
1186,593.2542272000001,-0.0942197839526,-0.060952087695200004,-0.086620625474
1187,593.7542272000001,-0.0366763223518,-0.03434281714422,-0.091703020707
1188,594.2542272000001,-0.00449596530674,-0.104176879673408,-0.169307282872
1189,594.7542272000001,-0.0244101566522,-0.116394174561,-0.1442129566528
1190,595.2542272000001,0.16048639192564,-0.0816726213752,-0.2141325394888
1191,595.7542272000001,0.01654221808148,-0.11761590569198001,-0.1341703400028
1192,596.2542272000001,-0.01404988977462,-0.04006051263208,-0.11149503968379999
1193,596.7542272000001,-0.0060597791446600005,-0.03367086667712,-0.039828383486928
1194,597.2542272000001,0.028637340982292,-0.0161023956376,-0.03038441422484
1195,597.7542272000001,0.030616543551,-0.13076171245398,0.0035430155404599993
1196,598.2542272000001,0.0115086916278,0.22072987948996603,0.00434935742936
1197,598.7542272000001,-0.00437379173482,-0.092961402932,-0.012559379806719999
1198,599.2542272000001,-0.06426297569898,-0.060463395983599996,0.0206716644711
1199,599.7542272000001,0.01502727377632,-0.0033597555103600015,-0.01588248419966
1200,600.2542272000001,-0.01409875923738,-0.006487383968819999,-0.00195476731958
1201,600.7542272000001,-0.00561995588688,-0.02378707389168,0.00461813777682
1202,601.2542272000001,-0.0025900660987199986,0.02430019997394,-0.0049113529044
1203,601.7542272000001,0.08029206515794,0.118177898618912,0.00510682957236
1204,602.2542272000001,-0.0261694478648,-0.08069523701704,-0.01185077661686
1205,602.7542272000001,0.05375610103682,-0.00472809428388,0.009651663361800001
1206,603.2542272000001,-0.04698771863552,0.042503972271252,-0.017763947645019998
1207,603.7542272000001,-0.0003909533576800002,-0.056944814253420004,0.00852767244898
1208,604.2542272000001,-0.02831969097466,-0.04162432604488,-0.00024434584639999976
1209,604.7542272000001,-0.01639561073848,-0.014477495403579996,0.0009529490606400001
1210,605.2542272000001,0.08473916228578,0.020439535114499998,0.00838106523882
1211,605.7542272000001,0.01727525580184,0.0005742134923999987,-0.00681725121796
1212,606.2542272000001,-0.05458687728962,-0.049443396031433995,-0.00276110888272
1213,606.7542272000001,0.02179565529464,-0.027940954238454,0.00503352580574
1214,607.2542272000001,-0.0131213755658,0.011667518242265999,-0.01185077676488
1215,607.7542272000001,-0.00779463404944,0.09352339877584599,-0.0010262527366799994
1216,608.2542272000001,-0.0033719736206199997,-0.01689651937906,-0.0008063414200599998
1217,608.7542272000001,0.00838106434324,0.0319726627405,0.01111773909724
1218,609.2542272000001,0.02304181959016,0.19414504402508,0.01187521145054
1219,609.7542272000001,0.07679792154384,0.0400116446041,-0.039095345705480004
1220,610.2542272000001,-0.17182404548240002,-0.19292331512576,0.0928025759948
1221,610.7542272000001,0.0086254108718,-0.07678570270115999,-0.01422093228464
1222,611.2542272000001,0.14858674896518,0.2405463336608,-0.05194794050464
1223,611.7542272000001,-0.12769517348236,-0.09713971806718,0.02370155304642
1224,612.2542272000001,0.03266904875412,-0.014892883106673997,-0.0018081599192600007
1225,612.7542272000001,0.01099556571628,-0.016090177643954002,0.0031520623377199997
1226,613.2542272000001,-0.0033475386517999983,0.010812309655800004,0.00518013334
1227,613.7542272000001,0.0095539252478,0.02581514441844,-0.00610864790178
1228,614.2542272000001,-0.02463006777698,-0.00450818235928,-0.00684168560294
1229,614.7542272000001,0.24534772965677998,0.3003622121708,-0.07149561458096
1230,615.2542272000001,-0.1038225785475,-0.1157833097516,0.0159069186794
1231,615.7542272000001,-0.10172120294963999,-0.0873170121228,0.02660926977744
1232,616.2542272000001,0.03555233000738,0.049712176161826,-0.00803898050256
1233,616.7542272000001,-0.016029091390019998,-0.0017470736633480005,-0.0012217295198400002
1234,617.2542272000001,-0.08486133445002,-0.10319949555977999,0.053023063259840006
1235,617.7542272000001,0.0222599120303,-0.0011850770247200017,0.004911352864079999
1236,618.2542272000001,0.024605634173,0.006340775915280001,-0.02575405909178
1237,618.7542272000001,-0.04214966961216,-0.046315768106894,0.06003579062758
1238,619.2542272000001,-0.002101375335520002,-0.1587148857849,-0.1126190310308
1239,619.7542272000001,0.10406692462574,-0.1700281028474,0.007599157089799996
1240,620.2542272000001,-0.030665411857959998,0.054159272578126,0.012168426336639998
1241,620.7542272000001,-0.0032986703132400004,0.049956521523126,-0.00684168560232
1242,621.2542272000001,0.04596146612884001,0.08875865256268,-0.02758665330632
1243,621.7542272000001,-0.016810998931779998,0.019071198512012,-0.01492953513722
1244,622.2542272000001,-0.024849979140760002,0.0037018405425919996,0.00427605346798
1245,622.7542272000001,0.1103466139411,-0.05784889497208,0.0370672748513
1246,623.2542272000001,-0.09292474961022,-0.002993237156674003,0.005717694178759999
1247,623.7542272000001,0.08750027094436,0.05816654392804,-0.03259574497944
1248,624.2542272000001,0.024165811105259997,0.0035796673888600005,0.0016615522275199998
1249,624.7542272000001,0.1091493188946,-0.2723113010824,0.05385383910566
1250,625.2542272000001,-0.16263664077754,0.199080831439786,-0.00686611961734
1251,625.7542272000001,-0.00491135211336,0.007318160097964,-0.0003420842183
1252,626.2542272000001,-0.053927142610340005,-0.10241758998230001,0.0004886917441799997
1253,626.7542272000001,-0.0315450562401,0.11463488501796,-0.009578359757739999
1254,627.2542272000001,-0.003078758561100001,0.041599890786186,-0.01590691897028
1255,627.7542272000001,-0.0302255893658,-0.018924590894994,-0.0073303773810999995
1256,628.2542272000001,0.0005375607667999992,-0.0007208204926539996,-0.0300301125308
1257,628.7542272000001,-0.0088697563749,-0.003750709736908,-0.01688430244762
1258,629.2542272000001,0.02291964635776,0.006267472523057999,-0.0012705987764000002
1259,629.7542272000001,-0.0250454560508,0.0005986473069060002,-0.015002838945299999
1260,630.2542272000001,-0.011484258137620001,-0.003604102096,-0.00398283831528
1261,630.7542272000001,-0.0018570289505599998,0.0010873392569600003,0.00381179614672
1262,631.2542272000001,-0.025167628732140002,-0.01618791682342,-0.00408057670822
1263,631.7542272000001,0.03899760722502,0.029455899373546,0.00430048806282
1264,632.2542272000001,-0.019303326550939998,-0.00120951292876,-0.01453858169214
1265,632.7542272000001,0.11085974160022,0.059608185738040005,-0.0307387160174
1266,633.2542272000001,0.136296149564,0.13002867623952,-0.0915075441804
1267,633.7542272000001,-0.08210022512486001,-0.11180047112106,-0.0016859869119999998
1268,634.2542272000001,-0.0744766340049,-0.026377141285973998,0.0129014642553
1269,634.7542272000001,-0.013756674323680001,-0.024984369516028,-0.00141720625368
1270,635.2542272000001,-0.011044435541040001,-0.007440332851934001,-0.0054977830655
1271,635.7542272000001,-0.00469144145936,0.0019669844996919998,-0.00948062130446
1272,636.2542272000001,-0.01207068790024,-0.005583304339768,-0.00197920185488
1273,636.7542272000001,-0.020427317885680002,-0.080548628986474,-0.04818501357584
1274,637.2542272000001,0.27251899551182,-0.385272414126,-0.0600113556544
1275,637.7542272000001,-0.31481527318086,0.2034057553673,0.149124309422
1276,638.2542272000001,-0.09986417520004,0.3304656296246,-0.05402488101386
1277,638.7542272000001,0.03367086592524,-0.05750681004623401,0.0094806221864
1278,639.2542272000001,-0.1172127329564,-0.077958563481588,0.0856676758589
1279,639.7542272000001,0.22645979365914,0.12433541761443999,-0.059058406147199996
1280,640.2542272000001,0.039852817776159996,0.07568614564284,-0.0038850997597599996
1281,640.7542272000001,-0.2581270209734,-0.200278126128594,-0.01954767282988
1282,641.2542272000001,-0.07706670066964,-0.09889900690954001,-0.01556483450804
1283,641.7542272000001,0.054660180352100005,0.10046282123692,-0.00244345916416
1284,642.2542272000001,0.1160154381354,0.11106743368869999,0.01617569978662
1285,642.7542272000001,0.38530906917442004,0.2163316518466,0.05575973691058
1286,643.2542272000001,-0.35808893471680003,-0.32811990362778,-0.02160017839914
1287,643.7542272000001,0.24148706431998002,0.2828914816266,-0.06475166711372
1288,644.2542272000001,-0.13297304454168,-0.20499400258232,0.031667229931600004
1289,644.7542272000001,-0.1186543734523,-0.07280286236898,0.04630354991298
1290,645.2542272000001,0.01253494533082,0.0145263641792,0.00767246162644
1291,645.7542272000001,0.06321228849844,0.0744644161201,0.00992044427382
1292,646.2542272000001,-0.09096998332598,-0.0809395838156,-0.00041538823407999957
1293,646.7542272000001,-0.01991419302118,-0.0209282279948,0.006304124553479999
1294,647.2542272000001,0.18115805868776,0.1704679265564,0.0035918849193000003
1295,647.7542272000001,-0.041685410793000005,-0.0595348809444,0.0015393791059200002
1296,648.2542272000001,0.008869755123759999,-0.018606942616599998,0.013267983423459999
1297,648.7542272000001,-0.03164279665322,0.012596031402525997,-0.00869871447312
1298,649.2542272000001,-0.00422718509042,-0.037959136766794,-0.00735481170858
1299,649.7542272000001,0.008429933979499999,0.03439168747332,0.002076939611839999
1300,650.2542272000001,-0.04114785184994,-0.005534433782480003,0.005351175806720001
1301,650.7542272000001,0.002663370357560001,0.0048502664580400015,-0.015540399738619998
1302,651.2542272000001,0.03684736313262,-0.06075661065158,-0.00496022222722
1303,651.7542272000001,-0.02770882605894,0.06974854154572001,0.036163194481819996
1304,652.2542272000001,0.037189449240299995,-0.0554787362481,-0.01080008997442
1305,652.7542272000001,0.007867938884039997,0.02520428074212,-0.00960279447448
1306,653.2542272000001,-0.0460103349754,-0.09867909581937999,-0.00899192961836
1307,653.7542272000001,-0.06912545804804,0.069015501513306,0.004373791797440001
1308,654.2542272000001,0.00620638628316,-0.0029932370799599984,0.0124127721141
1309,654.7542272000001,0.0173729945308,0.011985167416000002,-0.00368962323742
1310,655.2542272000001,0.022724170218620002,0.032950046736839995,0.00842993401048
1311,655.7542272000001,0.02438572191832,-0.028893904857314003,0.012852594735560002
1312,656.2542272000001,-0.0016859856577399967,0.11715164653142,0.01991419125452
1313,656.7542272000001,-0.02858847148424,-0.035833328323,0.00114842593398
1314,657.2542272000001,0.052290024907540006,-0.017873903544154,0.00608421305672
1315,657.7542272000001,-0.010506873146520004,0.05606516993624,-0.00408057706918
1316,658.2542272000001,0.012925898612,-0.06195390537784,0.042638361929700004
1317,658.7542272000001,0.012999201746279998,0.029113816497185998,-0.028857252256799998
1318,659.2542272000001,-0.068270248955,-0.06728064700816,-0.024605632758399998
1319,659.7542272000001,-0.011801908089480001,-0.09384104780788,-0.0013683371482399998
1320,660.2542272000001,0.00412944582776,0.011691949995939999,0.00232128622036
1321,660.7542272000001,0.005815432953359999,0.050054260346,0.00014660717079999975
1322,661.2542272000001,-0.05705477052862,-0.056969249437479996,-0.02015853787608
1323,661.7542272000001,0.04258949275663999,0.10078047032934,0.007745765251699999
1324,662.2542272000001,-0.002638936020820001,-0.02649931560628,-0.0029565859586
1325,662.7542272000001,-0.0208671405959,-0.04900357234740001,4.886930804000003e-05
1326,663.2542272000001,0.013023637298420002,-0.04538725501249999,0.00278554360652
1327,663.7542272000001,0.010140355004600001,0.151775465238806,0.0110933040474
1328,664.2542272000001,0.014807363502800003,-0.0077579819941799985,-0.007574723502180001
1329,664.7542272000001,-0.06941867277966,-0.014819580050819998,-0.012339468414380002
1330,665.2542272000001,-0.0362120643974,-0.011740821517654002,-0.0025900666466
1331,665.7542272000001,0.06521592456405999,0.10752441685566,-0.00386066540154
1332,666.2542272000001,0.0712757011522,0.137188009644,-0.04530173185858
1333,666.7542272000001,-0.1457034672778,-0.17845803745219999,-0.01026252824486
1334,667.2542272000001,-0.014147628450200001,-0.0415510221224,-0.00046425729498
1335,667.7542272000001,-0.03486816101434,-0.185617372567394,0.01786168617374
1336,668.2542272000001,-0.0187168966323,0.027232352233399995,0.00254119756808
1337,668.7542272000001,-0.0371894474589,-0.036199846404040004,0.013683371075540001
1338,669.2542272000001,0.030225589065219997,0.042381798363399996,-0.00608421321944
1339,669.7542272000001,0.051605856264519995,-0.11192264505014,-0.00280997798488
1340,670.2542272000001,0.49416517102,0.601665154842566,0.014025454818379999
1341,670.7542272000001,-0.2858358471274,-0.3249434139654,-0.003762927154220001
1342,671.2542272000001,-0.07279064617392,-0.035882196691614,0.023872595323540004
1343,671.7542272000001,-0.00801454571716,0.020439535713666,0.00259006666234
1344,672.2542272000001,0.11420727896803999,0.116833999171606,-0.05529547971336
1345,672.7542272000001,0.10289406271344001,0.1079153703898,-0.002370155004
1346,673.2542272000001,-0.1107375671179,-0.12194082671946,-0.0008796453541800001
1347,673.7542272000001,0.0292482052623,-0.15355918805833998,0.03880213075194
1348,674.2542272000001,-0.11579552762129999,0.01574809480502601,0.030054547012300002
1349,674.7542272000001,0.004471530250940001,-0.016236785573274,-0.00425161885118
1350,675.2542272000001,-0.01263268410752,-0.044458739164879996,0.010286962926399999
1351,675.7542272000001,-0.18626488845779998,0.033096654819566,0.01143538872676
1352,676.2542272000001,0.05905840632066,0.09520938480046,0.11914306777198
1353,676.7542272000001,0.006401863345400001,0.04453204245794,-0.0160290918727
1354,677.2542272000001,0.00552221767898,-0.023371686341602,-0.01126434662598
1355,677.7542272000001,-0.00674394717184,-0.00741589846664,-0.0046914414619399995
1356,678.2542272000001,0.0008552106166799999,-0.017971641886048,-0.0026878049624
1357,678.7542272000001,-0.01610239567578,-0.0009896009613740001,-0.012803725767539999
1358,679.2542272000001,-0.00593760546262,0.0191933711263,-0.0037140576655400005
1359,679.7542272000001,0.18765765839465998,0.218017639371606,-0.0781906921085
1360,680.2542272000001,0.025411974007799997,-0.01325576521546,-0.0527787170081
1361,680.7542272000001,-0.03648084503334,-0.033951864433328004,-0.00855210697032
1362,681.2542272000001,0.02397033421992,0.05191128856012,-0.01683543348906
1363,681.7542272000001,-0.048111710335659995,-0.05533213156004,0.02397033364206
1364,682.2542272000001,0.053365146805499995,0.055405434740426,-0.03694510225128
1365,682.7542272000001,0.06282133345152001,0.05144703139886,-0.01180190745052
1366,683.2542272000001,-0.1992396549562,-0.1849576383662,0.07169109107284
1367,683.7542272000001,0.014318670554939999,0.0015515964246859977,-0.01490510038974
1368,684.2542272000001,-0.02533867091534,-0.049858783744734,-0.007330377345859999
1369,684.7542272000001,-0.00828332634372,-0.025790711213888,-0.01123991193882
1370,685.2542272000001,0.027953172431139997,0.041819803242385996,-4.886887665999998e-05
1371,685.7542272000001,-0.0037629270671399994,-0.003433060025154,-0.0174218634411
1372,686.2542272000001,-0.00970053268532,-0.010494657006593999,0.0008552107492399999
1373,686.7542272000001,0.0014172064567000001,0.016920954518760002,0.0016615521788799997
1374,687.2542272000001,-0.0004398224923200001,0.015332705955191999,0.00119729499776
1375,687.7542272000001,-0.0135611979767,-0.015748094210428002,-0.00320093143704
1376,688.2542272000001,0.01182634227474,0.00470365866804,-0.0028588472210999997
1377,688.7542272000001,0.01128878114236,0.0024068071375039995,-0.00679281635914
1378,689.2542272000001,-0.0008063420212400008,-0.0021135913174400002,-0.0016126831226999999
1379,689.7542272000001,-0.0023701555239800005,-0.0027244563121739994,-0.00593760555126
1380,690.2542272000001,-0.00012217312452000016,-0.00917518857152,-0.00334753896318
1381,690.7542272000001,-0.00605977859758,-0.00140498901528,-0.00190589813738
1382,691.2542272000001,0.009602793973619999,-0.010787871488842,0.00195476727076
1383,691.7542272000001,0.0063041244148800005,0.015772528889532,0.0035918848907199995
1384,692.2542272000001,-0.01177747290102,-0.006902771978388,-0.0009529490488
1385,692.7542272000001,-0.01541822701294,-0.014819579683188002,0.022040001125119998
1386,693.2542272000001,-0.03525911511015999,0.002040288225745999,0.1785924276286
1387,693.7542272000001,-0.08574097935996,-0.0007208205008000007,0.031667230197400004
1388,694.2542272000001,-0.048233882939440004,0.10855067027366001,0.07755539284441999
1389,694.7542272000001,-0.19909304954648,0.08932064907298001,0.10753663588071999
1390,695.2542272000001,0.26333158907962,-0.08939395170219999,-0.0601579634696
1391,695.7542272000001,0.11762812233607998,-0.0422351909901,-0.0085521068382
1392,696.2542272000001,-0.1341459057052,0.012009602509840001,-0.01314580996434
1393,696.7542272000001,0.0049113518479599995,-0.001966984285187996,0.0023457210234600003
1394,697.2542272000001,-0.08642514992021999,0.016627738565239997,0.01343902496598
1395,697.7542272000001,0.011264349206220001,-0.01985310444152,0.03323104390514
1396,698.2542272000001,-0.02343277344914,0.01704312746876,-0.00733037753254
1397,698.7542272000001,0.006401862694600001,-0.0319970970198,-0.00510682962984
1398,699.2542272000001,0.03718944744958,0.046169160297146,0.00078190681972
1399,699.7542272000001,-0.0852278546008,-0.027378959454213998,0.01576031145224
1400,700.2542272000001,-0.0330111325168,0.021197007412912,-0.00701272747752
1401,700.7542272000001,0.0006352991933599996,-0.07211869625600001,-0.00747698509788
1402,701.2542272000001,0.019669846372020003,0.1273164382814,-0.023432772910219998
1403,701.7542272000001,-0.03704284055378,0.23455985860558,0.07604044761704
1404,702.2542272000001,0.04048811803752,0.0594860108864,0.18325943459059998
1405,702.7542272000001,-0.02553414794174,-0.03075093353938,0.01598022292754
1406,703.2542272000001,0.3526155842122,-0.06620552445870001,-0.1467297214701
1407,703.7542272000001,-0.37954250622540003,-0.19131063230239398,0.048282750287800005
1408,704.2542272000001,-0.04420217570478,0.05743350607760001,-0.0618683841062
1409,704.7542272000001,0.41453284396,-0.39748971317250004,-0.1996550442718
1410,705.2542272000001,-0.11806794576052,0.10774433043812,0.062112730368799995
1411,705.7542272000001,-0.0007574723524800002,0.05450135513238,-0.012999202635940002
1412,706.2542272000001,-0.010018182445499998,-0.012644900675379999,-0.0033719736847800004
1413,706.7542272000001,-0.0037629271040400003,-0.025790710653168004,-0.01458745098146
1414,707.2542272000001,-0.01309694088474,-0.009932661397242,0.00320093147906
1415,707.7542272000001,0.01128878107524,0.01396436875781,0.00598647480814
1416,708.2542272000001,-0.01177747297052,-0.01259603180052,-0.0022724169704
1417,708.7542272000001,-0.00434935724788,-0.006096430538496,-0.0021991132293399996
1418,709.2542272000001,0.023115123382260003,0.023151775374066,0.0007819069735599999
1419,709.7542272000001,-0.01400102083982,-0.010372484027996001,-0.00112399123158
1420,710.2542272000001,-0.0067683817748599995,-0.001649334959516,-0.00202807108184
1421,710.7542272000001,-0.00254119748964,-0.0013561198349200001,-0.0008307761001199999
1422,711.2542272000001,-0.00117286039286,0.000574212882366,-0.0005131264171
1423,711.7542272000001,-0.00254119747584,0.008100066796758,-0.00244345912478
1424,712.2542272000001,-0.0036896232747,-0.00238237262778,0.0013927717019
1425,712.7542272000001,-0.0010262528388,0.00015882478955399993,-0.00012217296518000003
1426,713.2542272000001,-0.00109955660536,-0.00035430162606000013,-0.00026878050994
1427,713.7542272000001,-0.00056199559248,-0.001111773911912,0.00036651886527999997
1428,714.2542272000001,-0.00161268303176,-0.0006475166994839999,-0.00063529937764
1429,714.7542272000001,0.0010018182382800001,-0.0018448116431779998,4.886917771999999e-05
1430,715.2542272000001,-0.016591087332259998,-0.034293948658562,0.00153937923244
1431,715.7542272000001,0.12730422004143999,-0.1421482342438,-0.055246611286640004
1432,716.2542272000001,0.11975393155732,0.30170611300142,-0.0493334409464
1433,716.7542272000001,-0.08339525948718,-0.19289887920276003,0.0024923280961600004
1434,717.2542272000001,-0.03271791921924,-0.030531021917799998,0.01949880371788
1435,717.7542272000001,0.09121432975598,0.0697485412256,-0.03604102204262
1436,718.2542272000001,-0.003127626610620002,-0.10146464030760001,0.0008552109409400002
1437,718.7542272000001,0.052852021061399995,-0.010592393367299995,-0.023017384799519997
1438,719.2542272000001,0.03858221960636,0.08555772036384,0.00068416860434
1439,719.7542272000001,-0.07249743201372,-0.015821397664000005,0.00842993443288
1440,720.2542272000001,-0.01817933503564,0.037959137315240005,0.00757472351686
1441,720.7542272000001,-0.03479485658556,-0.030995277089200003,-0.02394589944892
1442,721.2542272000001,0.03481929193972,0.06605891747704,-0.05998692146862
1443,721.7542272000001,0.02641379348848,0.016823216350046,-0.017666209612620002
1444,722.2542272000001,0.0115819967006,-0.028478515884934,-0.0005131263986000003
1445,722.7542272000001,-0.001392771349659999,0.02596175286782,0.0028832818029399998
1446,723.2542272000001,-0.04967552402462,-0.00548556595878,0.01976758406746
1447,723.7542272000001,-0.03244913697586,-0.00409279429578,0.01505170808848
1448,724.2542272000001,0.005986474918000001,0.02481332730498,-0.00420274966264
1449,724.7542272000001,-0.05947379492944,-0.03698175337006,0.0021258094718200004
1450,725.2542272000001,-0.01241277222924,-0.022858560376554,0.0025167627236200004
1451,725.7542272000001,0.02807534540708,0.04269944828252,-0.00041538801944000005
1452,726.2542272000001,-0.0553687841014,-0.106889118918468,0.017055344671920002
1453,726.7542272000001,0.01539379200118,0.0175073850533,0.00393396922594
1454,727.2542272000001,0.004544833939739999,0.01970649854136,-0.01055574323752
1455,727.7542272000001,0.01800829357902,0.0777142174071,0.0261205776846
1456,728.2542272000001,-0.00720820419296,-0.022931864050314,-0.00689055468174
1457,728.7542272000001,-0.021184790610280002,-0.06500822970636,-0.00930957926194
1458,729.2542272000001,0.0002443461787000001,-0.0109833486038,-0.00996931318152
1459,729.7542272000001,-0.00014660761554000014,0.00780685182764,-9.773836704000002e-05
1460,730.2542272000001,-0.00178372517,-0.002040288471788,-0.00014660754937999995
1461,730.7542272000001,0.00483804909712,0.009321796345158,0.0025900666927
1462,731.2542272000001,-0.00222354789768,0.003555232744246001,0.00102625282942
1463,731.7542272000001,0.0016126829807200003,0.005412261867597999,-0.0003176496853
1464,732.2542272000001,-0.00271223968292,-0.007880155701114,0.00667064338008
1465,732.7542272000001,0.0019303327004600002,0.0077824172093459995,-0.00122172958914
1466,733.2542272000001,0.01023809377776,0.015381575402232,-0.00432492260116
1467,733.7542272000001,0.02084270592512,0.005241219642865999,-0.0031520622713599998
1468,734.2542272000001,-0.00376292701498,0.00646294893666,-0.009382882926579999
1469,734.7542272000001,0.00779463467112,-0.0037751444792400004,-0.00806341514876
1470,735.2542272000001,-0.004398226780960001,0.0019425500946399997,0.00043982264634
1471,735.7542272000001,-0.00750141948212,-0.012180643726068,-0.00134390250544
1472,736.2542272000001,-0.00048869178216,-0.02290742919404,-0.00193033271464
1473,736.7542272000001,-0.00068416880076,0.00414166313534,-9.773836267999998e-05
1474,737.2542272000001,0.00869871450562,0.008246674312438,-0.00244345910658
1475,737.7542272000001,0.00061086476546,0.00719598732354,-0.0010995566286800002
1476,738.2542272000001,0.009334013662,0.0012339468362719997,0.0029810201704
1477,738.7542272000001,-0.0032742351645200004,0.0024801109217399996,-0.0030543239228200004
1478,739.2542272000001,-2.4434612180000008e-05,0.003115410204052,-0.00075747231264
1479,739.7542272000001,-0.00119729490686,-0.004850266444414,-0.00075747230788
1480,740.2542272000001,-0.00456926853668,-0.007562506069114,-0.00068416855062
1481,740.7542272000001,-0.00068416863864,-0.009517273353976001,-0.00151494466468
1482,741.2542272000001,0.00491135268966,-0.0034086255109219998,0.00097738365396
1483,741.7542272000001,-0.00102625280158,-0.011594213536768,7.330379218000008e-05
1484,742.2542272000001,0.00095294907426,0.002162461273078,0.0004886918399799999
1485,742.7542272000001,0.0006597338179,1.2217295566e-05,-0.00112399119392
1486,743.2542272000001,0.0005131264312000001,0.00328645245329,2.4434570279999944e-05
1487,743.7542272000001,-4.406000002343813e-11,0.002211330411092,-0.00043982265746
1488,744.2542272000001,-0.00019547669249999987,0.0076358097044,0.00161268302712
1489,744.7542272000001,-0.0118752112426,-0.029211553604219998,-0.0013439025148200001
1490,745.2542272000001,0.00273667419302,0.006047561281032,0.00090407988062
1491,745.7542272000001,-0.0033719735827,-0.008808670152390001,-0.0007574723405
1492,746.2542272000001,-0.00149051005496,-0.005900953909796,0.0018325943290800001
1493,746.7542272000001,-0.0016615522210600001,0.008246674483598,0.0017837251654199999
1494,747.2542272000001,-0.0039095345998,0.005510000694385999,-0.00180815974944
1495,747.7542272000001,0.00249232831358,0.012742639114737999,-0.0016859867958
1496,748.2542272000001,-0.0022479824161599996,0.008930843030769998,0.0012950333442199998
1497,748.7542272000001,0.0018325943587600001,0.010958914217231998,-0.00107512203276
1498,749.2542272000001,0.0026633703987199997,0.0010140354058179998,-0.0021991132269800003
1499,749.7542272000001,0.00307875854406,-0.0020402883209880004,-2.4434596019999943e-05
1500,750.2542272000001,0.003921751893212,-0.002492328438082,-0.00158824842188
1501,750.7542272000001,0.00051312640034,-0.015406009755748,-0.0018570289598
1502,751.2542272000001,0.00613308230376,0.0028710643423079996,-0.0011484257923599999
1503,751.7542272000001,0.009260710037019998,0.010543525865365999,0.0033475390398400003
1504,752.2542272000001,-0.00649960132568,-0.014941752542334,-0.00488691820254
1505,752.7542272000001,-0.0015149446674000003,-0.002284634396628,0.0015393792556799997
1506,753.2542272000001,0.00290771639214,0.015821397546166002,0.00474031070246
1507,753.7542272000001,-0.00359188491722,0.002504545584958,0.0024434591109
1508,754.2542272000001,-0.01106886981178,-0.007709113607436,0.006206386173300001
1509,754.7542272000001,-0.00161268299468,0.006218603386212,0.01055574348582
1510,755.2542272000001,-0.0011972951340000002,0.018924591146012,0.0409035058189
1511,755.7542272000001,-0.07779973870484,0.16514118506064002,0.25705190054759997
1512,756.2542272000001,-0.057885546312080004,0.0015271616238200004,0.16244116306999998
1513,756.7542272000001,0.0063285591195,0.077396567880086,0.182453091446
1514,757.2542272000001,0.01028696282492,0.1090882319906,0.180815974476
1515,757.7542272000001,-0.019743149643339997,0.060976522038559994,0.18220874458
1516,758.2542272000001,-0.00955392519216,0.0914464569854,0.179911894794
1517,758.7542272000001,0.043395832910220006,0.0848002488932,0.140450030872
1518,759.2542272000001,-0.0346482502271,0.03798357179834,0.126595616774
1519,759.7542272000001,-0.00860097605508,0.0716788726294,0.134536858942
1520,760.2542272000001,-0.0070615968903399995,0.05083616668324,0.10998009532599999
1521,760.7542272000001,-0.01280372566732,0.03913199776294,0.08776905104339999
1522,761.2542272000001,-0.009431752208360001,0.01560148645801,0.053927142990999995
1523,761.7542272000001,-0.010091486198040001,0.007782417252143999,0.0330844363928
1524,762.2542272000001,-0.009016364139860001,-0.002040288479588,0.02255312766822
1525,762.7542272000001,-0.1001573885582,0.019144502288018,0.08271109126640001
1526,763.2542272000001,-0.16930728314238,0.0443854352637,0.05382940391886
1527,763.7542272000001,0.0042516189421200005,-0.014746275877813998,-0.014636320205440001
1528,764.2542272000001,0.0033231042719599996,0.002211330669346,-0.0007819068968000001
1529,764.7542272000001,-0.0734015125026,-0.00810006731,-0.033719736072659996
1530,765.2542272000001,0.02191782834658,0.00858875851918,0.00219911317346
1531,765.7542272000001,0.00410501120618,-0.018264856782408,-0.0036163194831199995
1532,766.2542272000001,-0.00097738365868,-0.012131774532556,0.00119729497456
1533,766.7542272000001,0.0008552106774400001,-0.003652971518102,0.00171042138246
1534,767.2542272000001,-0.0002443459094999999,-0.001111773951724,-0.0006841685576799999
1535,767.7542272000001,-0.0011728603905,-0.00389731731499,-0.00100181824534
1536,768.2542272000001,-7.330377584000003e-05,0.0005009090933660001,-0.00041538805469999994
1537,768.7542272000001,0.0018325942567799997,-0.024886631147968,-0.0104335704215
1538,769.2542272000001,0.06844128994016,-0.05618734261478,0.0134145905628
1539,769.7542272000001,0.0361876296489,0.025839580366286002,0.00351858118492
1540,770.2542272000001,0.011093304608900002,-0.02933372691058,-0.037067274699500004
1541,770.7542272000001,-0.0340373850994,-0.038985389905153996,-0.0017592904258199999
1542,771.2542272000001,0.0005375606747999993,-0.007709113534514001,0.0009285144389799999
1543,771.7542272000001,-0.00261450118156,0.0279898241422,0.020549491011280004
1544,772.2542272000001,-0.005497784020040003,-0.067476124472234,-0.014001020793320001
1545,772.7542272000001,-0.00899192956962,-0.04206414738558,-0.01734855984388
1546,773.2542272000001,-0.007061596381799999,0.028356343131320003,0.020793836965679997
1547,773.7542272000001,0.012461640909039999,0.035149159552,-0.01536935773368
1548,774.2542272000001,0.011557561763720001,0.0049724400896,0.0003176496968800001
1549,774.7542272000001,0.03704283986726,0.0009162972247659993,0.010604612731079998
1550,775.2542272000001,-0.0492112667658,-0.0015760324162939982,0.0010995566912799994
1551,775.7542272000001,-0.0085765413939,0.014844014528940002,0.01131321576542
1552,776.2542272000001,0.006914989383740002,0.0003298667449399997,-0.00948062120676
1553,776.7542272000001,-0.02130696352852,-0.026181663919694,0.0010262528433799998
1554,777.2542272000001,0.030543239056939998,0.04668228662894,0.00217467871016
1555,777.7542272000001,-0.016908737034220002,-0.0725829545582,-0.00857654093278
1556,778.2542272000001,-0.00464257216584,-0.0031398443656999986,0.00762359251032
1557,778.7542272000001,-0.029785766310079998,-0.05098277420567399,-0.0068172508431
1558,779.2542272000001,0.06570461507424001,0.16142712831699998,0.011337650254759999
