Time_interval,Time,Acceleration_x,Acceleration_y,Acceleration_z
0,0.26332820208888885,0.08464171075355555,0.04930344157897778,0.1255217870115778
1,0.748294289,0.040601913333600005,0.31549928904984,-0.35345537187294
2,1.24872802542,0.16033970593559999,0.56779874920104,-0.302415018052
3,1.7557088988,-0.16049717064088886,0.12413023841222223,-0.07165011296688888
4,2.248294289,0.07774094060552,0.431050460339,-0.131423492417
5,2.748294289,-0.13942378399358002,0.5927438247202,0.12231252669947999
6,3.248294289,-0.03973087787645999,0.5020670700064,0.019959630945619998
7,3.748294289,-0.997552312627,0.638068144286,0.025975761410082013
8,4.2482942889999995,-0.6706979036280001,0.3221191143956,0.0883207702668
9,4.7482942889999995,-0.5280148342702,-0.043949239244599994,0.02857814788554
10,5.248294289,-0.28256309509028,-0.35979423286699996,0.028052997598799978
11,5.748294289,-0.12999662816062,-0.433622400768,0.1186704063421
12,6.248294289,-0.09835530459728,-0.2546769762034,0.095483970641516
13,6.748294289,0.4066769659542,-0.24371253728496,0.010118217472120002
14,7.248294289,0.0986598375442,0.0464475822407,0.041647987360359996
15,7.748294289,0.0851421961126,-0.13415039300852,-0.0487027740474
16,8.248294289,0.38257590413686005,0.113571374416371,-0.0684331989083
17,8.748294289,0.15339006066011998,0.08207531451474001,0.015846939090799997
18,9.248294289,0.06184740782504,-0.10210530996112001,0.017744865424800006
19,9.748294289,0.004879826602439999,-0.05795434475136,0.031134147635418
20,10.248294289999999,0.040082853589859996,-0.04249314307856,0.0019503784145620002
21,10.748294289999999,0.0052826933565800005,0.00017842053747999965,-0.040886077890099994
22,11.248294289999999,-0.0582504285922,-0.023612363336016,0.07926044465186
23,11.748294289999999,0.0641623711572,-0.16671199321418,0.0550646781924
24,12.248294289999999,0.05154129386068,-0.2847747659702,0.11167554855276819
25,12.748294289999999,0.0060167804329,-0.1897434818764,0.006074562082000001
26,13.248294289999999,0.02814153269018,-0.3747800636214,0.021720485688279997
27,13.731098045454546,0.1156164038629091,-0.2612488391736364,0.10625004769368183
28,14.2482942308,0.0007191468771199989,-0.18310339688884,-0.009143199921900002
29,14.74829421,0.1291141115072,-0.33261635422650004,0.09038049697169999
30,15.24829421,0.021107823999340004,-0.07759721219118,-0.0027724647550000027
31,15.74829421,0.036521401401436,-0.24703062296160003,0.029384517675400006
32,16.248294209999997,0.035766864411800006,0.19196919618004,-0.0340210914638
33,16.748294209999997,-0.059522959314,1.3013690435518002,-0.2592984390076
34,17.248294209999997,0.048556385189419994,0.95923067808,-0.3084558391124
35,17.748294209999997,-0.017992791463380002,0.826694033128,-0.12235927582734
36,18.248294209999997,0.0013688587122199997,0.421519155496,-0.10850975036196
37,18.748294209999997,-0.00604234669332,0.17791687250500002,-0.04273048401013
38,19.248294209999997,1.0041110219999871e-05,0.0769965934754,-0.019589328763679997
39,19.748294209999997,0.0026257492977679996,0.03504880905106,-0.0015167427108200003
40,20.248294209999997,0.0008976043017819999,0.01203901767706,-0.0035422706600000005
41,20.748294209999997,-0.0033099822512490003,0.0094908618928638,-0.007982158656013599
42,21.248294209999997,0.004745462611080001,0.002753033637372,0.0031272506699440007
43,21.748294209999997,-0.001120721772864,0.0013387989998619998,-0.00127983092994
44,22.248294209999997,-0.00148206453736,0.0006795239449100002,-0.0013933181770159992
45,22.748294209999997,0.0029831602800179996,-0.0006756043439379997,-0.00460926055904
46,23.248294209999997,0.003562669753698,0.0016977214809760003,0.00943653106692
47,23.748294209999997,-0.0044021712241599995,-0.002460057735764,-0.014437980649008
48,24.248294209999997,0.004119534194099999,0.0063924384117319995,0.006551094055756001
49,24.748294209999997,-0.0020816328378939998,0.0005219483370599996,-0.00450540542602
50,25.248294209999997,0.0015688395501199997,-0.004154751301072,0.004707241054679998
51,25.748294209999997,-0.0007065927883,0.0021470499034779997,0.00026287079161999987
52,26.248294209999997,0.0007093456951000001,0.0025377869605799994,-0.006803932190067399
53,26.748294209999997,-0.0008290116459959994,0.00299513339958,0.01022092819012
54,27.248294209999997,0.00980084478602,-0.004826767445160001,-0.008720378873200003
55,27.748294209999997,-0.01201544150378,0.0022298216818800003,0.038530197145356
56,28.248294209999997,0.14509113092928,0.14322187426840002,0.04750855446361999
57,28.748294209999997,-0.1028377415096,-0.22712158680484001,-0.33292011259669996
58,29.248294209999997,-0.033341670593480005,0.00456013679086,-0.16098825455104
59,29.748294209999997,0.028760106305839996,-0.016274757383399997,-0.059830493945
60,30.248294209999997,0.002613454353054,-0.021417489054759997,-0.1178938674942
61,30.748294209999997,0.034480688869940004,-0.003212285041384,-0.00459413527478
62,31.248294209999997,0.012617628570900001,-0.00261486530429,-0.0213058471728
63,31.748294209999997,0.002338807595261999,0.0016867208449399995,-0.06027605056786
64,32.24829421,-0.004469644308700002,-0.0072280883781799974,0.07868759156312
65,32.74829421,-0.014241892848099999,-0.017548418045939998,-0.0961161422438
66,33.24829421,0.04957887172868,0.1211332797979,0.013957920070300008
67,33.74829421,0.01849773884047999,0.5464327716782,-0.27113557813628597
68,34.24829421,0.0884782138482,0.735116181356,-0.25698273656
69,34.74829421,-0.13564631268958,0.677029666886,-0.20807470323214003
70,35.24829421,-0.004133397038399997,0.5051272058496,-0.1898987198104
71,35.74829421,-0.056985216136199994,0.4205608654036,-0.0792972850822
72,36.24829421,-0.0273004818068,0.4188167190536,-0.25668587683526
73,36.74829421,-0.026192363504199997,0.012805786126780001,0.021584501267140007
74,37.24829421,-0.0760971331606,-0.388457303047,0.07217779158819998
75,37.74829421,-0.08289777353010001,-0.5051874733,0.116103191384
76,38.24829421,0.0332964815203,-0.3547087573926,0.172858409844
77,38.74829421,-0.031780167432339995,-0.1139853000674,-0.0585922050362
78,39.24829421,0.036798091824,0.34871771335939994,-0.20177894590348
79,39.74829421,-0.10103265172680001,0.24080982208071203,-0.0785468482774
80,40.24829421,-0.04296164989546,0.04852306365468,-0.006736078211399996
81,40.74829421,-0.06559764222204,0.23239741802456,-0.09654122350896
82,41.248294210000005,-0.06482993282419999,0.506286430356,-0.19885044098017057
83,41.748294210000005,-0.136029810422358,0.09669935226977999,-0.09578678130306
84,42.248294210000005,0.0438517796299994,0.07713647366,-0.0209068012388
85,42.748294210000005,-0.04141491517602,-0.254122991553,0.10113933563191999
86,43.248294210000005,-0.006843740265100001,-0.2785493612262,0.168827819829
87,43.748294210000005,-0.0985301206578,0.09209986686658,-0.017474823002520002
88,44.248294210000005,0.03341244261377999,0.1599261760649,-0.031808204657768
89,44.748294210000005,-0.17681493152394,0.2805928039502,-0.054962062817160005
90,45.248294210000005,0.12134982843402,0.1959772014535,-0.1246912765442
91,45.748294210000005,0.01591808691436,0.0959379529954,-0.0340023517464
92,46.248294210000005,0.22067931383654,-0.3066145133964,0.0325466537471
93,46.748294210000005,0.151531860530704,-0.28730332851499996,0.02740383148606
94,47.248294210000005,0.008798750042588,0.11854715346919999,-0.0016616630565999984
95,47.748294210000005,0.0816426691351,0.06563673019538001,-0.027222881320360003
96,48.248294210000005,-0.10779981463684,0.12137645244487,-0.05326219558128
97,48.748294210000005,0.04285542637028,-0.1063410615916,0.055971317295502
98,49.248294210000005,-0.04366037487428,-0.19139560222680999,0.05532360077279999
99,49.748294210000005,-0.04643614470388,0.06614582061893999,-0.003910007477000004
100,50.248294210000005,0.017119448188694,-0.11010345935829999,-0.01337236405404
101,50.748294210000005,0.16072004527112,0.096658887867746,0.043284950268239995
102,51.248294210000005,-0.16338521331846,-0.008530769346020001,-0.11544126510244
103,51.742371430625006,0.0463532830265625,-0.15910208225000624,0.03525338570345833
104,52.260140237021275,0.08146068437489361,0.00775885074931915,0.035939845632765956
105,52.75329421000001,0.1566866694376,-0.1947338771769,-0.0006927490240000039
106,53.25329421000001,-0.20184226765354002,-0.11458496093920001,0.0982687568662
107,53.75329421000001,0.11481329753754001,-0.10342310428390199,0.04479816434536001
108,54.25329421000001,0.0620859052214,-0.06837467670772,0.007552871705499995
109,54.75329421000001,-0.07166114732476,-0.01370826959304,-0.0137963867158
110,55.25329421000001,-0.0043243339657400015,-0.02306144237471,0.09005607607279999
111,55.75329421000001,0.10305954009156,-0.0171524596232,0.025924835205799995
112,56.25329421000001,0.008339149807079999,-0.12166747570030001,0.017072505932599995
113,56.75329421000001,0.04469305436895,-0.45145409583199997,0.1619545364378
114,57.25329421000001,-0.17245626654144,-0.24986372471456,0.03872598647906
115,57.75329421000001,0.07719900667686,-0.13101966381214,-0.05323713302394
116,58.25329421000001,-0.10434791039340001,-0.024431531428980004,0.19518638610956
117,58.75329421000001,0.09533094928148261,-0.0913209295318,0.029365291590999997
118,59.25329421000001,-0.023042233060658,-0.055436552759618,-0.1060491371186
119,59.75329421000001,0.021778682770339997,-0.10216758250775801,-0.0246615409778
120,60.25329421000001,-0.12751722246522001,-0.0902846074128,0.05070640563770001
121,60.75329421000001,0.1912423371524,-0.28135979653,0.130867633806
122,61.24509692,-0.11397995225416667,-0.15774064510727084,-0.02780626221666666
123,61.7565088706383,0.05186815765597872,0.12984949984359576,-0.26319453058659575
124,62.25329421000001,-0.09221260486403998,0.55957892655872,0.020216846464
125,62.75329421000001,0.01496700287,0.4050837039968,-0.09085559845300001
126,63.25329421000001,-0.01044586241188,0.02126629590936,-0.05511798857996
127,63.75329421000001,0.04075501203824,0.217132718557,-0.0230863571144
128,64.25329421,-0.008504168988799996,0.13303851127952,0.08622825619932
129,64.75329421,0.084866760076,0.21961243629654,-0.1972501564004
130,65.25329421,0.20460765898422,0.3300257062862,-0.0987027359168
131,65.75329421,0.27703653932446004,0.1174724888698,0.11313978195244001
132,66.25329421,0.3185251516074,0.00021515369421999997,-0.23121471402388
133,66.75329421,0.26515482213396263,0.07417312144924,-0.01840547562026
134,67.25329421,0.21707330122664,-0.03806529283346,-0.10579959867979999
135,67.75329421,0.26211515244282,0.002892801765199997,0.024272613533399996
136,68.25329421,-0.2907765203826,-0.0906239128092,0.058363075253399996
137,68.75329421,0.061628276112642,-0.307438075548,0.2219492530816
138,69.25329421,0.06807468890921001,-0.2749753677836,0.0439963150022
139,69.75329421,0.06367139220559599,-0.13924129247348,0.11445518494076
140,70.25329421,0.012299061412619999,-0.11211094856447999,-0.08800439834916
141,70.75329421,0.1142563819809,-0.1380759465666,0.0102024269096
142,71.25329421,-0.06076729297813999,-0.06560956358759701,0.01495126724376
143,71.75329421,-0.09928892254640001,-0.11474235296444,0.038891983034599995
144,72.25329421,0.31393372298620004,-0.08944668531834,0.0248229408221
145,72.75329421,-0.017198139455340013,0.034396826030088,0.04026107788419999
146,73.25329421,-0.63862065852688,0.172291615005818,-0.127669277196196
147,73.75329421,-0.3744827757914,0.11920454623484,0.0644568824572
148,74.2532941568,-0.55909264193,0.09213214397742,-0.1312811660546
149,74.75329414,-0.1863705468298,-0.069088919154,0.54454156873654
150,75.25329414,-1.23950720544832,-0.004310636574400002,-0.4151373100256
151,75.75329414,-0.5221953415968,-0.0333044886944,-0.1563902854404
152,76.25329414,0.1129773783796,-0.1872649264654,-0.051738700884000004
153,76.75329414,-0.5280859857747999,-0.4434465664424,0.43964242935778
154,77.25329414,-0.4003603196178,-0.24224489211630001,-0.008898048416999996
155,77.75329414,-0.057871417402684006,-0.208328795435,-0.021135997775999994
156,78.25329414,-0.24634368538856802,-0.1561568248302,0.055851154342
157,78.75329414,-0.15888063132948,-0.155528765915558,0.07118106843005999
158,79.25329414,-0.08146975100152,-0.10337589740467999,0.05615978240942001
159,79.75329414,-0.045451028344036006,-0.039119229315434,-0.027909431461939995
160,80.25329414,-0.047614376546048,-0.0020262336722599995,0.0004271125790800023
161,80.75329414,-0.0035582911963800033,-0.02124681234526,-0.0828800010786
162,81.25329414,-0.0018161697675600009,-0.004993877409845999,0.21475162504659998
163,81.75329414,-0.056024584512680005,0.0033194231974999987,-0.021983089447199997
164,82.25329414,0.03913405488898,-0.0025302648509399994,-0.0630506706142
165,82.75329414,0.013012878934780004,-0.024972195624916003,0.11581443786370599
166,83.25329414,-0.106917192338296,0.03412165879852,-0.09292423248979999
167,83.75329414,0.08258329749406,-0.027243869304140002,0.04063020707168
168,84.25329414,-0.12054522961134,0.017543199058000003,0.014827651981799998
169,84.75329414,0.09082111835486,-0.23596067905360002,0.1034047126816
170,85.25329414,0.0274010209792,-0.29372161030744,0.24912937163906002
171,85.75329414,-0.011796349884399997,-0.33853485106158,-0.04359470368799998
172,86.25329414,0.12164193085352,-0.32552947996377396,-0.055744056697000006
173,86.75329414,-0.012790806893399998,-0.18401088714821998,0.033652381908079995
174,87.25329414,-0.06499508649,-0.14122005939904,-0.009294509881999997
175,87.75329414,0.031288390157146,-0.04861819744288,-0.010841751101359997
176,88.25329414,-0.003346303996279999,-0.09824461936743999,0.030290889741479997
177,88.75329414,0.021570660895400003,-0.11545010328178,0.0280729484554
178,89.25329414,0.0043454574408800005,-0.10437530279282001,0.01789730071866
179,89.75329414,0.037450203897188,-0.06251981973342,0.037058582296360006
180,90.25329414,0.03608340859524,-0.0390184974599,-0.021949539191440003
181,90.75329414,-0.021546427315260002,0.08298625946626,0.0028161621183999917
182,91.25329414,-0.0701970757514,0.09633466720362,-0.042461280823099995
183,91.75329414,-0.025424215943495997,0.08044505596386,0.0034037399256439983
184,92.25329414,0.018890096030199997,-0.01758591413476,0.02298229217392
185,92.75329414,-0.004430581184638,-0.07563358544872,-0.0263141250607
186,93.25329414,-0.02262183626788,-0.0337889194488,-0.03732482910524
187,93.75329414,0.08968017347168,-0.022353487013439997,0.12085323332604
188,94.25329414,0.014207237917640003,-0.08941358089794998,0.004684371964199999
189,94.75329414,0.04444989626864,-0.11714592456262601,0.17730972286827998
190,95.25329414,-0.08709447234899999,-0.009519543647294,-0.23341294292114
191,95.75329414,-0.01892794706032,0.369091613258392,-0.15549423216876002
192,96.25329414,-0.04723685093474,1.025742874142,-0.27186685561994
193,96.75329414,0.0018401849227480008,0.5841294693888,-0.1703142929274
194,97.25329414,-0.009519810081116,0.40613710881000004,-0.1434881973254
195,97.75329414,0.04515009064694,0.22322779417062003,0.0473482513398
196,98.25329414,-0.0239286652224,0.1229110384002,-0.11874946594814001
197,98.75329414,0.0020484688876699995,0.06293181180862,-0.01985477447178
198,99.25329414,-0.00370783895204,0.02812554359434,-0.01927387237432
199,99.75329414,0.00036863923103399974,0.010623764992394001,0.00030527114985999927
200,100.2532941,-0.02333976149683,0.035723268989278,-0.006046485891010001
201,100.7532941,0.1144377386532,-0.080847358702,0.12452762602568
202,101.2532941,-0.11280372023808001,0.010459685325,-0.1731253814696
203,101.7532941,0.001460458040834,0.00620352745072,0.033718643188200004
204,102.2532941,-0.0020405596501440002,0.002887315749942,-0.012593402862294
205,102.7532941,0.00698303103456,0.0035304689407800005,0.012895584107839999
206,103.2532941,0.003012105822154,-0.003364610671786,-0.00160337448233
207,103.7532941,0.0016534247244200018,0.00791773557574,0.0028326988209639993
208,104.2532941,-0.08681478648501999,0.009900521044179997,-0.201505804052048
209,104.7532941,0.1376569914762,-0.1257260274947,0.13733917234891999
210,105.2532941,0.01378480315792,-0.010807936193586,0.0343494033806
211,105.7532941,0.011044705211399998,-0.0101537919015,-0.007257499693879998
212,106.2532941,0.0020125472569600023,-0.007755923271234001,-0.0094662857022
213,106.7532941,0.004263427257720001,0.005914529562920001,-0.00702337264786
214,107.2532941,0.005901223724964,-0.008389291764,-0.019404888151288997
215,107.7532941,-0.00014617741076000028,0.006152904037400002,0.023529987328999996
216,108.2532941,0.0035219818387059996,-0.00428218960548,-0.02018249511874
217,108.7532941,-0.00669343769122,-0.005065450669839999,0.024964542386599998
218,109.2532941,0.007486563918839999,-0.0003427982355199999,-0.00284759521242
219,109.7532941,-0.015579502581339999,-0.0029350030427679995,0.0012367820794820007
220,110.2532941,0.00340915322376,-0.004335842133118599,0.0006837463354000018
221,110.7532941,-0.01886486530304,0.17273558855338,-0.018188991546424005
222,111.2532941,-0.0251017057916,0.438591241831,-0.056989135739399996
223,111.7532941,-0.024875237047200002,0.3183442807202,-0.040975627895600004
224,112.2532941,0.015802992284780003,-0.099945325852,0.006482505799980001
225,112.7532941,0.022137600781836,-0.32858051062,0.04416399002008
226,113.2532941,-0.004752501548060001,0.0013618683835200007,0.01811235428056
227,113.7532941,-0.01783050447696,0.3645768713962,-0.05863939285708
228,114.2532941,-0.01325235336902,0.0738019824028,-0.011088562018619998
229,114.7532941,-0.020982729197004998,0.24053676843942,-0.01748111724336
230,115.2532941,-0.0014613106816600018,0.109830474852624,-0.018858356476539998
231,115.7532941,0.01211737274742,-0.15246297598156,0.016601810450200004
232,116.2532941,0.0086165478796,-0.08798690796372,0.026650924684020003
233,116.7532941,0.02254759669456,0.13373669147826,-0.058332252501179994
234,117.2532941,-0.03003218516516,0.004961636068519999,0.020150852201599997
235,117.7532941,0.0290473915639,-0.273004128934,0.03232717513924
236,118.2532941,-0.01577974714132,0.011615834234000002,-0.028350696566019996
237,118.7532941,0.01708675056344,0.16570720195746,0.026291637429800008
238,119.2532941,-0.0127709391712,0.0092537355422,-0.014614734666399998
239,119.7532941,0.03819855868974,-0.22495878220199997,0.018724155426059996
240,120.2532941,-0.01520324647482,0.0903739452406,0.020606861110080005
241,120.7532941,-0.006818678382519999,0.040256123544398,-0.03920406341126001
242,121.2532941,0.03248432688346,-0.0126760292065,0.0029480743397600003
243,121.7532941,-0.021031342153590003,-0.18603228569252,0.04421342849672
244,122.2532941,-0.02641813695158,-0.1671476387994,-0.03128082275488
245,122.7532941,0.085797390341294,-0.314786403174,0.1568025970458
246,123.2532941,0.01593592718004,-0.23769088983,0.0576734352114
247,123.7532941,-0.007682901320506,-0.09146827220748,-0.07992929458504
248,124.2532941,0.028887110052000002,-0.0506100511554,0.07397109984842
249,124.7532941,0.026443254051044,-0.03246465444306,-0.01160175323572
250,125.2532941,-0.028449579478400003,0.004158978460780001,-0.12370573044007999
251,125.7532941,-0.03193360448036,0.008806638717679999,-0.008913898465300002
252,126.2532941,0.050580966475259996,0.01847303628668,-0.00045948028910000274
253,126.7532941,-0.0247705639944,0.1325301098774,-0.06725349426319
254,127.2532941,0.0028864134787599995,0.1199990272486,0.0571529006984
255,127.7532941,-0.013314801457860001,0.043879280095119995,-0.07082069396748
256,128.2532941,0.0169982829674,-0.09582575320867999,-0.024962863917022002
257,128.7532941,-0.06695763647177999,-0.1301469111438,0.059152145385499996
258,129.2532941,0.1402548736306,-0.07419555902724,-0.0061166954015600015
259,129.7532941,-0.06562717497154,-0.011434838773880001,0.007494316100000002
260,130.2532941,0.03619089066638,-0.018996489050154,-0.03282535552518
261,130.7532941,-0.029445116673819997,0.0029139423373,0.011757202152
262,131.2532941,0.026243230250339998,-0.012842702865131998,0.009490566250027999
263,131.7532941,-0.028612443654859997,0.00030089140362,0.01873897551844
264,132.2532941,0.010287728759014,0.009205205439775,0.033396663671660005
265,132.7532941,0.011564156114280402,0.0024358415617199997,0.016832637781400005
266,133.2532941,0.013852158786940003,-0.01258021593012,-0.068766040808
267,133.7532941,-0.024350363613740003,0.0077454233153200006,0.002371635439419997
268,134.253294618,0.06898230716676,-0.02618272542984,-0.03279134749844
269,134.7532948,-0.1041454346514,0.029092280862277997,0.023238029466214005
270,135.2532948,-0.010872838045520002,-0.0025854015354304007,-0.0007107543912639991
271,135.7532948,0.08354537427327897,-0.0027632594133399995,0.027537879942
272,136.2532948,-0.054419547916199996,-0.14756868362512,0.0011439323422000015
273,136.7532948,0.09339210033716,-0.1545833158502,0.06984380721438
274,137.2532948,-0.016617041822258,-0.14524614572732,0.0240738105808
275,137.7532948,0.036975952386119997,-0.0714945912334,-0.02848838806964
276,138.2532948,-0.1481883150332,0.10683630942619998,-0.053715248114400004
277,138.7532948,0.0319038915643,0.4103793358791,-0.05779243472268001
278,139.2532948,-0.08509343624626,0.2686419773088,-0.0284331130982
279,139.7532948,0.06425435856548,0.09146391153378,-0.08711124420194
280,140.2532948,-0.0539308677686,-0.08897239922986,0.11833007812615
281,140.7532948,-0.0413835609692,-0.13838476181136,-0.049169788349599994
282,141.2532948,0.1161945918156,-0.2523243093442,0.034921836849600006
283,141.7532948,-0.054701590830519994,-0.0836614870972938,0.06947372436886
284,142.2532948,0.022404942810524,-0.065333034992624,0.025811424251900004
285,142.7532948,0.008037286999366,0.08339950323348001,-0.06396036147976
286,143.2532948,-0.0028022670740000004,0.05707180261834,0.03421298981106
287,143.7532948,-0.02349429160394,0.12173620461948,-0.026198081969240002
288,144.2532948,0.04141071558,0.04096343278878,-0.030263118741800002
289,144.7532948,-0.04636703669738,0.01918836116718,0.008746986392274001
290,145.2532948,0.0007242092540400008,-0.16221723079514,0.06815950393232001
291,145.7532948,0.0144732952152,-0.20060434341560002,-0.02287687301422
292,146.2532948,0.02656919598316,0.14588552474786,-0.012973556515579996
293,146.7532948,-0.018876210453626,0.0002814269034799999,0.014666976928200001
294,147.2532948,0.01745972365136,-0.09537554740614,0.02203107833412
295,147.7532948,-0.030114116668539997,-0.04556431531736,0.004810314178859999
296,148.2532948,0.000682832001860001,-0.00347430229114,0.0007131958053600013
297,148.74662138510638,0.022367625160976595,-0.12331646807349789,0.03099500371965957
298,149.2634943531915,0.019805649491723403,-0.03253958326502127,-0.00040352598234042684
299,149.7532948,0.0113709014642,0.09553412675984,-0.025612983709240002
300,150.2532948,-0.0029411011914200003,0.0959403657949,-0.0206311607368
301,150.7532948,0.03299008859014001,-0.04478578209302,0.055609588608400005
302,151.2532948,-0.0381810879694,0.09404562473328001,-0.2858934402494
303,151.7532948,-0.0121646809583,0.09338601589364,-0.082424926757584
304,152.2532948,-0.03345535755934,0.17028581143038,-0.116834163668446
305,152.75584220731707,0.0002201882865853644,0.04773224853712927,-0.019279724220536584
306,153.24747363913045,0.022929968396369568,-0.03053115762226087,0.08580605880152174
307,153.75043504347826,0.0009494721905652169,-0.007003763447919565,0.0023594109889999992
308,154.2533965521739,-0.0029737055272173922,-0.004946081529217389,0.00988512453521739
309,154.7508912177778,-0.0013213766948666664,-0.00027881728380000015,-0.009359211391537779
310,155.2483860173913,-0.004801980826302174,0.007257005443021739,-0.002740403877173913
311,155.75134790652174,0.0026981804694086956,8.936032089565243e-05,-0.0016757508984304348
312,156.24884292666667,0.0007188558572799998,0.001396931542851111,0.0007336722484911102
313,156.73738157045454,-0.003564183008481818,0.0009403608065386363,0.02295843037459091
314,157.24918504782607,0.011885591822717393,-0.011688216875,0.0944295551397826
315,157.75214897826086,-0.0007745874661956478,0.02013748625008478,-0.018625052077304347
316,158.24964602444444,0.04192069634902222,-0.06872592767391111,0.052565648848599995
317,158.74714323695653,-0.03448805860630435,0.00046043292578260817,-0.013836404550586958
318,159.2501076347826,0.012997466586173912,-0.014314781065478262,-0.03413814047791304
319,159.75307221086956,0.024670840280106524,-0.009912946948582609,0.015646955240152173
320,160.25056997333334,0.007360388172919999,-0.0019366211361066664,0.00737069447912
321,160.74806791086957,-0.0027335726652260865,-0.004106713376206521,-0.007217469414130435
322,161.25103306521737,0.00833039601095652,-0.0012139133778695653,-0.0002459443152173924
323,161.7485314288889,0.00455612606496946,-0.0031973256002580004,0.005670950149755555
324,162.24603000869564,0.0032233401488123915,0.0037845684131891304,-0.0027471417973499988
325,162.7489958152174,-0.004133115644178261,-0.004532363104378044,-9.849797208695592e-05
326,163.25196185000001,0.004073575787506521,0.0005452218264565214,0.00045880026499999914
327,163.74946106666667,0.00100077456874,0.0013777573907822226,-0.004315630594733333
328,164.24696051956522,0.0010082695798326088,-0.0009479056234586953,0.008148856784326088
329,164.7499272173913,-0.0009941186590691306,0.0006016441019565219,-0.0020575938064347826
330,165.25289415652173,0.0026851918390673915,0.002982569777789131,-0.0005581897285000012
331,165.75039427555555,-0.0007886383264666667,-0.0016713195375297554,-0.004922188651299998
332,166.2478946347826,0.0020427535412173917,0.0041172867234521736,-0.0028446860978478265
333,166.75086225434782,0.0037898900713026085,-0.0008895915489782608,0.003292394718826086
334,167.2538301173913,0.0016687551270508695,0.0008787383208704348,-0.0005703387044565213
335,167.75133115333333,0.0020023624102666663,0.0003048155040748887,0.0018568250856355563
336,168.24883240869565,-0.0004681497804565211,-0.006833351179891305,0.0016118961821956562
337,168.75180094130434,-0.007774292124908696,0.009489214938565218,0.00291279087652174
338,169.24930260222223,-0.0013441059291111122,0.005241425831671111,-0.01443625556068889
339,169.74680450652176,0.006116636422739129,0.0006726099105869556,0.013245002075217395
340,170.24977367608696,0.0048532913551956516,0.0005765997852391298,-0.002553525177630433
341,170.75274305434783,0.0031416720674217386,0.0007279126548260867,-0.002176575040154348
342,171.2502455977778,0.00992049575011111,0.00020840962691111097,-0.02024544610911111
343,171.74774834565216,0.006192745721849999,-0.0031744604529565217,0.014351326491804348
344,172.25071840869566,0.0014345224798695652,-0.0011225938792608697,0.0002231805218978248
345,172.75368867608697,0.018241746265852173,-0.00799487466373261,0.04799612708586739
346,173.25119205333334,0.057037785320999984,0.12954987419560002,0.045486927047999996
347,173.7486956369565,-0.1369595880704348,-0.17418748919393479,-0.10327300820630435
348,174.25166650434784,0.044593503050847826,0.08827428195876087,-0.016577834669347823
349,174.74917047333332,0.0068088422516888875,0.0451388465064,-0.02276634639888888
350,175.24667462608696,0.08031197216283478,0.003518125281606522,0.04303962251391304
351,175.74964603913043,-0.04328081010373913,0.02714299119091304,0.09178387597413043
352,176.25261764782607,0.037483409688260874,0.0030966323321304345,-0.11306886050195653
353,176.75012234888888,0.06102679371835556,0.005601967700177779,0.040717686551777786
354,177.24762720434782,0.009585554505130434,-0.0015432834692173923,0.007987996809304346
355,177.75059931304347,-0.007773354332999998,0.014466643332810869,-0.019864248189913048
356,178.25357159565215,0.04514089874645652,-0.03776702155282609,-0.0185632913104348
357,178.7510769511111,0.014969753886733335,0.0005860116743711118,0.06720852321355555
358,179.24858247608697,0.019452643133565217,-0.0035183533379804345,0.007926588473956522
359,179.75155526086957,0.005103594582847826,-0.004537701606997825,0.0041503906235
360,180.24906107111113,0.010886359883266666,0.0010426627267511091,-0.002330123054622226
361,180.74656700217392,-0.01775149300258696,0.03529277055195652,-0.04124830080560869
362,181.2495401630435,0.02933697750645652,-0.05298921854975652,0.03345199253295652
363,181.75251307173912,0.0042822381994565215,-0.030420640240869566,0.01071583705652174
364,182.25001912,-0.001992048160062223,0.024580828348593334,-0.013687366907399998
365,182.74752551956522,-0.0024198673102847827,0.006582441537319565,-0.00016019655352173974
366,183.25049915217392,0.007027833660356522,0.0068547725679565215,-0.006916585178563041
367,183.75347291521737,0.0434184772935,-0.038103404251502174,0.09486244036028262
368,184.25097970666667,-0.03398773007573334,0.032706308370064,-0.0774779213768
369,184.74848663043477,-0.015255118846169109,0.12192234267426738,-0.06309861721869782
370,185.25146080000002,-0.007300188037630434,0.45491895468043475,-0.19603362290565218
371,185.74896799111113,-0.007457419235733334,0.28577149708933336,-0.12043147616880001
372,186.2464753,0.000152831816717393,0.2159872573352174,-0.08095227117434782
373,186.74944986086956,-0.021239538884565222,0.057864080299826086,0.009503136511693478
374,187.25242452826086,0.01839578022347826,-0.007150764051369563,-0.011950866031521734
375,187.74993218000003,0.024155068068755555,-0.15126165813733333,0.06035891638728889
376,188.24743996521738,0.0037505756260217404,-0.06306505721373913,0.01708708638751739
377,188.75041495652175,-0.0026735413200652176,0.03445256274743478,-0.017010460735913044
378,189.25339003260868,0.032437715032173915,-0.03474707707323913,-0.012428262956304349
379,189.75089810222224,0.006188660114111111,-0.1823206318812,0.043874126010244444
380,190.24840625,0.0014938239999347821,-0.2944493034569565,0.1218862326223913
381,190.75138161086954,-0.06650202997445652,0.038244677627371736,0.038026415783260874
382,191.24888991555554,0.04058821002644445,0.07815977203111112,-0.0009972254378666642
383,191.74639827826087,0.02043157864497826,-0.10529884565826088,0.017823986386260867
384,192.24937381739127,0.025492651141571745,-0.20989691692456522,0.11592935478991305
385,192.7523494,-0.022444087845117387,-0.18267401405039566,0.05138365082550001
386,193.24985790888888,0.01161867959593111,-0.16963567204557778,-0.0316889762908
387,193.74736643695653,0.12723772113376522,-0.12821420379499998,0.14908826868717392
388,194.25034212173915,-0.06608993592282608,-0.09157145542173914,-0.09130665530152174
389,194.7533178217391,-0.05740585793430435,-0.049771573233500004,0.15196589802195654
390,195.2508263888889,0.14349654349133334,-0.04202340443228889,0.12388099033666666
391,195.74833496304345,0.016469061359456527,-0.11267288874434782,-0.13563691015869564
392,196.25131065000002,0.0305117180876087,-0.07935809570978261,-0.050115958492739136
393,196.75297604666667,-0.09528388777755555,-0.03520507812826667,0.011596594911266665
394,197.25490544545454,0.12946247513022727,-0.017057765608909092,0.04300507632545454
395,197.74930337173916,-0.0584220523352174,-0.04743634616934782,0.023816253833913045
396,198.25227899130437,0.04445185933369565,-0.02524157193391303,0.10077718031565218
397,198.7497874466667,0.05151099893253334,-0.01916789478815556,-0.17422981260495554
398,199.24729585217392,-0.01625894787782609,0.021050458368086954,0.07019738527913043
399,199.75027134565215,0.08192194412980436,0.014671937275499997,0.026144411264347828
400,200.25324682608695,-0.059065872552391305,-0.03972684300869565,0.04858097822934782
401,200.7507551933333,0.12628469780808887,-0.02424170176266667,-0.05269741479371112
402,201.24826355652175,-0.0409177256711087,0.007994952412065217,0.07089706088982607
403,201.75123905217393,0.008130952186095065,-0.03649943289543478,0.024453018032826082
404,202.24874742,0.066867384318,-0.002112944920888887,0.03431976105711112
405,202.7462557869565,0.02724284192193478,-0.022601060258913036,0.07127374151563043
406,203.24923127608693,0.003647187477826088,0.15157151222586956,-0.08366886429565218
407,203.7522067673913,0.026884542861739132,0.17294093836956523,-0.16548349545563043
408,204.24971511777778,-0.028589738739666668,-0.131735012266,0.0072365442877777774
409,204.74722347391304,-0.005256256979167392,-0.1432898873852174,0.08867120742669565
410,205.25019895652176,0.00988213929069565,-0.06951824997391305,0.01776599883652175
411,205.75317442391304,0.042681810975282605,-0.10995289035563044,0.023208224253826085
412,206.25068276222223,0.005949749380888888,-0.16710867882193334,0.05593944125822223
413,206.74819109782607,0.03893179592243478,-0.22699263303165218,0.20538840085302174
414,207.25116655869564,0.007868645956130437,-0.20613447479521738,-0.020369819978913052
415,207.74867488222222,-0.09614825315511111,0.04727265569728889,-0.012640476227333336
416,208.24618320434783,-0.033943251421304346,0.09150591622895653,-0.0006709720590869579
417,208.7491586630435,-0.007549010536304347,-0.06347081972347826,0.07745265959369566
418,209.25213412826088,0.006797418645804347,-0.3244513843321739,0.15597281249347827
419,209.74964247777777,0.007890196640933333,-0.22137001355644442,0.19518218570175555
420,210.24061380454543,-0.008345227347522728,-0.1231700778014091,0.011925545602636367
421,210.75231319130435,0.01943803092684348,-0.049843969552913044,0.03601235928532608
422,211.24982158666668,-0.010541503297466667,0.042514027490777775,-0.018480534025911113
423,211.74732997826086,-0.016649179487400002,0.3030088932630435,-0.13370460012610869
424,212.25030551086954,-0.01330645511754348,0.42671428555652174,-0.19471790480195653
425,212.75328104565216,-0.007648600831830435,0.27885348901065216,-0.13152195059584781
426,213.2507894511111,-0.005886007679777778,0.12028064197733332,-0.0714449776476889
427,213.74829787608695,-0.01610982158821739,0.05336163873354348,0.021139269285913042
428,214.2512734347826,-0.011281826374195655,0.012147240017143044,-0.0260089584008913
429,214.74878189777777,0.020451749035799997,0.009349780610133333,-0.09144797852128889
430,215.24629035652174,0.046702128556086964,0.02312865982982826,0.006805679069021744
431,215.74926598260868,0.0361590859176087,0.02632066477875,-0.0586225468176087
432,216.25224165,-0.021610503934497826,0.01633322238945,0.03051117191476087
433,216.7497502377778,0.03869971966002222,-0.005758142473000002,-0.040082221570577774
434,217.24725888043477,0.06875632152652174,-0.04824877822197391,0.02181428407497826
435,217.75023470869564,-0.060751287832173914,0.018936634067326086,-0.1851750353062609
436,218.25321058695653,0.04850680541173914,-0.008742187336086957,0.016107414088478263
437,218.75071938888888,0.06180011100266666,-0.028468916149284443,-0.04981615277866666
438,219.2482282630435,0.0200004240688613,-0.0009864465055434784,-0.06462617541947827
439,219.75120432173912,0.012473606547386957,-0.014783926635130434,0.07524944390173914
440,220.24871328444445,-0.021749724280244444,-0.007032712296288891,-0.06247805489148889
441,220.7462223173913,-0.14127176542760872,0.047289330023608696,0.04010046049717392
442,221.24919852173915,0.1661259622681087,-0.02024459319754348,-0.057545744853086944
443,221.75217478913044,0.026505738336304346,0.018334357634347823,0.009661809257304347
444,222.24968398,-0.012215506363931556,0.014443291558133333,-0.013368935048333334
445,222.74719323260868,0.009216057222260871,0.0036617465610521748,-0.03240698316758695
446,223.25016971521737,-0.004178196520578258,0.0050610666706739135,0.04344959883147826
447,223.75314624565218,0.026888569410456524,0.002401745839326086,-0.050256345582347824
448,224.25065571333334,-6.970034697777754e-05,0.0036267598472711116,0.03577660454904444
449,224.7481652195652,0.01585099265045653,0.0014431476599273906,-0.026648459218695655
450,225.2511419304348,0.046239440857391303,-0.016991148824123916,-0.01986663235891305
451,225.7486515688889,-0.013680314023777779,0.009046098917844445,0.05547406938904444
452,226.24616129347828,-0.004575718928565218,-0.01927273169997826,-0.08345904558999999
453,226.74913822173912,0.005193018905434776,-0.01390315138754348,0.01469862978419566
454,227.2521152217391,0.08814185954847827,-0.017935607744108694,-0.1343816259678261
455,227.74962513111112,-0.025642087051903333,-0.0236327277234,-0.1007546318949111
456,228.2471350978261,0.013848961198934783,-0.002183551374108697,0.033780108321826104
457,228.75011223043478,0.05480346052630435,-0.03576788695491739,0.04482502524934783
458,229.25308938478258,0.025812122069347822,-0.008364646335847823,-0.14256468026569563
459,229.75059939111114,-0.13838877412924447,0.03144345813317778,-0.11849757301037778
460,230.24810940652173,0.2106076121102174,-0.05449006868543478,0.099939968275
461,230.75108656956522,0.09738379692669566,-0.01329001136273913,-0.05997425576793478
462,231.2485965777778,-0.01919673971417778,-0.025816737280737776,0.06049603357031111
463,231.74610658478264,0.04012148341130435,-0.0035040171308913033,-0.02441713087086958
464,232.2490837326087,-0.0017525723809347852,0.0144692089283913,0.027674478034256524
465,232.75206087173913,-0.01108153512475652,0.19448098928965218,-0.1595128826452174
466,233.24957085333335,-0.04652232652113111,0.43050376044444444,-0.2819847212886667
467,233.74708082391305,-0.01548453218123261,0.359074312701087,-0.16601014137036957
468,234.25005793260868,0.023845348744217395,0.15251753641152174,-0.14541195785602173
469,234.7530350021739,-0.12013290919928261,0.1085509113631087,-0.06759287999826089
470,235.2505449488889,-0.018209378914511107,0.07544735802075556,0.02036301295191111
471,235.7480548543478,-0.006875262957608695,0.049728383188804355,-0.03316527864565217
472,236.25103188913042,-0.013633408621304348,-0.03967753700413044,0.05477486485104348
473,236.74854175777776,0.022709119460444446,-0.3020515441950222,0.10566694470466667
474,237.24605162608694,0.01281099019932978,-0.19282740095573914,0.05602958926913044
475,237.74902861739133,0.09290144723304349,0.12617516517652175,-0.10233256091847827
476,238.25200558913042,-0.07624442195391304,-0.12861646776418914,0.09834878341434782
477,238.7495154088889,0.11075836494644445,-0.4872478061244444,0.2198903401781556
478,239.24702519565218,0.10887623690665219,-0.33515067722347824,0.1791133569828261
479,239.75000210000002,0.08356607300956523,-0.22149399052873914,0.2424118726171739
480,240.25297896956522,0.020385272112369564,-0.2018308224936478,0.06723557347847826
481,240.75048868666667,0.030699871646000004,-0.1882556809288889,0.16768716176266668
482,241.24799837173913,0.11629979944280434,-0.12072504085026303,-0.07115399319418522
483,241.75097508695652,-0.13705245859310872,0.18933075406778913,0.01799309772256522
484,242.25395181304347,0.018007775040934784,-0.01652674053126087,-0.012635490173652173
485,242.7514614088889,0.009150403408444446,0.034525648749755555,0.0993150075264
486,243.2490197108696,-0.022693435783304346,-0.00850183030608261,-0.08174482635934784
487,243.75115732954546,0.03253008086788636,-0.24416232109545455,0.13429896398079547
488,244.2483637652174,0.008102663189130437,-0.22874783433293477,0.12772117490058696
489,244.75134040217392,0.029631983323543477,-0.16087687015319566,0.15669783302130433
490,245.24884988444444,0.022564202548420002,-0.07833500968173333,0.03517014185402667
491,245.74635935,0.006315021394565213,0.07122081259069565,-0.022458750259217387
492,246.2493359347826,-0.06557763044282608,-0.0022412953147826088,0.01720638896823913
493,246.75231250869567,0.044941099117086956,-0.14029458813176088,0.05450026886234783
494,247.24982194444445,-0.05848879714466667,-0.05070957607477778,0.061454561025622224
495,247.74733137608695,0.035558694083260865,-0.028132728909080435,0.012558356576521738
496,248.25030795434782,-0.027623079395369565,0.008538774820652172,-0.0011057646372173884
497,248.75328454347823,0.04586744731280435,-0.052923808919869565,-0.009317190749999999
498,249.25079405777777,-0.061239823370363114,0.015480973985422222,-0.03379760317957778
499,249.74830369347828,0.08869910337208696,-0.006096767345826087,0.06033207022678261
500,250.25128057391302,-0.07373613896369566,0.022410879964489133,-0.09015904301784783
501,250.74879044444444,0.04581434148857777,0.00931807094336,0.022159311517622206
502,251.24630042608695,0.02210486615843478,-0.017996508143423913,-0.01963895299447826
503,251.74927765434785,0.04544983269881522,-0.011581467545378265,0.06958092813956522
504,252.25225502608697,0.12437871551391305,-0.04000508264382609,-0.15275038844097824
505,252.74976538222222,-0.13301992813493332,0.03851082060397778,-0.05308316548982222
506,253.24727590869566,0.12687986959382608,-0.03567917450101739,-0.01656775889232609
507,253.75025374347825,-0.1472449024090652,0.047994395964478256,-0.07619581015934783
508,254.25323178913044,0.15315434207239717,-0.02167545194302174,0.09301570187586956
509,254.75074292444447,0.14561578036711112,-0.040995952823844446,0.05678911209077778
510,255.24825430869564,0.021455757641521737,-0.010057936546147827,0.04404396596343478
511,255.75123314565218,0.6986883567426088,-0.03833807033447609,0.06372285925617391
512,256.24874509777777,-0.1256169809295111,0.02710874345013555,-0.0019040849522222237
513,256.74625733695655,0.29281963532180433,-0.046353552645110874,0.05656476642876087
514,257.2492370130435,0.15721277714695653,-0.07071001633682608,0.06185176061245652
515,257.75221697391305,0.07777397366910217,-0.04888504484472174,0.03419494628680435
516,258.2497300311111,0.07495591325895044,-0.04392082956502,-0.10492288800942223
517,258.7472433391304,-0.10147600474526088,-0.0177077987935,-0.013613908185434787
518,259.24953608,0.12064102325144445,-0.013568486110328888,0.061786164177999994
519,259.7564853911111,-0.06071231133268888,-0.007837380307333776,0.005977736579288886
520,260.2485322755556,0.012046357008888882,0.010509056513822222,-0.019747628103999552
521,260.7460465913044,-0.14643601489936955,-0.023806271347391304,0.004852108336304349
522,261.24902839565215,-0.16668700783436305,-0.00871461889123913,-0.020192934117304346
523,261.75201051739134,-0.2619489794223913,0.1862142552511087,-0.12047483610130434
524,262.2495257688889,-0.008425954976288886,0.13568827311638224,-0.05292419857522222
525,262.7470413826087,-0.07797462913956521,-0.06721023891278262,0.010678809625217393
526,263.25002453913044,0.003737896031586957,-0.06659395798408696,0.011240938434934778
527,263.7530080652174,0.03068608304647826,-0.027796071507130433,0.016514633012391308
528,264.24739594545457,-0.02973992242153409,-0.002385318278963636,0.022939486936363638
529,264.7513219711111,0.009012319646266666,-0.07674436569517333,0.027479235331155556
530,265.24883919782604,0.03883338686842826,-0.05302438528252826,0.03829754953926087
531,265.7518239195652,-0.06654442133602174,0.0002045424096326082,-0.007118867791739131
532,266.24934166,0.050374588702088885,-0.009654516642288889,-0.006092495390755559
533,266.7468596543478,-0.03688505615563043,-0.00036588440539130475,-0.003860204115413039
534,267.2498451065217,0.07639204386615217,-0.004222025041152174,0.0007683505234630427
535,267.7528307847826,-0.048920667041086954,-0.00015837213221086944,0.014311624606978261
536,268.2503494044444,0.02155885828406667,0.0007282680935866663,-0.004381306961266665
537,268.7478682304348,0.001779241407195653,0.0022532680753043475,0.01593115019252174
538,269.2508544913043,-0.020000024331891308,-0.00040309843906521735,-0.03213859640865217
539,269.75384090434784,0.025765514244021084,0.0024918317766956534,0.014097877170630433
540,270.25136024444447,-0.017699006529800002,0.00019190046435555564,-0.02761319478166667
541,270.74887976086956,0.03715097127251522,0.017432072888630436,0.009106242135826085
542,271.25186665,-0.014194017518456522,-0.18556572561803258,0.04630459910265
543,271.7493864377778,0.12079446846073334,-0.22489201757444444,0.1842815611084667
544,272.2469063282609,-0.060607797420869566,-0.041530324055000005,-0.08006290767543478
545,272.74989361086955,-0.17311154566434783,0.3236188733047174,0.002019737074963045
546,273.25288098695654,0.17362455958247827,-0.05996832900215218,-0.11989844363226086
547,273.7504012088889,-0.013598120876822219,0.10477065510226667,-0.05305553012088889
548,274.24792150869564,0.01937598540369565,0.011737476228847825,-0.012725218492152171
549,274.75090913043476,0.06186460386480435,0.07856671965458695,0.08670827616652174
550,275.2538968347826,0.1306957001595435,-0.02542193298578261,0.05321944278328261
551,275.7514173422222,0.02176376580548889,0.01137845781631111,-0.015021896365333336
552,276.2489379108696,0.023614917109565217,0.014057123147543477,0.04045053149652174
553,276.75192579782606,0.09966572731080435,-0.018006506174152174,-0.010658201966804344
554,277.24944646222224,0.07800219456564444,0.04551088545377778,-0.018331930375111112
555,277.74696716521737,-0.02947332742495652,0.08131836808226087,-0.08136409262980435
556,278.2499551826087,-0.08015700008695652,0.25124270500878043,-0.04394263806565217
557,278.75294324565215,-0.07724001031945651,0.031207955399956525,-0.054361737293043486
558,279.2504641044444,-0.04750989244677778,-0.16562440130951112,0.08305867512866667
559,279.7480058978261,-0.06753658892938479,-0.11421946856884782,0.054919823357891306
560,280.24925756888894,0.0003738850378888893,-0.032418017918133334,0.03800262874884444
561,280.7539615282609,0.09287342672260869,-0.023613053826108697,-0.06415232368243479
562,281.25148258,0.14516351198866667,-0.05888120333668222,0.09196429782022222
563,281.7490036630435,-0.07631499741452175,0.025030550747413043,-0.030158291693652178
564,282.25199206956523,-0.049886839552091305,0.0008455152067391317,0.004232904185434781
565,282.7495132866667,0.11480330427742223,-0.004458639360688889,-0.006558566623244443
566,283.24703458913046,-0.05641953452484783,-0.07850587367858695,0.03520853623206522
567,283.7500232304348,0.016678249061521738,-0.2519261370526087,0.14367941151891306
568,284.25301194347827,-0.016941060188891303,-0.15193640149458695,-0.005529984182717397
569,284.75053348,0.015064526928244443,-0.1561292595316258,0.07433556450975555
570,285.24805510652175,0.06531022488923696,-0.07434533471198043,-0.0057902958046304335
571,285.75104409347824,-0.08218922692217391,-0.11406766850019566,0.08200259830604348
572,286.2485659088889,0.05301074319626666,-0.09355681737433333,0.01396573384131111
573,286.7460878173913,-0.0021632780171021745,-0.01551182373797826,-0.016936613166641305
574,287.24907709130434,0.018236215345391302,0.008560061454586956,-0.0055286366010652175
575,287.7520664826087,0.00357431950833913,-0.13064051710391303,0.10272585827641305
576,288.2495886911111,0.008528486888000003,-0.030390914279999997,-0.09375760820333334
577,288.74711101086956,-0.04038627510421739,-0.29446388069130436,0.22613788687108696
578,289.25010073695654,-0.0038521694788695633,-0.2845345981747826,0.13710353685456522
579,289.7530905565217,-0.0065132952793478215,-0.23242495889782608,-0.14737986480391305
580,290.25061323333335,0.1415383911802222,-0.0496844000307,0.15459459091844444
581,290.74813601739135,-0.014247825124347826,0.5171908217913044,-0.10706016291519566
582,291.2511261826087,0.013428812884462172,0.45409966292260867,-0.15025592887156522
583,291.74885068444445,-0.04347353900255556,0.31373155911444445,-0.08818957010939334
584,292.24954871333335,0.0068219448967333325,0.10835885472088888,-0.0367121590486
585,292.7535365673913,0.004704673247380217,0.05861210304704348,-0.0028155575643456546
586,293.25105984444446,-0.01291645318428889,0.029660065969823776,-0.052543025548355556
587,293.7502588217391,0.010505000534913043,0.0010237486474782612,0.09234370356542392
588,294.2506406466667,-0.012816698022533332,-0.016106314130577778,-0.028786193002600005
589,294.7446125311111,-0.014763542681947557,0.03940118154233333,-0.10865528318748667
590,295.24821706666665,0.012793970108255554,0.006568845113593333,0.036981391906353335
591,295.74977489130436,0.007739974750565216,-0.004948253216956522,0.029605056931282615
592,296.25276788913044,0.006367800999304347,-0.053940192512410876,-0.057538198385652176
593,296.75029370666664,-0.004490094055215556,0.06980678770191112,-0.14241748385926667
594,297.2478195456522,-0.003995394902478261,0.03128148680934783,-0.07675099374608696
595,297.7508127217391,-0.09893711628173914,-0.10159322232652175,0.14507932247173913
596,298.25380605000004,0.1484136166738913,-0.03546309730130435,0.134877412221
597,298.7513321355556,0.0468839459926,-0.02592662175588889,0.027377043829666665
598,299.24885834565214,0.02869953020752826,-0.011800786722891305,0.015360811479347826
599,299.75185200652174,0.010293680687743478,-0.004611652830332608,0.0045359030993695655
600,300.2493785177778,0.005420978865177777,-0.0024340841502377775,0.0019491619522444446
601,300.74690522173915,0.002132861510115217,-0.0017391806057608697,0.003922752709782608
602,301.24989947608697,0.006571515748123913,0.003077854280684783,6.976334930434699e-05
603,301.7528944695652,0.0027472480482956525,-0.006729068963354348,-0.0047945561625
604,302.25042192,-0.0012561135821000003,-0.00038437313494000045,0.004070027667866667
605,302.74794969782613,0.004067190315691522,0.001707056294326087,-0.0022064291920434785
606,303.25094515217387,-0.0009484602057030438,0.0012283428859260872,-0.0010128643202391304
607,303.75394094347826,0.0036131506381086955,-0.0020653113063608705,0.0011358468422173903
608,304.25146975555555,0.0010282304539355556,0.001204442976311111,0.00034946865218666673
609,304.7489989434783,0.007968503495913043,-0.0026823800540804344,-0.007906664971041305
610,305.251995873913,-0.0015541651969782609,0.0016062881639347828,-0.0031722939496739125
611,305.7495258133333,0.0031167719083999993,-2.4647182645777686e-05,0.0038842519094399995
612,306.2470561608696,0.005822142828656522,-0.0020448746885434782,-7.133898467391386e-05
613,306.7500542565217,-0.0037617191029130437,1.5611233234783002e-05,0.005353243454293478
614,307.25305277173914,0.0014056459712347834,0.007397511727023912,-0.007999150650456522
615,307.75058430666667,0.1872224383874,-0.07895437346162222,0.05120178857879999
616,308.2481161478261,-0.36023924145917396,0.30783414841782825,0.028680003178913047
617,308.7511157413044,-0.014009272910595645,-0.3272236792919565,-0.6187486337586957
618,309.24864833333334,-0.011710870266888886,0.10834473503445778,-0.010528977715111113
619,309.74618132608697,0.046931422280652176,0.08640781693086956,0.13104822324326088
620,310.2491821630435,-0.11092492549152175,-0.08182927318308696,-0.27976028812326087
621,310.75218321086953,-0.07246669997369565,0.04940615529541304,0.048813363775217396
622,311.24971725555554,-0.023556566238844445,0.025485769907444444,-0.0027583228211111093
623,311.74725164565217,-0.08213440750236957,5.5396036021739766e-05,0.032946089040565216
624,312.25025375,0.07796960808956523,-0.006654511327499998,-0.23564536675297826
625,312.75325615652173,0.042321259073056526,0.0711769435703913,-0.006879236370217402
626,313.25079142888893,0.0779966615995111,0.023344431983135332,-0.026859347030066663
627,313.7483269891304,-0.08936142285572392,0.017271389130913046,-0.1541489829180435
628,314.25133020869566,0.05292900296058696,0.5016585329282609,-0.17705643695336085
629,314.7488662466667,-0.15327826736866668,0.5793141418071112,-0.48437615497795555
630,315.2429513511111,-0.07371824449784443,0.4524564849002222,-0.022654385040000002
631,315.74835555777776,-0.08005347781902222,0.42280653848000005,-0.1590116288922889
632,316.2502235695652,0.1357891689171087,0.22500396811302173,0.2378595808471739
633,316.7532280456522,-0.3137647315258696,-0.17254614830065218,-0.5387348817719565
634,317.25076594666666,-0.15063403977977777,0.12966240776804444,-0.22662744521822223
635,317.74830497608696,-0.06662017365861739,0.06014081706134782,-0.1306294772928261
636,318.2513127978261,0.013558605442402174,-0.1596962368976087,0.009694161624043476
637,318.74885445555554,0.017583176824257776,-0.06557838651593244,-0.03231502109222222
638,319.2463973,-0.017499133288826085,0.09777575990525436,-0.05734940197176087
639,319.74940883478257,0.014943376832499999,-0.16492691247508695,0.11566599555385651
640,320.2524215239131,0.10035726557802174,-0.35775779641304345,0.12264541957387826
641,320.74996775555553,0.010844580332644444,-0.3714328342,0.22299319372844445
642,321.2475149869565,0.10260821943193478,-0.25544393580913044,0.03277011539556304
643,321.7505307391304,0.2736142433213478,-0.5084322328243478,-0.03802415600902173
644,322.253547426087,0.12613214876167608,0.09246138644869568,0.48339109833999994
645,322.7510974622222,0.30143506262222225,-0.4022511005377778,0.24882833692533335
646,323.24864858695656,0.10755268646530804,-0.3034232181084783,0.16977136031804346
647,323.7516686217391,0.053847289602000005,-0.16353085248447827,0.0034105052116086957
648,324.24922253555553,-0.08616942035202223,-0.0020919746771755547,0.03684747484366667
649,324.74677792391304,-0.11057565782089131,0.29663932324186953,-0.06464417084336956
650,325.2498024043478,0.033093815266282606,0.25173613817596086,-0.10140309129176088
651,325.75282828043476,-0.053229956523434784,0.20157930643782607,-0.035456968387195656
652,326.2503877577778,0.009053238240111111,0.09650956789384445,-0.020108668006755554
653,326.7479484695652,0.05452811071260869,0.05966926140608695,-0.02812970203891304
654,327.250978,0.25760327603847827,-0.015252263639782609,0.009233298492173914
655,327.7485409222222,0.04438541465588889,0.06720780267133333,0.004348161485777777
656,328.24610487391305,0.02877442603378261,0.07904124260517391,-0.07792139053837825
657,328.7491375413043,-0.09077807223458696,0.18552202246108696,-0.01093137783869565
658,329.2521711434783,0.002071091665695656,0.16281890869684784,-0.10543325673358696
659,329.7497378622222,-0.009971525932644444,-0.03564971817866666,-0.05860006543906667
660,330.2473054,-0.024591237306521737,-0.1425790527606087,0.006383294642630438
661,330.75034152608697,0.06859801904132609,0.086482820299,0.006111580400456521
662,331.2533784,-0.043294374061391305,0.2614501662856522,-0.09571210198130435
663,331.7509482,0.0020639340089133335,0.10655749109437777,-0.08566604190304444
664,332.24851865652175,0.040198686331093476,-0.16222541746826086,-0.0017498472465869563
665,332.75155759347825,-0.0031612126714130433,-0.21578628601869565,0.10040905164222391
666,333.2491293244445,0.04501885838217778,-0.12523217730911113,0.04454491933187334
667,333.7467016304348,0.004169456337012174,-0.007779707079739131,0.020653475885326088
668,334.2497423391304,0.0069584483707673915,0.07560100245063044,-0.027374537095695654
669,334.75278357391306,-0.012947427190043478,0.14348852116586958,-0.01939611849154348
670,335.25035748,0.014728705088977776,-0.04795307582880889,0.0201726065772
671,335.74246400888893,0.08011638390542222,-0.04665117264273333,0.20644624498156222
672,336.2545645933333,-0.4811026642744444,-0.21767461034644447,-0.45257115893677774
673,336.7485496466667,-0.12494738993399998,-0.31387702625111114,-0.4672378169338911
674,337.24612409782605,0.1673213528154348,-0.10985902598695653,0.3287492731554348
675,337.74916499347825,-0.10353549343065217,-0.007671076319130431,-0.0954457055192413
676,338.2522043239131,-0.03709719038391304,0.04749165410556522,0.019524377322021738
677,338.74977430666667,-0.016689778698911115,-0.006746980880333334,-0.035340574056444446
678,339.2473428456522,-0.06004951376232608,-0.05403967525658695,0.07386103920180434
679,339.7503778369565,0.13696824013723913,0.05125203340419565,-0.0832951898126087
680,340.2534116,-0.14060815237760868,-0.16403388459154347,0.08515279188923477
681,340.75097647111113,-0.06926959851744445,-0.24124938116726666,0.007856284248755556
682,341.2485403152174,-0.007695980044682607,-0.03669070160995652,0.04628200116434783
683,341.7553209088889,-0.0024722854290222212,0.05971815321124444,-0.05589906904387622
684,342.252034544186,0.1022972811095535,0.12427444236265117,-0.0636952533233721
685,342.7487283,0.017423673165173913,0.17557099590658695,-0.06506803760615217
686,343.24762965681816,-0.00533707135068182,0.2168691808534091,-0.1304463798345682
687,343.75258945869564,0.007713523908608695,0.10560196378697827,-0.12515958496326088
688,344.25014849999997,0.09109540939555555,0.03479814529208888,0.08247561984377778
689,344.7477069326087,0.05928074284819565,0.06174488689986957,-0.019073589988695655
690,345.25073249130435,-0.4280116050343478,0.06665279554915435,-0.1554897557128913
691,345.75375752173915,-0.2165745950253913,-0.10412606985456523,-0.07851770649223913
692,346.25131440222225,-0.3101367950555555,-0.04094613393535555,-0.003929339518600005
693,346.7489683326087,-0.27448093113413047,-0.12362656385845652,0.025031597718999998
694,347.2562686931818,-0.09508332339261362,0.07475338198854774,-0.02317786215095682
695,347.7483567739131,-0.0033093541899565228,0.020754420236847825,0.07892086195934782
696,348.25137978695653,-0.21872984845565216,-0.0198800667465,0.10768367933397827
697,348.7489348488889,0.012335450779155556,-0.24041483137448888,0.1498117446942222
698,349.2464896217391,0.01314588344871739,-0.1962162204426087,0.007950461430826086
699,349.7495117326087,-0.05855745659630435,-0.0401272566416087,0.04140424727934782
700,350.2525336021739,0.049430835511410864,-0.062269936436217393,0.009905379743882602
701,350.75008758444443,-0.01345028479288889,-0.02212487326799778,0.026421207851600004
702,351.2476413326087,0.1053513074721739,-0.033069869743671744,0.033298813787760874
703,351.75066248913043,0.4916317553602174,-0.10411515443543479,0.0361365131671087
704,352.25368341086954,0.1260870902448913,-0.08836218584256521,0.08787814430358044
705,352.7512365088889,0.14236198001533332,-0.15795604387735554,0.06808085971175555
706,353.24878940434786,-0.05779833120186956,-0.1895332440074565,0.06106123717143479
707,353.75180971086957,0.001001119620630436,-0.2632087417213043,0.12920255246350001
708,354.2457471,-0.004567750476681818,-0.1719210852309091,0.04402052272525
709,354.74691452173914,-0.0017399554647826083,-0.14415120560347824,0.06526706529984783
710,355.24993423478264,-0.08829967612826087,-0.07641636288626087,0.0019450187687173911
711,355.75295375434786,0.05557759948889131,-0.08465989517169566,0.04508779359828261
712,356.2505054933333,0.0037864208192666675,0.14204676946293554,-0.07363065084255556
713,356.7480570217391,0.07108729300182608,0.1416578603838174,-0.03245444919376087
714,357.25107594347827,-0.025352366590971735,0.030373630316089133,-0.003407478333521739
715,357.7486270688889,0.02678132057209778,-0.11710786290211112,0.033940611944495554
716,358.2461779847826,-0.07527066832313044,-0.25436622291108696,0.07311269511793479
717,358.74919628695653,-0.08255153829456521,-0.3750321217352174,0.01159453391304349
718,359.2522143673913,-0.08290393658795651,-0.5597797424891304,0.1746014926717826
719,359.74976464222226,-0.0196060179026,-0.35138169394,0.12074650658882222
720,360.24731471956517,0.005290554879282606,-0.15603704037443175,0.1268808115921739
721,360.7503321673913,0.061669236213043474,0.04753481822736956,-0.15281489624760872
722,361.2533493804348,-0.09423914810891304,0.8301350966804348,-0.6064884766328261
723,361.75089883333334,0.08447735045257777,0.97995036444,-0.5795430395282222
724,362.24844805652174,-0.2220472081230435,0.7110872268586956,-0.4856405258036956
725,362.7514646217391,0.0629254662256087,0.41918859275226084,-0.43190209760428255
726,363.2490133911111,-0.09960889849731112,0.4625743230244444,-0.20749999153902224
727,363.7465619217391,-0.04854833683391304,0.3649979674217391,-0.308061972891
728,364.2495778086957,0.040139131852373916,0.20717563835952174,-0.19847666698415217
729,364.75259345434785,-0.12520214429673912,0.0813620919726,-0.036744055526043484
730,365.25014131777783,-0.027797530088133342,0.09787102805411334,-0.19990693197806667
731,365.74768895,-0.04826728383830435,0.08522166375926087,-0.10631902321347826
732,366.2507038891304,0.021825635889464783,0.056857689569695655,-0.013231184193500011
733,366.7537185978261,0.025763527531739126,0.02759054432452174,-0.010051198636521734
734,367.25126553111113,0.02636424303588889,0.04404176076492667,-0.04120656120266667
735,367.7488122282608,0.0025484076055434777,0.028965918912869565,0.04489405259397827
736,368.25182624347826,-0.03141956768436957,-0.0013725342988869557,-0.019405593041608698
737,368.7493724711111,0.11943589651113332,0.009783691828644447,-0.05783662797546666
738,369.2469184673913,-0.0433563700023913,-0.006020131321304349,-0.025523475979173916
739,369.7499317630435,0.02081502196795652,0.007731935255500002,-0.04628773357489131
740,370.2529448195652,-0.030525636095391308,-0.009244390152173912,0.023855997189499996
741,370.7504901155555,-0.01074926058328889,0.007292747497622222,-0.019187196086222227
742,371.2480352065217,0.020618464142608692,0.24913059109945654,-0.09752498501163043
743,371.75104760869567,0.009662461466826089,0.6039200865782608,-0.3769016887941739
744,372.2485922644444,-0.017430293688444454,0.4494212150622222,-0.26354200574013115
745,372.74613672826086,0.04660698909458695,0.37383977226521736,-0.1862396779352174
746,373.2491484934783,0.043160916126108693,0.40887897947326085,-0.2636189667963913
747,373.7521600608696,0.020859906600189132,0.24073417290173912,-0.16224315892152175
748,374.24970391555553,0.02947838322933333,0.05269072850686667,-0.043814415398444446
749,374.74724758913044,-0.010313579238978259,-0.06622356954265218,0.08967251364702175
750,375.2502585630435,0.005348721287652171,0.11275036438530436,-0.09193346811643478
751,375.7532693586956,-0.006712058633673908,0.04644532825897826,0.05345967540086956
752,376.25081249111105,7.188701555555448e-05,-0.22145258585155553,0.14900696013155557
753,376.74835542391304,0.04018694194695652,-0.3082378428941304,0.23486589348434783
754,377.2513657,-0.1192690832726087,0.09067328079608696,-0.2043125110982609
755,377.74890837777775,0.1200522558538,0.30705297258373443,-0.10525772306533333
756,378.24645078260875,0.02093137216904348,-0.027611732479847825,0.023645318058826092
757,378.74946055869566,-0.20775664760173915,-0.2706517240356522,0.09540451091976088
758,379.2524701978261,0.0035822294291304345,-0.3519871960472609,0.16594248232350978
759,379.7500121755555,-0.0554121381680889,-0.2078833580030889,0.09695034027437778
760,380.24755397826084,0.1186124468625,-0.17685724342026957,0.05023328118467391
761,380.75056312608694,0.2776481259693261,-0.14087228153065218,0.1691012175127174
762,381.25357213043475,0.2300905264069565,-0.09554311503513042,0.2497274979271739
763,381.75111349777774,0.32819896273391114,-0.10205935372155554,-0.1021997028028889
764,382.24865472391303,0.1076588944878913,-0.05657129702538913,0.05226004641606523
765,382.7516633043478,0.05637857188467392,-0.03992909970834783,0.04832290566847826
766,383.2492042711111,-0.07991972880543112,0.02633971108126667,-0.0011447800464444442
767,383.7467451152174,-0.04512418677632608,-0.04294340506447826,-0.009940955946304347
768,384.2497533282609,0.10867926640104347,5.427650637608704e-05,0.07278361527767392
769,384.75276143260874,-0.07822588862214348,0.008363278023478263,-0.0816241243788913
770,385.2503019511111,-0.10787395437,-0.02191632588737778,0.08716995451177778
771,385.7478423717392,0.041820915502173914,0.00794804614797826,0.016553246458500002
772,386.25085018695654,-0.021516931446521736,-0.00040699088558260744,-0.08815542511043478
773,386.75385789565223,-0.08469506919673914,0.015442620156586958,0.018779733913478265
774,387.2513980422222,0.1290848801472889,0.015257284370217778,0.06869007745911111
775,387.74893813043474,0.06463731695771739,0.004739885747152173,-0.06861965553304349
776,388.25194561304346,0.006329250076478262,0.013111155967843477,-0.01186072307530435
777,388.74948555111115,0.029547603260444442,0.007361539206955556,0.05394824345622222
778,389.24702543260867,0.006917725438152174,-0.001472628635530435,-0.009264738659347831
779,389.75003275,-0.02705403061458695,-0.027850596798695653,-0.05992535921806521
780,390.2530400130435,0.012624495057304346,0.016118941098926087,0.0667609857452174
781,390.7505797711111,0.05706847706948889,-0.021296713085955554,-0.09073130289515555
782,391.2481194913043,-0.046537869646956526,0.03226509301578261,0.11740927074356522
783,391.75112665652176,0.05312787190584782,-0.03053043199448261,-0.10338792593543478
784,392.24866632444446,-0.036059565011,0.021301820542933333,0.02412585151955556
785,392.74620597173913,-0.013100161500347825,0.019241954967058696,0.038597749630043476
786,393.24921308478264,0.06015488764123913,-0.001976635144654347,0.011330055155347827
787,393.75222018913047,-0.017024907078543476,0.015233319737826089,0.0070721481169782555
788,394.2497598244445,-0.033168450995444444,-0.001982922021244445,0.008386982811046667
789,394.7472994565218,0.025343394471456525,-0.20720894439434784,0.054981210957152166
790,395.2503065891304,0.019459885498913046,-0.13584151475063044,0.14443051296476087
791,395.7533137456522,0.04324339135593261,-0.03324375981726087,-0.050070534574347826
792,396.25085346222215,-0.029045985805533334,0.18483069737593333,-0.0630891693999111
793,396.74839319347825,0.029300163618936958,0.09677018290082609,-0.07178354263293478
794,397.2514004130434,-0.002988536721043478,0.0660729511968913,0.01454133573
795,397.74894019777776,0.005022174781533334,0.012701108720977778,-0.07616778479457778
796,398.2464800130434,-0.01475304364947826,0.007169319237565219,0.0540079655843913
797,398.7494873195652,0.04347725148058261,-0.09016087780780435,0.058408198153043475
798,399.2524946630434,0.03402450615932826,-0.06620172832536957,0.02544578261847826
799,399.75003455555554,0.02095519967131111,0.10423231124863334,-0.07880168490600001
800,400.24757448043476,0.027427399935,-0.071158989615,0.05622310223434783
801,400.7505819086956,0.055693498122813045,-0.30309854382695656,0.11109003814034783
802,401.2535893717391,-0.12512556366397826,-0.10750053239834782,0.1050326720508261
803,401.7511293733333,0.027043226031977775,-0.07363127072799999,0.001168505353666669
804,402.2486693760869,-0.07934332412417391,0.08221445912519347,-0.03861452186347827
805,402.7516768804348,0.031022579773195655,0.07911843838852174,-0.04503086338582609
806,403.24921692,-0.009828288027044444,0.07706712616806667,-0.03503002590342222
807,403.7467569347826,-0.0899314893303913,0.18873187770332608,-0.09779216931776089
808,404.2497644108696,0.07920782009108696,0.06350504833719565,-0.05989015620782608
809,404.75277185652175,0.016322625717138477,0.07229414193586957,0.0015218983476739112
810,405.2503118066667,0.04194480975644445,0.12160069147533334,-0.066711722483
811,405.7478517152174,-0.007744218994135216,0.26636963305,-0.10894196966586957
812,406.2508590565218,0.038342530959108695,0.2763368876043478,-0.13401618211056524
813,406.7538663543478,-0.0046972425074543476,0.12376648446806522,-0.06585427989649566
814,407.2514061333334,0.023489397104399998,0.03019142151262222,-0.0114485952656
815,407.7489458673913,-0.02439234309383261,-0.21503518976065217,0.11100783555247826
816,408.25195302173915,-0.010041923621695653,-0.12979813244043478,0.06382388654200001
817,408.7494926688889,0.012802753189435556,-0.10686315430311111,0.04693601396746667
818,409.24703227608694,0.008893570174984784,0.01841576203565217,-0.010417482123195652
819,409.7500392869565,0.015130500429204347,0.04246420445939131,-0.021499198418152173
820,410.2530462652174,0.005061010948945652,-0.14994942623934782,0.07327160628259782
821,410.7505857177778,0.01571554077662222,-0.11919714610148889,0.03934663137266667
822,411.24812511739134,-0.04685446360519565,-0.17492537395543478,0.06950927816326087
823,411.75113192173916,0.036771436103434786,-0.4240221614347826,0.19542644334552173
824,412.24867118888886,-0.029912749929066666,-0.26948689354666666,0.11152002546411334
825,412.74621038695653,0.02897272421040652,-0.1263802880808913,0.052675744763478256
826,413.24921700217385,-0.014203687078217392,-0.22118098320652174,0.1013716614831739
827,413.75222357391306,0.013112200343108695,-0.13786839921223915,0.05737576277391305
828,414.2497626888889,-0.012627342012200001,-0.07645920647644444,0.07320726182546666
829,414.74730182391306,0.026915366231980434,-0.017177037568369566,-0.03610134124665217
830,415.25030848260866,-0.0016982646079347836,-0.023250610931630437,-0.0006363288253912985
831,415.7533151934782,0.07033709210067392,0.23388574952504348,0.027772965639934782
832,416.2508544888889,-0.23953744439797775,0.5412082884,-0.5762445979661556
833,416.7483938326087,-0.05771405606134783,0.7118258268847827,-0.34503294074593477
834,417.2514006869565,-0.029667325315608697,0.40181447630239125,-0.07891710944497826
835,417.74894011333333,-0.004114892746244445,0.23411736488,-0.19128441281133332
836,418.24647953478257,-0.041854886909782604,0.13521121377630435,-0.1406349306506522
837,418.74948640217394,0.02987423961652174,0.018323307445434783,0.01620348639521739
838,419.25249325,0.018195198932695656,0.03642302492903696,-0.0709880745933913
839,419.75003261555554,-0.049343511798911104,0.012219333647111112,-0.035553254024644446
840,420.24757192826087,0.011979302633434781,0.014551499617543477,0.020913352139369564
841,420.7505786652174,0.14458751938326087,0.10798552761726087,0.00545580490543478
842,421.253585326087,-0.21944620037608695,-0.18075382707708695,-0.3066426671067174
843,421.75112448444446,0.001680480108666665,-0.025218184791555555,0.1310317569344889
844,422.24866356956517,-0.05763679937169565,-0.04813732789859783,0.06516770694517392
845,422.7516700434782,-0.013222095759282609,-0.013462216957641304,0.010027242743891305
846,423.24920896888887,-0.02501052684291111,-0.010506513383288889,-0.009524430170955557
847,423.74674778913044,0.019525224100673914,-0.019704746162413043,-0.011262831479282606
848,424.2497539826087,-0.005787965391697719,0.00027978420070869596,0.02957020636246304
849,424.7527600586956,-0.007452585126717391,-0.00033476041693913065,-0.010802517766752175
850,425.2502985822222,-0.006378502645973335,0.00038534270438666667,-0.028093168477599996
851,425.7478369913044,0.004658685249828261,-0.004946921182726957,0.024230749711652174
852,426.2508427478261,-0.0031381424367108693,0.004622060322080436,-0.021019189254602173
853,426.7538484130435,0.00674270765476087,-0.008905633636056521,0.029152434803347827
854,427.25138649111113,-0.0008206374090444479,-0.013363107045402223,-0.002773984279977778
855,427.74892445000006,-0.031373886960586954,0.014490459276826087,-0.03573763888692392
856,428.25192976521737,0.005832871015065216,-0.005414853925586957,0.021646043540163043
857,428.74946750000004,0.003975225816031111,-0.0019182417153777772,-0.034611468844622226
858,429.2470051,0.0008780684189391296,-0.002755781879286956,0.017261297804913044
859,429.7500100565218,0.006817526143780435,-0.003204257591847826,0.002836579862189131
860,430.2530148695652,-0.00136375427291087,-0.0014950036999565217,-0.0006315604504565221
861,430.7505521311111,0.0034252564112146667,-0.0034366183812022224,0.005483839246471112
862,431.2480892695652,-0.0006281331825804347,0.0021571180088478265,-0.0032188788714000004
863,431.7510937434783,0.0010818644710413044,-0.002832832544141304,0.0029943714973291314
864,432.24863066,0.0018151627645511112,-0.0012059741548555555,-0.0028749042075804443
865,432.74616743913043,-0.0002616073771391303,-0.000542505927804348,-0.0030972853956347827
866,433.2491715521739,-0.0010007658729869566,-0.0007598037307478258,0.006359846696369566
867,433.75217554347824,0.0006861155443804349,-0.0025354209153043475,-0.0006547388822630436
868,434.24971197555556,-0.0009315013890000001,0.003937546411755556,-0.0035707473764222224
869,434.74724829130435,-0.009915710795804347,0.21586015432252173,-0.11349603404204349
870,435.25025190869565,-0.007307319536652173,0.313957743026087,-0.10834270975643479
871,435.7532554086956,-0.006721755733391304,-0.010905784106956522,0.01002697322434783
872,436.2507913644444,0.013599646090733334,-0.24449117448444443,0.08565807342662221
873,436.7483271978261,0.012133226449756519,-0.1665114786297826,0.0799517216947826
874,437.25133035434783,0.0009048334920767388,-0.08355057757815218,0.039282881695500003
875,437.74886595333334,0.0017144189947555556,-0.03739141358240889,0.010656907822673332
876,438.2464014326087,0.00913760325152174,-0.019843080770071738,0.004783920617282609
877,438.74940422826086,-0.0010016612387191957,-0.003916159920543478,0.015242763183652175
878,439.25240692391304,-0.0003325161720217396,-0.0024740592283565214,0.002396873809456521
879,439.7499420977778,0.007145517401953334,-0.120349937014,0.04004921383308889
880,440.24747720000005,0.013728939968060868,-0.22544413027760868,0.10503385378704348
881,440.75047968043475,0.005229677843108695,-0.14014021728823914,0.06985392777871739
882,441.25348215,-0.005573140547565216,0.18528736156108697,-0.10524100842182607
883,441.7510171888889,-0.0055859353820133335,0.1670113987443111,-0.06280593872133333
884,442.2485522326087,-0.005565167769828261,0.07986448640102173,-0.038819333781195654
885,442.75155470000004,-0.0036288940391217394,0.0394257566201087,-0.011042864427673913
886,443.2490897422222,0.004819512366784,0.016206322776333333,-0.007846196493838888
887,443.7466247913043,0.0013433163573260871,0.007879770320156522,-0.005228726761715217
888,444.24962724565216,-0.00040400028196956527,0.0033269965132434786,0.002163472383708695
889,444.7526297,0.0008425621884782609,-0.00014976314904782616,-0.001509106677973913
890,445.2501647266667,0.0005116687880911112,-0.0004605823093666667,0.0007930543694222216
891,445.7476997521739,-0.0017626790895865219,0.002147710842002174,-0.005729156992091304
892,446.25070219130436,0.00039232943330869553,-0.0004298272341782608,0.0038941839467934785
893,446.75370462826083,-0.0047432015724065205,0.1721999126913261,-0.06548852505830435
894,447.2512396355556,-0.027180217371355554,0.41522407001999995,-0.1854711532548889
895,447.74877462391305,-0.014347735954108697,0.3226687078804348,-0.129388311635
896,448.25177703043477,0.0018609865858891302,0.04658577753136956,-0.005231525583978261
897,448.74931198666667,-0.004029688571244445,0.09176953633377778,-0.03630125257991111
898,449.24684692391304,-0.008964367536934782,0.06640225908043478,-0.032937671831173916
899,449.74984924130433,0.0033777550483478263,-0.06147151407963043,0.026525621829130434
900,450.2528515326087,0.02108920268412391,-0.2906318799330435,0.11240434646976086
901,450.75038637555554,-0.01245488458591111,-0.10354169740022222,0.039960945978600004
902,451.24792119130433,0.019084225529630437,0.09525924143369564,-0.026228759599978266
903,451.7509233978261,0.006552873745217393,-0.15698982839895653,0.05043390523132609
904,452.2539255978261,0.02936686121835652,-0.30038843466086956,0.11169516522169565
905,452.7514603511111,0.048019739330133336,-0.19978006681440003,0.14861759609233333
906,453.2489950630435,-0.009734961645217392,-0.11398630556565217,0.06722538369796523
907,453.75199714782605,-0.06185744572869565,-0.08199283350741304,-0.03970085019480435
908,454.2495317622222,0.011459761524177776,-0.03795358869793333,-0.0100587209026
909,454.7470663152174,-0.0038373191776304356,0.0006208212480000047,-0.04046151948431739
910,455.2500682282609,0.26514953084471743,-0.04234192682682608,0.05290269848706521
911,455.75307007826086,0.19197906424,-0.02049028872863044,-0.021135724104999986
912,456.2506044577778,-0.01911431665644445,0.026930189131777776,0.06481273434893334
913,456.7481387695652,0.09226389635154349,0.09563224730246522,0.07680890870326088
914,457.2511404260869,0.16446674420928262,0.21361655774441304,0.05509233475500001
915,457.7486746,0.044455385865777776,0.013148196540311114,-0.128848775248
916,458.2462087,-0.08281182579971738,-0.0014567997123912972,0.09938450479571741
917,458.7492101217391,-0.03216429387173913,-0.08068709787623914,-0.011903420751521733
918,459.2522114782609,0.03462733133680435,-0.10565254999180436,0.04171114382891305
919,459.74974534222224,-0.16170168560226666,-0.04887910948466667,-0.07114951872444443
920,460.2472791304348,-0.044387555321086965,-0.0020442449626086926,0.005859229852173915
921,460.7502802282608,-0.014154388016673907,-0.005486726760456525,-0.0719807769495652
922,461.2532812413043,-0.023759131441956526,-0.019857810895891302,0.03291371597456522
923,461.75081477111115,-0.08886751996366667,-0.020585346234022226,0.23424303270755556
924,462.24834819999995,-0.28589793586084156,0.1427640448502174,-0.1438841508397826
925,462.7513490434782,-0.09494361847973912,0.02289122342304347,0.06911944303913042
926,463.2488822355555,-0.18093774782102223,-0.017093258430444437,-0.18696385489822223
927,463.74824030222226,-0.22800074088066669,-0.08642990854444445,0.15288470590955555
928,464.25050938666664,-0.03343063029288889,-0.151734622312,0.005444367735111107
929,464.74804240217395,0.16266372282332608,-0.1011936923767174,-0.08857930222630435
930,465.25104274130433,-0.009454130153240871,-0.08294794870253477,0.19101585510086955
931,465.74857558444444,0.07608497572697778,0.007229752011711114,0.04134288365177777
932,466.2461083586956,0.03212903019308695,-0.005269895433913044,0.00461874840369566
933,466.749108423913,0.04880890962856522,0.16001296561721737,-0.020497456849347832
934,467.2521084195652,0.22331915263302174,0.23591891577834784,0.07456223863195652
935,467.7496409555556,-0.09852145148460001,0.53961625098,-0.20528292129862225
936,468.24717339565217,-0.12033701623569565,0.6688117929065217,-0.25894496751956525
937,468.75017316086956,-0.02385408034378261,0.39752846696782607,-0.14560901603017393
938,469.25317285434784,-0.07403122018695651,0.2837704782854348,-0.2805948153676087
939,469.7507050711111,0.03913843764488889,0.10959818097933333,-0.09479515288319999
940,470.2482372195653,-0.014963136421717394,-0.09520758752630218,0.10547173541504348
941,470.75123667608693,0.03243584542543478,0.025926776555913043,-0.08144570433465217
942,471.2500204555555,-0.135475103062,0.10637807846304445,-0.01837515301246667
943,471.7559043113637,0.1638942584414773,-0.015546527776574998,-0.03967403282227273
944,472.24929988913044,-0.08172159869632609,-0.16037435116826088,0.2473194080786326
945,472.75229910434786,0.0989799583701,-0.46241048107869565,0.002171868853978256
946,473.2498308888889,0.26345485250555556,-0.9262164168933334,0.5597545200127777
947,473.747362673913,0.0016167931574347758,-1.2550007364695652,0.4018559455538261
948,474.25036182826085,0.11794594124434783,-1.399342179326087,0.7173386967815218
949,474.75336097826084,0.1434622024897174,-1.3077098131043479,0.7933558173619566
950,475.25089275777776,-0.05304091042955556,-1.1565885861177778,0.5707079145595556
951,475.7484245434783,-0.08086765849515434,-1.0823563959565217,0.4162722877830435
952,476.2514237478261,0.1509185867426087,-0.806308134752174,0.3453951918867391
953,476.74895558,-0.03686516981488889,-0.20890920427244444,0.12666696972604444
954,477.24648743478264,0.06822149358451957,0.20410962208654346,-0.09806917024380436
955,477.7494867173913,-0.03806255952058696,0.15532287307591305,-0.050662154742
956,478.2524860217391,0.12795696958023914,0.34094915182999996,-0.17387916730813044
957,478.7500180044444,0.13511175778188889,0.5180034160666667,-0.2193196402608889
958,479.24755001521737,-0.008818225045413042,0.6320791348152174,-0.3009989779991087
959,479.7505494608696,-0.009089431684347827,0.37646018940434783,-0.22895390054021741
960,480.2535489652174,-0.013506972920652172,0.2295565397879565,-0.10903196748856957
961,480.7510811088889,-0.060206396716000005,0.00795401467331111,-0.010326936509711114
962,481.24861332391305,0.10954916120239132,-0.14556820496753695,-0.11015114577289131
963,481.75161265434787,-0.10347848968645652,-0.1081812589037826,0.11851806225499999
964,482.2491447711111,-0.024858354198222223,-0.24818660948066665,0.21920588812400002
965,482.74667709565216,0.0773392441173913,-0.38065853326304344,0.11659085232606521
966,483.24967684782604,-0.11870293610826088,-0.18764295785173915,0.10746300738741305
967,483.75267664130433,0.03708004789713695,-0.10221391139254349,0.011229598005800003
968,484.25020907333334,0.04111448592751111,-0.022778087191404443,0.0481928295606
969,484.7477415521739,-0.0024272501522826107,-0.25880863355436956,0.1402585817539565
970,485.2507414543478,-0.07600080577854348,-0.26556918932208695,0.0763258726673913
971,485.75374141086957,0.022291979707782607,0.16567473825543477,-0.1150284850122826
972,486.25127399111113,-0.03515400886468889,0.6161860572022222,-0.33048378626111113
973,486.74880659999997,-0.05161103929969565,0.70764813215,-0.3610391305897826
974,487.2518066282609,0.050850527440102176,0.30848679335652174,-0.11755808540378263
975,487.74933925333335,-0.09402154550595555,0.12737598418787777,-0.1587041431011111
976,488.24687194999996,0.1693008056119565,-0.0007577149716513058,0.04061914526704347
977,488.74987204130434,-0.09043855673486956,0.018536132314326086,0.04158531065867392
978,489.2528721478261,0.047810779973913045,-0.08095791028906522,-0.03849714735728261
979,489.7504048933333,-0.028005496994755557,-0.11830114788479999,-0.12599895265333333
980,490.24793763478266,0.09884186995847827,-0.024698723912,0.031445855685869564
981,490.75093777826083,0.07998896293567392,-0.09992752904936957,0.0047547402599999984
982,491.2539379282609,0.062302103495999996,-0.32917482955847827,-0.06802845003086956
983,491.7514707022222,0.06857377947331111,-0.16090230941695555,0.20092608132676887
984,492.2490034717391,0.06759130436847827,-0.31090096286708696,0.13316151370056523
985,492.75200365217387,0.11286320374847826,-0.1487481438524826,0.08713233988078262
986,493.24953644444446,-0.170202498964,-0.06715443399211111,-0.007693672179813333
987,493.7470692391304,0.15598496859108696,-0.06786506591134782,-0.03459071076
988,494.25006943695655,-0.1372330758926087,0.05030640830163044,0.03336148677804348
989,494.7530696456522,0.2087334666588913,0.25142465467047825,-0.1930172754405652
990,495.25060244444444,-0.26157248815244444,0.3529723485348889,-0.012915155622888889
991,495.74813524782604,0.14922163150426088,0.17385591631021738,-0.009686666980891304
992,496.2511354304348,-0.4382480590266739,0.2688290761809565,-0.34562856218934784
993,496.7486682177778,0.02134593062911111,0.05218914879373334,-0.015472221369466669
994,497.2462010195652,-0.16933758102856522,0.01839151589276087,0.06277866985173913
995,497.74920122608694,0.15651179914795654,0.03873579397773913,-0.08157683455240652
996,498.2522014565217,-0.037097658146956515,-0.06929491395217391,0.11252778508891305
997,498.7497343133333,0.03363875746,-0.024079153274000002,0.1283896764128889
998,499.24726723260864,0.13208222259065217,-0.09926171924302826,-0.21176409720175
999,499.7502675630435,-0.1493404611273913,0.01185591324781739,0.09170030511043478
1000,500.2532679434782,0.09947929628130434,-0.11930415423291739,0.05463186554345652
1001,500.75080096000005,0.02241656382477778,-0.2911279519406667,0.16427341035549334
1002,501.2483340282609,0.029465385104195652,-0.05115195979750435,-0.10613908973043479
1003,501.7513345934783,0.01754073215956522,-0.09192777716504348,-0.10990937896141305
1004,502.2488678355556,-0.04963876009187555,-0.03664773305059111,0.1046143425968889
1005,502.7464011347826,0.08579380875145652,-0.10434488110204349,0.10798717583434783
1006,503.24940189999995,0.13338430420295652,-0.1462592197471739,-0.043774905409826086
1007,503.7524026913043,-0.1521302267323913,-0.1538233212780435,0.2283511887584348
1008,504.2499360355556,0.13283785091784445,-0.4357313659442222,0.23566538488324443
1009,504.74746940217386,0.31435723923739134,-0.49881151705217386,0.03513111239586957
1010,505.2504702,-0.24609464278121737,-0.3787715176023478,0.16732397289173911
1011,505.7534709934783,0.15382887617417826,0.04388059740643478,-0.06984607032891303
1012,506.25100439777776,-0.24245589839355558,0.11011814011548889,0.16487315497066668
1013,506.74853779347825,0.14165696372493478,-0.0041851945519130445,0.07193890862173913
1014,507.2515385652174,-0.09044382882673914,-0.047890367716956525,0.04052135219391304
1015,507.74907191777777,-0.15195171038644445,0.10265662405035555,-0.31740138795648887
1016,508.2466053,0.003329073610869564,0.007639729463304345,0.02788880598463044
1017,508.7496060913044,0.10712538270376086,-0.14984124639715218,0.11800670624108696
1018,509.2526068369565,-0.1397988433442826,-0.11535424771447826,0.13147405956456523
1019,509.75014020000003,0.07119945022697778,0.16940337287444446,-0.06890301174868889
1020,510.2476735586956,-0.034942716361152176,0.08448770772063044,0.04159995784432609
1021,510.7506742978261,0.04121064622493478,0.04436329136691304,-0.11752359763282608
1022,511.25367500869567,-0.019793190386669563,-0.11895192705936956,0.041915344153260856
1023,511.7512083022222,-0.13279451925288221,0.06828400823935556,0.27040765552884444
1024,512.2487415695651,-0.01098802944771739,-0.028726795411304355,0.11810893598308696
1025,512.7517421934783,0.07758851235826086,-0.07204538324353696,0.03223374613782608
1026,513.2492754133333,0.12037047312933334,-0.12574563026577779,0.33739272223488886
1027,513.7468086086957,-0.08013653172152173,-0.24726893591108695,0.1437723118280652
1028,514.2498092021739,0.24024976790108693,0.1335047431587087,-0.08657053242797827
1029,514.7528097913043,-0.22477558254904348,0.07328937365902174,-0.029192489125000005
1030,515.2503429755556,-0.02588381502584445,0.021836445059826667,-0.06713039609999999
1031,515.747876176087,-0.13074870472636957,-0.024902970896086955,0.1514021624696087
1032,516.2508768282609,0.06934530061326087,-0.15671159909856522,-0.11444056552347827
1033,516.7538775217391,-0.09941611081873913,-0.04550248643467391,0.10959555789847827
1034,517.2514109,0.029768851068444447,-0.10713815159075554,0.02212525473805333
1035,517.7489443,0.01710998752413043,-0.15172103176604348,0.09550996448760653
1036,518.2519451043478,-0.0316856322074426,0.06583099261797827,-0.039521476499521736
1037,518.749478611111,0.008169982171000002,-0.10080463621291111,0.04794841342595555
1038,519.2470121891304,0.009791231670934786,-0.19951038257391304,0.13448748380652176
1039,519.7500132282609,0.0072424411733043445,-0.2024285119554348,0.08966578608282609
1040,520.2530143086957,0.033814743808584784,-0.11125259295758695,0.10025729303208694
1041,520.7505479933334,-0.03224096033295555,-0.08085229662066666,0.08834387461204445
1042,521.248081697826,-0.02458054086378261,0.021698899890826087,0.01508978139521739
1043,521.7510828130435,0.012466456579782608,0.3714163925317391,-0.16156327206086957
1044,522.2486165511111,-0.03741131623508889,0.4898206869688889,-0.27923574447435556
1045,522.7461503608696,-0.010178340520956522,0.3675512956521739,-0.18152102179930435
1046,523.2491516326087,-0.10997225668236955,0.1910332285854348,-0.13719069439597825
1047,523.7521529804347,0.312616348283587,0.04545029349902174,0.036256997482304355
1048,524.2496869933333,0.23983191516822222,-0.020521746744066666,0.07099748187806666
1049,524.7472210760869,0.21190345546154346,-0.08916910834725651,0.12234418288597826
1050,525.2502226217391,0.18942261390125872,-0.08421695750652174,0.06447571256913044
1051,525.7532241978261,0.32679854980897827,0.007752853883304347,0.05886724720369565
1052,526.2507584,0.26119203236866667,-0.03166714774222222,0.04056526820328888
1053,526.7482926086957,0.3976675544067392,-0.05437340943636957,0.03629222123321739
1054,527.2512942565218,-0.2829876998715218,-0.04635052059008695,0.017717268155021736
1055,527.7488285177777,0.03956366976022222,-0.26784625583577776,0.16262319353171556
1056,528.2463627478261,0.16438458341697826,-0.21382355689983698,0.11075990096369566
1057,528.7480212681818,0.23178273676625,-0.16092585434147727,0.11332918297204544
1058,529.2523660934783,0.13195006435491302,-0.20987906662958694,0.14443205750663043
1059,529.7499003733333,0.10646208111013333,-0.21513630548844445,0.09069562488422221
1060,530.24743465,-0.015722846867217397,-0.41117433880760873,0.2290368702031304
1061,530.750436323913,-0.3841449307463044,-0.32329245236673915,0.27245433434108696
1062,531.2534380021739,-0.3152645579999348,-0.18976100631056522,-0.007689558926739143
1063,531.7509722377778,-0.4909546547628889,0.058952691822920004,-0.16630588109355554
1064,532.2485064782609,-0.81546209945,0.06793614055845652,-0.21193918974928264
1065,532.7466452355555,-0.556941707908,-0.11242063310653333,-0.1323294215795111
1066,533.2492664244445,-0.21889985667093334,-0.3558606889493333,0.10881580776996223
1067,533.7531374608697,-0.08130359649552174,-0.2949189932406522,0.1324022127345652
1068,534.25067168,-0.20900374783784445,-0.11558109918988889,0.05167227851357777
1069,534.7482059021739,0.04362861229378261,0.04726584060958696,-0.0068318325524347814
1070,535.2512075195652,0.019958097011304344,0.17324191591217392,-0.06986161936608695
1071,535.7487417266667,-0.046676537726888886,-0.05927152633533333,-0.006985123949644444
1072,536.2462759108695,0.057179191835826086,-0.21129337601598477,0.11806010163780434
1073,536.7492775304348,-0.021559738592391308,-0.1543476581571739,0.11323671755608695
1074,537.2522791391305,-0.07511812707697826,-0.15768092612347825,0.06686533015804348
1075,537.7498133466668,-0.005338271463999999,-0.0863087972008889,0.06545471614891112
1076,538.2473475521739,0.07259089013391304,-0.2700099996895652,0.021415700091956518
1077,538.7503491804348,-0.04115868975058696,-0.09651414726373912,0.01535477843991304
1078,539.2523131772728,0.0906423983914091,-0.10962866652543181,0.1948270363965909
1079,539.7486981155555,-0.07276245655539999,0.12220591968933334,-0.05189554427222223
1080,540.2462323978261,0.018136938306304334,0.17087751885804348,-0.2336667827369565
1081,540.7492341173913,0.034825424951852174,-0.2359183560268348,0.018261608863826093
1082,541.2522358608695,0.010635103526086953,-0.2010671574135826,0.14083767974002173
1083,541.7497702466667,-0.024999520027977774,-0.09727960162982223,0.09962573581026667
1084,542.2473047065217,0.05072158012158696,-0.18854237639813043,0.031043436208043482
1085,542.7503066543478,-0.04205540247608695,-0.21639695374717394,0.2840140798915218
1086,543.2533087065218,-0.03469097500860435,-0.17401537687391738,0.14911780149543477
1087,543.7508434577778,0.005896327065399999,-0.17057025697866668,0.10487483342315554
1088,544.2462932636364,0.03256077675445455,-0.2518992315618182,0.22144217924495455
1089,544.7513807391305,0.007067456031126086,-0.19068331303891303,0.11420778606194565
1090,545.2489158822221,0.014075445630264444,-0.08965424961356666,0.05818831125871111
1091,545.7464511956522,-0.010397657108347827,0.022278702778913046,-0.018194426661358697
1092,546.2494541565218,-0.027501527705021737,0.4922960789282609,-0.3047097662204348
1093,546.75245735,-0.07333997297015217,0.5309708118456521,-0.2763994880380435
1094,547.2499933622222,-0.011748622363022222,0.31833767361222226,-0.30679681566377776
1095,547.7475295956522,0.08157114360897826,0.07311280913869565,0.09168961773595653
1096,548.25053345,0.017504001925000002,0.11330342292869566,-0.027901307394065218
1097,548.7535374826086,-0.008714029488834782,0.06724103637693478,0.006974842237608694
1098,549.2510742466667,0.009192901187822223,0.019489012824088887,-0.013060781688044445
1099,549.7486111652174,0.004748956178382609,0.01021044150654413,0.02023126768093478
1100,550.2516156782609,-0.003164338838584783,0.0023293702496543483,-0.0026317264702173937
1101,550.7491528733334,-0.0006578736823955561,0.0016752454971622223,-0.00478401184072
1102,551.2466901826086,-0.002645392777760869,0.0006589163908804347,-0.005740062048628261
1103,551.7496950326087,0.007316933866660868,-0.0025108689850000003,0.003245001251434781
1104,552.2527000065218,0.0008458916256978262,0.0026711277339245875,0.00848896606702174
1105,552.7502376911111,0.0029901444909777777,-0.004148684607155556,-0.011485629608977779
1106,553.2477755565218,0.00016400541977391308,0.0015191928206326082,0.007753724637039131
1107,553.7507810173913,0.001310159330723913,-0.0027242743453391306,-0.006196229357673913
1108,554.2537866413044,0.007797689338478261,-0.005329370498673913,0.0014969991606739123
1109,554.7513249488889,-0.007039053435582221,-0.0019615173328,0.003607241309622222
1110,555.24886335,0.07965852935316957,0.06021591891330435,0.02542883417061739
1111,555.7518692630434,-0.2783884856297826,-0.2231155582026087,-0.0679772418473913
1112,556.2494077555556,0.013749741188000006,0.053823714784111104,0.03677849240950888
1113,556.746946273913,-0.004567089940891307,0.006266593931369565,0.04685980340697826
1114,557.2499522630435,0.025814827045891307,-0.0952798490932826,0.1091006009619565
1115,557.7529582369565,-0.17050163124210868,0.17601096111532608,-0.4257821829443479
1116,558.2504967533333,-0.14062649939433333,0.37958674960055555,-0.3800681643937778
1117,558.7480352804348,-0.12175919439456523,0.5363405891065217,-0.47606165512826093
1118,559.2510412652174,-0.05975157799517825,0.25144899409130433,-0.25316139925728476
1119,559.7485797911111,0.021939116715222223,0.05095525316873333,0.013031186023777775
1120,560.2461182826087,0.15092215978043477,-0.24523394003760868,0.258669718445
1121,560.7491242065217,0.011113832828913041,-0.26811013014326085,0.19939951274608694
1122,561.2521301,-0.05541627173826087,-0.17533187244245654,0.04528379440223913
1123,561.7496684933334,0.2586705949672889,-0.4483026928371111,0.3632707595826667
1124,562.2472068369565,0.007996810508260876,-0.4834699630684782,0.24843412897782607
1125,562.7502126826087,-0.1632830681928261,-0.17572825888582608,0.19686947698480434
1126,563.2532186413043,0.042474109836456525,-0.1625299142748261,0.06538900086521739
1127,563.7507572444445,-0.09511128730633778,-0.03701570299289111,0.049769126054666664
1128,564.2482959739131,-0.004981624048173913,-0.0814675144538913,0.037899162460086955
1129,564.7513022586957,-0.02865936574576522,-0.12017812936626088,0.08130182390466956
1130,565.2488803533333,0.07263941234882222,-0.08060701158473334,0.008495818237644446
1131,565.75108918,-0.05824494228968888,0.06009818182935556,-0.01201488706315555
1132,566.2504805,-0.31906574368846663,0.10987286037602889,-0.092568514083
1133,566.7480198804348,-0.061612932574782606,-0.03410758142721739,-0.029988496182586966
1134,567.2510268717391,-0.40673641599426086,-0.007657476093826088,-0.07227887278726088
1135,567.7485665533334,0.10317889319282222,-0.22820111381155556,0.18018735248091108
1136,568.2461063978261,-0.8101079703278261,-0.3372424167197826,0.00028182112278913007
1137,568.7491139282608,-0.14015784665173914,-0.4906678096043478,0.265895345953913
1138,569.2521216608695,-0.16623290498334783,-0.14805655894480652,0.1061479216088913
1139,569.7496621622222,-0.423861425308,0.15918074180704445,-0.197941546992
1140,570.2472029391305,-0.2713803898834783,0.04283572798086956,0.03255533133908695
1141,570.7502115456522,-0.10524760446969565,-0.2849599900452174,0.07999906332652174
1142,571.2532205413044,-0.44954400346999995,-0.4575249008521739,0.1699416430051739
1143,571.7507624888889,-0.0807895633926,-0.24317798084116665,0.012025928493777776
1144,572.2483048630435,-0.15845934203906523,-0.20527716304404348,0.09959466562415217
1145,572.7513152543479,0.011675440745478265,-0.2714814154990652,0.06325873087593478
1146,573.24885854,-0.056289966893911116,-0.2058628294188889,0.17276834913244443
1147,573.7464022978261,-0.0654489074022174,-0.2198854270208913,0.11146399248500001
1148,574.2506896217392,0.15834361962717391,-0.15402281802376086,0.13577540024415216
1149,574.7582986477272,0.07936525480488638,-0.13751202280136363,-0.006737676542954548
1150,575.2510648021739,0.07649638342543477,0.01224421936512826,-0.0763030363232826
1151,575.74861036,0.20401997828639998,0.02145276068666667,0.07822994657322001
1152,576.2461563521739,0.22219043710386957,0.30642607938434785,-0.3728125302526087
1153,576.7491703065217,-0.03432813544630435,0.0013958163861847836,0.12900137903515216
1154,577.2521846478261,0.03975999226365218,0.24472269804858696,-0.032437728800673915
1155,577.7497317688889,-0.06389247046768888,0.22467562358133333,-0.1754015922511111
1156,578.2472792673914,0.038595873418934785,0.04552269499973913,-0.04259262912284783
1157,578.7502946543478,0.06061497719847826,-0.07253769169973913,-0.12038931644936954
1158,579.25331035,0.5059152847974565,-0.21900158343891304,0.36755408411913043
1159,579.7508587177779,0.30280847813675554,-0.2173737737864889,0.038478978462
1160,580.2484072826087,0.31164429887456524,-0.13741793839173913,0.12568122409543478
1161,580.7514235586957,0.23022796408478263,-0.09888068488869564,0.04178301147956522
1162,581.2489723777778,0.08177151978008888,-0.08529070748354889,-0.015429200060311109
1163,581.7465212804348,0.1535380600816087,-0.03068397355873913,0.04066913024365217
1164,582.2495378,0.08114084892330435,-0.04344787286658695,0.03807573732463044
1165,582.7525543782609,0.056864752718913045,-0.06714208229580435,0.0031676292391521754
1166,583.2542606377777,-0.13877391816133333,0.12574412028286666,-0.18726850087155558
1167,583.7541967636363,-0.05376393957772727,0.3026675744522727,-0.09142273122765908
1168,584.2484824565217,-0.33388889872634786,0.30503591247543477,-0.1971638099066522
1169,584.7514994565217,-0.15934285910282608,0.013495414156130436,-0.019790670146956523
1170,585.2490490600001,-0.2644042783309778,-0.08059724172055778,-0.054782125682755554
1171,585.7465988521739,-0.37989968838732613,-0.16992703727467393,0.024879154950739127
1172,586.249616402174,-0.14911440143441304,-0.09749618821086523,0.0545238619215487
1173,586.7526340978261,-0.024253211575413037,-0.26263656305195654,0.20417057949602174
1174,587.2501843688889,-0.050485107637377784,-0.3832685629511111,0.11112984551022223
1175,587.74773475,0.06437483041632609,-0.23291076265630434,0.09883107310008694
1176,588.2507528043478,0.22628298013391304,-0.1455853711022174,0.08547898997519565
1177,588.7537709717392,0.23754636360195655,-0.03320442075271304,0.05913437967945652
1178,589.2513217577778,0.3704716245577111,-0.09864479171646666,0.0182064798128889
1179,589.7488728826087,0.5134132860445653,-0.37994439706173916,0.23045469367315216
1180,590.2518920978262,0.3437788188480435,-0.13338732201065218,0.015517297011956527
1181,590.7494442711111,0.33384771280844444,0.0989261097378,-0.025688192580777782
1182,591.2469970565218,0.10524047393206522,0.07594370842123913,-0.082521210517
1183,591.7500181304348,0.17598732722934782,0.06285509856018696,-0.054768790368891304
1184,592.2530398021739,0.20070975889369566,0.09987040187013044,-0.20303243142543478
1185,592.75059438,0.4095652189546667,0.28484298917608886,-0.20320689943051112
1186,593.248149326087,0.37833975158195654,0.19337793018413044,-0.13227056420856523
1187,593.7511721891304,0.40190321093826087,0.05384199515965217,-0.058359508933060876
1188,594.2487276533333,0.39669551480795556,-0.0446119520416,0.004707611933111111
1189,594.7462833217392,0.32112892749380434,-0.058667525000217394,0.028079903640126087
1190,595.2420668272727,-0.08345443010431818,-0.043808622797125,-0.0615044940425
1191,595.7501434586957,-0.019109387117880433,-0.11349805541933478,0.013953872355632606
1192,596.2531672586956,-0.2560831314976087,0.02211570739847826,-0.14627816366136956
1193,596.7507768733333,-0.4762749857392222,0.11160806019517777,-0.05510851542177777
1194,597.2501556288889,-0.21168900811693334,0.12130568822457778,-0.18356007472033334
1195,597.7513035434782,-0.3814295682680435,0.16180259247978263,0.18776488301608693
1196,598.2488596222222,-0.40533505257133334,-0.00415707694467933,-0.1025817447296889
1197,598.7464156173912,-0.27998451597239127,-0.1231149072276087,0.09095364032065216
1198,599.2494391369565,-0.050703564417108694,-0.3646472951643478,0.22491131656586957
1199,599.7524625130435,-0.03744341562545652,-0.574084219726087,0.3902859687705217
1200,600.2500181022223,-0.016751289200888888,-0.5838010999844444,0.3508668475642222
1201,600.747573547826,0.012017918142847825,-0.22684692299065218,0.11593980374695652
1202,601.2505964978261,-0.05797123054541305,-0.09505487524489131,0.1096973937511739
1203,601.7536195565217,0.08456673121060869,-0.10464439184913044,0.07003912719630652
1204,602.2511747577778,-0.051381303866,-0.2489737828591111,0.006853908968222224
1205,602.7487296956522,0.04793690606880435,-0.20319229624063043,0.10068437326456521
1206,603.2517521434783,-0.03310206726650326,-0.01668592121130435,0.06634681121186957
1207,603.7493068511111,0.023403428325955558,-0.10445457034955555,0.04910768934406667
1208,604.2468614413043,-0.0320123198986087,-0.16076799061173913,0.04842797569402174
1209,604.7498835608695,0.0832236515352174,-0.11400063141134782,0.14860549179684784
1210,605.252905573913,-0.07879934273884782,-0.032284912855434784,-0.012499021452391302
1211,605.7504598466667,0.10046045515355555,0.02124636967751111,0.07759915453268888
1212,606.2480140347826,-0.05295126690367392,-0.2506130156265218,-0.019574797654347827
1213,606.7510357456522,0.035436331253826094,-0.2578828956730435,0.10227032331630435
1214,607.2485897577777,0.044477028982239326,-0.12288351058417778,0.08649712668577779
1215,607.7461436608696,0.02095720225052174,-0.20657261558460868,0.12972680382223914
1216,608.2491650847826,-0.06909276265719565,-0.18819254895036955,0.11643094601526087
1217,608.752186426087,0.0915069726663913,-0.08800427809289131,0.05393753881004348
1218,609.2497400466666,0.07824466985593334,-0.023219574821222222,0.08140148585955556
1219,609.7472935826087,-0.011683026087717386,-0.10574004960402174,-0.17313987276956522
1220,610.2503146304348,-0.1709188885404565,0.03695547062419565,-0.19534226086739132
1221,610.7533355804347,0.12160170581260869,-0.029261060384630437,-0.13814851510869564
1222,611.2508888355555,-0.04038718972088889,0.4354619556053333,-0.23964859647175554
1223,611.748441997826,-0.12501142983591304,0.9204211235086958,-0.7634319430152174
1224,612.2514626891304,-0.014530939086717395,0.8334253870652174,-0.5811575184719565
1225,612.7490156822222,-0.025768883359555562,0.4560436672577778,-0.3754613240668889
1226,613.246568602174,0.013964995416847828,0.36050669005919567,-0.19056232077705867
1227,613.7495890543478,0.009682688697478263,0.3062407659471739,-0.3585658695480435
1228,614.2526094108696,0.02470330958715217,0.2121168530495652,-0.0918915893797826
1229,614.75016204,-0.01618106566266667,0.0817473305564,-0.16041118834022222
1230,615.2477145695652,-0.015513037212456521,0.08204080747536956,-0.0863262777823913
1231,615.7507345782608,-0.02405384960082609,0.09232736670471739,-0.11544807061728261
1232,616.2537544869565,-0.007287754960130436,0.051999558572354346,-0.06844275930891305
1233,616.7513066533334,-0.022760184606266668,0.032801183064,-0.06104195912515555
1234,617.2488586913043,-0.013735917593913046,0.00496581326273913,0.05677220095391304
1235,617.7518782413043,0.01978741327106522,-0.0008421151506739113,-0.0061321362243478275
1236,618.2494300777778,-0.06356547474577777,0.019016594351177783,-0.204540475204
1237,618.7469818152174,-0.013125487641956523,0.03219360890982609,0.03555073945043478
1238,619.2500010717391,0.13858135651586956,0.028629323709067393,0.0395670559141087
1239,619.7530202195652,-0.17526666496891302,-0.12250457638306521,-0.01899603137956521
1240,620.2505716933333,0.006809056471133332,0.006792651282200001,-0.017620182035711116
1241,620.7481230739131,-0.011928392167152174,0.033617921500293475,-0.02331392661597826
1242,621.2511419630434,-0.045299599030552175,0.2557483134056522,-0.19760916543469567
1243,621.7486931711111,-0.053344841634799994,0.26391892962888885,-0.17212821112315554
1244,622.2462442891305,-0.07612494152523913,0.41585654798043475,-0.2607549791826087
1245,622.7492629173913,-0.05419641984276739,0.22720859361369566,-0.1702446626573913
1246,623.2522814543478,-0.009900713275086955,0.11450445133478261,-0.100754737875
1247,623.7498323444445,-0.0033029085660199993,0.03884422514291111,0.001367770299444442
1248,624.2473831521739,-0.052665355087521744,0.04627000767023914,0.00281972470476087
1249,624.7504014978261,0.0020095167469782603,0.010455442505217388,-0.03920346758306521
1250,625.2534197913044,0.09800195643482827,0.00039467604340869835,0.006476547414130438
1251,625.7509704644444,0.032463750428599995,-0.06744356155388889,-0.03479088677422222
1252,626.2485211304347,0.05880949559397826,-0.16405555476473913,0.23545907892086956
1253,626.7515393499999,0.039975302173717385,-0.1818007075254348,0.13032337894173912
1254,627.2490899866667,0.06534782151666667,-0.20756049685888886,0.16164315541582222
1255,627.7466406456522,0.10557905892893697,-0.31124096331652173,0.22567911770826085
1256,628.2496589304347,0.12518865881456523,-0.34727354672282607,0.20599858657304349
1257,628.752677297826,0.03199802180897392,-0.24076678442195654,0.11090927538679783
1258,629.2502281222222,0.012908614261933331,0.06773951848288888,-0.04009659025706667
1259,629.7477790152174,-0.06024289770484782,0.3406609867002174,-0.20324817947786955
1260,630.2507975543479,-0.18302236934682609,0.2942294452452174,-0.16204672274302173
1261,630.7538161565217,0.03779803410863043,0.06866604348545652,-0.10292422253095652
1262,631.2513672066666,-0.12614824010842668,0.012278864116511112,-0.003924539354664445
1263,631.74891845,0.10918560688521739,-0.023055926614108692,0.030620626777086962
1264,632.2519370326087,0.036427300584978256,-0.044611941215239134,0.1124580528608261
1265,632.7494881822222,0.019510573149644436,-0.17655976612911112,0.05933740404688889
1266,633.2470393521739,0.19661124374297825,-0.02934786547654348,0.08251900258304348
1267,633.7500581456522,-0.11319396288813044,-0.23958981555,0.06856553451080652
1268,634.2530769586957,0.24571609821108698,-0.289846555041087,0.1998337144402174
1269,634.7506282111111,-0.046616354256088885,-0.1668568823126,0.060947714912999995
1270,635.2481794717391,0.06205884658413043,-0.12249859519604347,0.03157879995086956
1271,635.7511983434782,0.08787260366665217,-0.2932345452556522,0.3125667364697826
1272,636.2487496355556,-0.03485511607577778,-0.26729601754688886,0.12949259017
1273,636.7463009217391,0.15468206483108696,-0.1457130494301739,0.11346906163902175
1274,637.2493198195652,-0.25869595351382607,0.032342366546304346,-0.1136118225452174
1275,637.7523387195653,0.1424812758530435,0.4424012329182609,-0.31874509478776086
1276,638.2498900066666,-0.0014228791875555485,0.5229486200422222,-0.5244069099377778
1277,638.7474412782609,-0.17499595946304347,0.5220571290001521,-0.18377576702
1278,639.2504601282609,0.21757175783000002,0.5771279697747825,-0.33966963186869564
1279,639.7534789456522,-0.2748170050443478,0.6783190395586957,-0.29318009249413046
1280,640.2510301266667,-0.10558775597577777,0.7834918764022222,-0.4882699224586667
1281,640.7485812891304,0.008931325180326088,0.7320805166173913,-0.47676605764543484
1282,641.2516000130435,-0.08181477921313043,0.2596363451152174,-0.07724268539397826
1283,641.7491511155555,0.10099115893897334,-0.051311514111333334,0.05177436404657778
1284,642.2467021565217,-0.01881068718176087,-0.08468081639567392,0.0011450207716521747
1285,642.7497207173913,0.2381235024347826,-0.38784002219169567,0.1607794969007174
1286,643.2527392152174,0.006452441221304344,-0.22828132173004348,0.0982163159986739
1287,643.7502900755555,0.10362611615928888,-0.4208155102158244,0.02546211877
1288,644.2478408673913,0.1819117140521739,-0.4396580457703044,0.3838583697493674
1289,644.7508591913044,0.025722120684478256,-0.22700906318152175,0.08505025118195653
1290,645.2538774369565,0.20224092770943478,-0.4135142668369565,0.09065271460847826
1291,645.7514280266666,0.06969871744275556,-0.1978547255148889,0.13618274265622224
1292,646.2489785391305,-0.03495733763456522,-0.08102054180652174,-0.01500861541237391
1293,646.7519965739131,0.16426822206673913,-0.28563403046717395,0.17375462985847825
1294,647.2495469666667,0.09810690639208888,-0.2314797401431111,0.0655793507726889
1295,647.7470972869565,-0.07320222744802174,-0.09221215352093479,-0.03390205424586957
1296,648.2501151434783,-0.004299257441695656,0.0671842668357826,-0.12147849536934782
1297,648.753132923913,0.01033890667847826,0.08076314303897826,-0.060461355297608696
1298,649.25068306,-0.07606871127948221,0.0210208574918,-0.029158041213177777
1299,649.7482331130435,-0.04713810931217391,0.18841584868873915,-0.12266007714369564
1300,650.2512506717392,-0.0707295190395,0.20239052565078258,-0.09824294629765218
1301,650.74880058,-0.017845400006168893,0.10695017179124444,-0.08373993767584445
1302,651.2463504086957,-0.02921106375097826,0.050643651385,-0.034931276160717395
1303,651.7493677478261,-0.02014678424804348,0.04653186901728043,-0.08616062868652173
1304,652.2523850021739,0.043274891112826085,-0.03497283873880435,0.015886078685
1305,652.7499346133334,-0.012739819289399998,0.019034602903266667,-0.08424896663942223
1306,653.2474841521739,0.002952289360110868,0.0229766524385,-0.009814739230260872
1307,653.750501202174,0.05429191263792174,0.03104305785823913,0.015580177306934782
1308,654.2535181891304,-0.039960776010869566,-0.09843694127543479,0.013517690739347827
1309,654.7510675466666,0.010526754457555555,-0.004715792333135554,0.0603761884884889
1310,655.2486168391305,-0.039457835095043484,0.2574899559391522,-0.1762164779407174
1311,655.7516336565218,-0.06316109974104565,0.2243338978828913,-0.06153563831758695
1312,656.2491828466667,-0.011614654135333335,0.08262899186988888,-0.19328006109746668
1313,656.7467319826087,-0.026159567673278258,0.0984836868649837,-0.09661229796854348
1314,657.2497486434783,-0.008036281104695652,0.05700801766743479,-0.007565664216478268
1315,657.7527652391304,0.0034607843247826072,0.016146411065304348,0.04802468547443479
1316,658.2503142155556,-0.03227706949242222,0.012869220305822222,-0.042666551799111115
1317,658.7478631326087,0.020378870802608695,0.007171661958282612,0.0014918990730434748
1318,659.2508795673913,-0.06670758938041303,0.010599063789743476,-0.041980453181521736
1319,659.7538959434783,-0.03607515731847826,0.0038165942468478247,-0.06564709414726087
1320,660.2514447022222,0.013347490502799994,0.002461380428686666,0.04479184680929333
1321,660.7489934108696,-0.006822658542108695,-0.00014234625464782549,0.03183948475539131
1322,661.252009626087,-0.015452942771434785,-0.005334138869434784,-0.047841735509
1323,661.7495582377777,0.0010781408960000008,-0.009067196319437778,0.026863394856733332
1324,662.247106776087,0.011974578643217394,-0.010746556784739132,0.03137964789391305
1325,662.7501228260869,-0.009402763260608692,0.008377313610673913,-0.044215305995739126
1326,663.2531388108695,0.019694716136956524,0.0004921477703065234,-0.06130725403379131
1327,663.7506871977778,0.05556886394422222,0.019446913399904446,-0.06116832097088889
1328,664.2482355956522,-0.01383928177793478,-0.00019140865606521705,0.07611330695434783
1329,664.7512513739131,0.011957221710926084,0.015427185144434783,-0.08283631696456523
1330,665.2487996644445,0.01253239711111111,0.004675086340524445,0.040608660384533334
1331,665.7463479782609,0.10164818718269564,-0.03485153550828261,0.020773369331739126
1332,666.2493638695652,-0.15886714536304347,0.04267331827934783,-0.2031699781938261
1333,666.7523797695652,-0.10580605397586958,0.030104087745952177,-0.06346885017584782
1334,667.2499281177777,-0.024633120168473334,0.02382471826408889,-0.02656101650323778
1335,667.7474764717391,-0.015708148991565217,0.005690756050891304,-0.011951031889756523
1336,668.2504924065217,-0.0011058288578413048,-0.003856949183978261,0.009649919427856521
1337,668.7535083347826,0.012945209833695655,0.0051547185248195645,-0.024349108986819572
1338,669.2510567,0.0099588160716,-0.00935925377804,0.0178363164246
1339,669.7486050630434,-0.015039662301347826,-0.0075353332213913046,-0.005394313644282608
1340,670.2516209956522,0.09719543449869565,-0.10901079489,-0.043029100996239134
1341,670.7491693511112,-0.17773378689888888,0.06371181275977779,-0.18927738401888888
1342,671.2467177130435,0.027781303482282606,-0.04736252453141305,-0.08973294755815217
1343,671.7497336456522,-0.008858613992776087,-0.00823729971226087,-0.07030292179023913
1344,672.2527495891304,0.06665373624815217,-0.02904965566245652,0.0804420139403913
1345,672.7502979755556,-0.08792236646979999,-0.0052732043788444455,-0.2739223374311111
1346,673.2478463717391,-0.0228728237395,0.005697343655652172,-0.044684347902807835
1347,673.7508623499999,-0.038427102175695435,-0.007323462030478261,-0.04802285069877826
1348,674.2538783630434,0.04082690583250001,0.0008760327883913033,0.01927587259445652
1349,674.7514268066667,0.0009801679205111114,-0.012742498184964446,0.023741383016422226
1350,675.2489752391305,-0.06244836033573913,0.2814186034005,-0.17084704272102175
1351,675.7519912608695,-0.1390007168978261,0.7408010026913044,-0.2983402791297826
1352,676.2495397111112,-0.07711615595066666,0.6060181141133334,-0.15439285701844443
1353,676.7470881347826,-0.04295390909217391,0.36885327877934787,-0.15845761091140653
1354,677.2501041282609,-0.02184204044854348,0.05377848251595652,-0.02809771247434783
1355,677.7531201086956,-0.014371955523934781,0.016293131789347826,-0.00912942057038478
1356,678.2506685044444,0.016141311325022223,-0.20991576512155558,0.113777224227
1357,678.7482168717391,0.03566458756173913,-0.3559539214391304,0.14295575930282609
1358,679.2512327891304,0.009994158277391304,-0.3731217902634783,0.185544781066087
1359,679.7487811244445,0.012691888541555556,0.046271271180000004,-0.10052299499182223
1360,680.2463294369566,-0.17296178444615218,0.4661126655086956,-0.2609633051867391
1361,680.7493452913044,-0.08767803078445653,0.4339594944608695,-0.20390272140739132
1362,681.2523611521739,-0.0365224973016087,0.16024487951165217,-0.017848356907391304
1363,681.749909448889,-0.032190304330977776,0.03222926457873333,-0.03685775332734
1364,682.2474577652174,0.026733670543695652,-0.1674453693847826,0.05183563025008696
1365,682.7504736565218,0.031469428018891306,-0.14498405871976086,0.07371611180434783
1366,683.2534895608695,0.09452996564371738,-0.05088287332426087,0.0539515018423913
1367,683.7510379177778,0.290541028986,-0.17816571130055556,0.14254878362022222
1368,684.2485862826087,0.1562803413613261,-0.1565326918755652,0.018061409819304347
1369,684.7516022086957,0.03131298656070217,-0.2916396441695652,0.056910991672060436
1370,685.2491505666667,0.15136186679742888,-0.2434008439333333,0.1718725204562
1371,685.7466989326088,-0.030026225941108695,-0.1536129039278261,0.09684757563978261
1372,686.2497148586957,-0.037456250710369565,-0.07524083489926739,0.11379067794541303
1373,686.7527307782609,0.10581300569236957,-0.05535932209530434,-0.10147248143858696
1374,687.2502791422222,-0.08179162608355556,0.007025803461111112,0.09508317312033111
1375,687.7478275108696,-0.08348797196484782,-0.0012097151366304354,0.09119736629891304
1376,688.2508434217391,0.20821088034221957,-0.10578974433534782,-0.04945719760169565
1377,688.7538593326087,-0.05805919740802174,-0.18650632319347824,0.10623463340421739
1378,689.2514076799999,0.029317141905177778,-0.14404610527755554,0.05494196148911111
1379,689.7489560304348,0.017280872748043477,-0.2752395246293478,0.1350295647173913
1380,690.2519719369566,0.05044129231572174,-0.26508154558169567,0.10150179654973913
1381,690.7495202888889,0.03085378673636222,-0.17046593559415557,0.10820545620368889
1382,691.247068647826,0.03012414600376087,-0.2102668959143478,0.050802438154521734
1383,691.7500845695653,0.03786200155308696,-0.10930446956460871,0.04362873408826087
1384,692.2531005021739,0.0034973582461521736,-0.09035659872806305,0.05323322959490434
1385,692.750648871111,0.024666519958222218,-0.05466045273812667,0.03669723934474667
1386,693.2481972347825,-0.028008422779956525,-0.01186014776921739,0.015873494353173916
1387,693.7512131804348,0.07674556323071739,-0.045693985790065214,-0.003231649825391303
1388,694.2487615888889,-0.13217256665157778,0.02475081814642222,0.019885720139431115
1389,694.7463100108696,0.11447035618936956,0.351630203105,-0.061698778810869555
1390,695.2493259804348,0.13326177518395652,0.6907094536111087,-0.14941047585413045
1391,695.7523419630435,-0.013061111387419565,0.7209280729326086,-0.460294215569
1392,696.2498903888888,0.03539614015286667,0.45452573034555555,-0.17670095231444446
1393,696.7474388326087,0.002212404554565216,0.21780179375847392,-0.1194901466351739
1394,697.2504548456521,0.013157811501304345,0.10546174256350217,-0.09763637833176088
1395,697.7534708760869,-0.011516997986521739,0.07769048732526086,-0.08938232712258697
1396,698.2510193688888,0.04778605765506667,0.08730596966402222,0.029596583048666667
1397,698.7485678717392,0.027744930723545655,0.05035449628952174,-0.01476397720449783
1398,699.2515839695652,0.020488337331847826,0.01258530305574348,-0.03344328507476087
1399,699.7491325155555,-0.0046754890016666665,0.046969069373488895,-0.034940761994422226
1400,700.2466810913044,0.012076616284608698,-0.01603493482678261,0.032245138418739126
1401,700.7496972630435,-0.012720561547391304,0.012473966763891304,0.012618852695608695
1402,701.2527134760869,0.03358799802693479,-0.040635290356108696,-0.03060631130021739
1403,701.7502621533333,0.008599448203533333,-0.01905024846311778,0.07243802812988889
1404,702.2478108673913,-0.06414934344941305,0.048168223833108696,-0.2026397974580652
1405,702.7508271826086,0.006483189442371739,0.03103329306075,0.023239550391739132
1406,703.2538435413044,0.0700161768045,0.03754075195906522,-0.06103339403956521
1407,703.75139238,-0.19383286106137557,-0.19293946690711114,-0.3560029559851111
1408,704.2489412565217,-0.08502937399802174,0.0936391923885,-0.11432949355495653
1409,704.7519577543478,-0.3357360088921739,-0.20985347811891303,-0.3430074401593478
1410,705.2495067244444,0.029742889025755555,-0.014190742704311112,0.02623683080862222
1411,705.7470557586956,-0.04739489633076086,0.024626441626534785,-0.08612278233241305
1412,706.2500724130434,-0.024046020664999997,-0.004811618638391305,-0.05420628838076087
1413,706.7530890869565,-0.015813631208247827,0.0011707026034608694,-0.030830051586391304
1414,707.2506382511111,-0.003798015250446,0.0037009345158944447,-0.006445715162866668
1415,707.7481874347826,0.0047613304587673915,-0.010479973709919566,0.0013657445482608687
1416,708.2512042304348,-0.0015443699522391303,0.009240083072195652,-0.009377811271645652
1417,708.7487534777778,-0.0046020130322711105,-0.0051804118687537775,0.0043835533998
1418,709.2463027478261,-0.0018515042616521736,0.002153189285158696,-0.024431415229419568
1419,709.7493195804348,0.00559911391031087,0.0010583556208978264,0.02212818809176087
1420,710.2523364369565,0.0031985627570782606,-0.0011131348816152175,0.0003291834951847827
1421,710.7498857244444,-0.0003826141359115556,0.0007838673064000001,0.004346466064606667
1422,711.2474349869565,0.0036531583124154348,-0.00043893378729326104,-0.0009497352270434784
1423,711.7504518391305,0.001987654230396304,-0.0009227317301595654,-0.0025275479195130436
1424,712.2534686543478,0.0016671794914130437,0.0002725435338956523,-0.0012189201686108693
1425,712.7510178911111,-0.002667639652711111,-0.003962601555887333,0.0005828433570000001
1426,713.2485671152173,-0.0004377708485993477,0.002422845882021739,0.006049404973217392
1427,713.7515838804349,0.002197155485545652,-0.0026823904206934785,-0.002768993377956522
1428,714.2491330488889,0.0035824663107584444,-0.000443447960422222,-0.0027937995094666664
1429,714.7466821913043,-0.0002036418601760872,0.0010268325390565222,-0.0007079165933695648
1430,715.249698873913,-0.010927456875195652,0.011369985082006522,0.001385211943
1431,715.752715523913,0.019361990100239132,-0.04848514432358478,0.016572807150449346
1432,716.2502645577778,-0.03292356579375555,0.022977760100911113,0.11225376127116889
1433,716.747813573913,-0.018460363142239134,0.05800680492130435,-0.19541984020169564
1434,717.2508301043479,-0.025760712504978266,0.04267349969060869,0.11567045294911305
1435,717.7538466043478,-0.07620293889608695,0.15835428238280436,-0.28134647661782614
1436,718.2513955,-0.08417092529115333,0.5666189087622222,-0.2797291437757778
1437,718.7489443565217,-0.09404165590164999,0.8177918143891304,-0.5885229007058695
1438,719.2519607413043,-0.12275794894391304,0.7790789500304348,-0.5314018519072239
1439,719.7495095222222,-0.013013323812284441,0.44041064580666667,-0.3334692848804
1440,720.2470582739131,-0.005958264285826088,0.4227322599108696,-0.1714047245404348
1441,720.75007455,-0.04084584699878043,0.2850711967635,-0.2083753502702174
1442,721.2530907956522,0.04271509465802174,-0.04846998919421739,-0.0012596171808695632
1443,721.7506396466666,-0.04325505494666667,0.16566883722644446,-0.11508510377777778
1444,722.2481883695651,-0.022067110173152178,0.17548760124086957,-0.12473217300413043
1445,722.7512044934782,0.004544715521347827,-0.05922802635021739,0.017902540127826088
1446,723.2487530066667,0.016031832167644443,-0.17121023602064445,0.0969591352726111
1447,723.7463014891304,-0.030192680974630435,0.07086770430556522,-0.017386612692456525
1448,724.2493175173913,0.025464017756182605,-0.019469966062852177,0.028560866486326088
1449,724.7523335000001,-0.046852021108934785,-0.26219455055630436,0.10169374424286957
1450,725.2498819111112,0.11157664192415556,-0.396004719206,0.17184596591999998
1451,725.7474303173913,0.05467323504693478,-0.32419165839021735,0.16031885147108696
1452,726.2504462782608,0.03578892090821739,0.03250841472626087,0.0010427599356521778
1453,726.7534622173913,0.06550977703008697,0.02490011506176087,-0.021502432613586957
1454,727.2510105733334,0.09873468245586668,-0.12052135466917778,0.08821820152966667
1455,727.748558926087,0.020101949568673914,-0.13234027572347826,0.09809185111458696
