Time (s),Linear Accelerometer_X,Linear Accelerometer_Y,Linear Accelerometer_Z
10.24529063,-0.5613961834784389,0.26668642789305835,0.24743370390323183
10.74529063,0.15808810411004823,-0.22159214809745126,-0.140169230498891
11.24529063,-0.2572211692789794,0.4267352330435574,0.26079893404434434
11.74529063,0.7028050496389561,-1.0907623936406956,-1.1324881721136482
12.24529063,-0.050096025580141666,-0.0099448903556792,-0.2741872587038604
12.74529063,-0.5962425287346603,-0.5195925506718521,-0.03740016218914891
13.24529063,0.09276664193590473,0.11171645151025304,-0.06976176975179608
13.74529063,0.354714827165916,-0.6461244207563678,0.6918950576527396
14.24529063,0.758239229527316,-0.3138158660738477,-0.3842733023796563
14.74529063,0.26665659686088383,-0.09604317361818197,0.9474587491934007
15.24529063,0.875999256384786,-0.2800165631320251,-0.1177919430855855
15.74529063,-0.41666209957105677,0.3158414060064347,0.4825648283095129
16.24529063,-0.088772312595754,-0.3282964700708607,0.22308273265345163
16.74529063,-0.49642352044948546,0.47896803119376763,-0.16644963440644517
17.24529063,0.3268623151625939,-0.9260851354005771,-0.541390907063191
17.74529063,0.3452305786756499,0.32124107799323076,-0.09505571560334726
18.24529063,0.11596458875269032,-0.5174706049571396,-0.562009147032974
18.74529063,-0.01816287174549891,-0.11596793605384736,-0.08293398289471687
19.24529063,0.33015820267197044,-0.23750790841337405,0.46823323480777695
19.74529063,0.15613657526332342,-0.17908651106548784,-0.2594207554138946
20.24529063,-0.28911978069759947,0.08822295925326713,0.8816620925633503
20.74529063,0.5571772651924181,-0.39254965953491805,0.1944477306897552
21.243724068888888,-1.3395406001260166,0.29993966858008847,0.2517428043282149
21.75029063,1.3766336731268825,-1.0063539812034814,0.005543960788484062
22.25029063,-0.6512450690175148,0.24343293844334404,0.3904805772261418
22.75029063,1.0760259377605612,-0.7900445048512265,-0.4755586205521711
23.25029063,-1.091684465741798,0.11474900881076526,0.5903411321018202
23.75029063,0.6862672338138636,-0.6420201840655967,-0.8903643456560207
24.25029063,-0.027392273050348036,0.044417350069658974,-0.1140365611339182
24.75029063,-0.15956958933907103,-0.771440142307165,-0.04669244106358875
25.25029063,0.5383267164108385,-0.31693040211537993,-0.17573998621871895
25.75029063,-1.3040894763687938,-0.5252672990751202,0.4507574963742482
26.25029063,0.584249001162882,-0.5493878654811448,-0.08130732141567393
26.75029063,-0.02041437627892586,-0.07973804623762015,0.698937241985854
27.25029063,0.2550725668894809,0.09980391957160357,0.12352790467855751
27.75029063,-0.09631725322031283,0.10304875203941626,-0.8775847435875518
28.25029063,0.046213547275340876,-0.3447783910202316,0.18322820371842222
28.75029063,-0.5568622024237789,-0.776254362977114,-0.13740205468077918
29.25029063,-0.3240239166337667,-1.3084211657242368,0.3999171167563354
29.75029063,0.13685523834537644,0.09977762973528562,0.07098759295512075
30.25029063,-0.6100019131785891,-0.2709503461918931,-0.09956205670117692
30.75029063,0.03624777806977793,0.15142332434136593,0.34978186237111103
31.25029063,0.8693171259488944,0.2630324816836725,-0.20689973826304953
31.75029063,0.17508352520754428,0.2742799650352227,-0.097129649845357
32.25029063,0.050090090238039446,0.4050705834242681,0.06630757690519586
32.75029063,-0.43484222687069773,-0.26338324050045153,0.07524445413243386
33.25029063,-0.33040324878115074,-0.16419482685618303,0.046295070729184734
33.75029063,-0.04828271812484469,0.013741083919832621,-0.04183870248264677
34.25029063,0.06369914716157124,0.08832321133468765,-0.01950254034836555
34.75029063,-0.019242730028172724,0.002679786736261309,0.033324381452072525
35.25029063,2.6795565372667584e-05,0.013582691586554585,0.05450755879543594
35.75029063,-0.07874365420812185,0.04225422218377834,-0.0009197902837425619
36.25029063,0.03328194826019711,0.02096850688791322,0.0024647533309701025
36.75029063,0.008503404153156528,-0.012060887611119791,0.036638100938954546
37.25029063,0.038439895893365134,-0.027365259132147938,-0.0364226146126172
37.75029063,-0.04243343522032417,0.020300330189516685,-0.022295719284989947
38.25029063,0.15566061642269338,0.38156668655139014,0.08487645197583374
38.75029063,-0.2602619521067109,0.6929413321242854,-0.5012974365888461
39.25029063,-0.41589470619491126,-0.15923399987039477,0.3737819251467945
39.75029063,-0.3607650155726914,0.10705031989825614,0.47204072027084637
40.25029063,0.158510195660094,-0.3935827422503161,0.11002698608180243
40.750290645999996,-0.08017464782507736,0.00981224802739499,0.22665876832644144
41.25029071,0.1035933285340829,-0.05539298409916148,-0.41392718045743365
41.75029071,0.07992698827976069,-0.3507640978551926,-0.1098991248640647
42.25029071,0.056969094913898656,-0.5267822422927743,-0.027706369135188362
42.75029071,-0.23599328298996125,-0.3063547419175269,-0.32920216656029166
43.25029071,-0.03351952994408926,-0.42987550792179613,0.19475358982820543
43.75029071,0.146054910674713,-0.462693178021258,-0.21409092556222084
44.25029071,0.21054035511786,-0.2313980997327959,0.33000858719649934
44.75029071,-0.05199461735236181,-0.2182122351374773,0.14769015855189754
45.25029071,-0.4021169261613139,-0.08526495261431222,0.2979521412139683
45.75029071,0.021663140515570074,0.30552386578764495,0.6764125267238004
46.25029071,-0.32379202425482406,0.1355963323766856,-0.6423309863154852
46.75029071,-0.12525173074216858,-0.1802769225005349,-0.11425034756834673
47.25029071,0.2301272950333165,-0.32507426341398443,-0.468399355157168
47.75029071,0.24357080631590441,-0.25180243715150447,0.06659208257180196
48.25029071,-0.1693441644121101,-0.15949355333898235,-0.35295873054734206
48.75029071,-0.00473959948922654,-0.3190377309878258,0.16612762731896102
49.25029071,0.18733501988180573,-0.25246364474188154,-0.012276287156500153
49.75029071,-0.1749215375384613,-0.055400939596332535,0.47905355334365973
50.25029071,0.5505471658602495,-0.22448757018992666,0.04671011748608287
50.74390750489361,-0.3533181817363052,0.04938050487144765,0.41490182780786666
51.26336034574468,-0.29354938917995593,0.19711257570440816,0.254349497181667
51.75029071,-0.395304191803881,-0.12881590428754006,-0.7022293181804926
52.25029071,-0.0961059807746045,-0.07426434263129147,-0.10520455994519454
52.75029071,-0.15687456314887696,-0.28337638769250456,-0.21577379854000023
53.25029071,0.02118949964335723,-0.12687364204159293,0.18323735311824904
53.75029071,0.4241456328538111,-0.39777779953026,-0.5431478646000614
54.25029071,-0.11599724985230196,-0.2994759705995903,0.5571960053194338
54.75029071,-0.3172781259462382,-0.07084989866948856,-0.1346668242919726
55.25029071,-0.7308170242849799,-0.157178787541785,0.47794239726604004
55.75029071,0.35024271924173656,-0.01921446391793449,0.006027636506526228
56.25029071,-0.23644030362060448,0.19960035969188766,0.2802975039540433
56.75029071,0.27422311664171295,0.16252850723507564,-0.3375428280923189
57.25029071,-0.09076877928426655,-0.500649103203406,0.05318155970177332
57.75029071,-0.32444519553119383,-0.33763736164432123,-0.09227356923114663
58.25029071,-0.3409080226555068,-0.2003437605914891,-0.6191637357652467
58.75029071,0.054178745449957114,-0.14424035119190648,0.33538074514603133
59.25029071,0.12730455997857837,-0.07081253356403984,0.20044415344718725
59.75029071,-0.003941520379571291,0.058184963310033956,0.5304665041806872
60.24683834163266,0.3173465843547363,0.3622509372982494,-0.3895639333394138
60.75614984466666,-0.20253731367094063,0.04699352403999853,0.3699795813828312
61.24529071,0.009234977149184522,-0.14814113789887645,-0.3140794361181136
61.74529071,0.3409166597363813,-0.35652205089638406,-0.39737907503157494
62.24529071,-0.044853540260901416,-0.26795141201973,-0.08868705103250787
62.74529071,0.08359420011612523,-0.21196106527091957,-0.00032317185347239706
63.24529071,-0.370422479861356,-0.08745043272941519,0.2622059067053708
63.74529071,0.0795981523709743,-0.15644648740127018,-0.07228415665295694
64.24529071,-0.19638709417322572,0.03252687461239026,0.9964797629861986
64.74529071,0.6983497082651065,0.1882284858926871,-0.4688622056222623
65.24529071,0.09394113403242044,-0.23765300310781484,-0.5415670221408826
65.74529071,-0.014863925449883113,0.04079251188220749,0.21190734797379737
66.24529071,-0.2417278101866736,-0.13060897698767424,-0.4133439682416503
66.74529071,0.04450923935874802,-0.4527890680625824,-0.2868906413565661
67.24529071,0.2573949092263733,-0.28711979863691217,0.2680321237141951
67.74529071,-0.36324037619101696,-0.022347419249961822,0.48721968639425906
68.24529071,0.3026274354839596,0.19094362426084946,0.4691150927177533
68.74529071,-0.19618578253938268,0.2579776553123336,-0.6985274007223927
69.24529071,-0.0873357630506027,-0.10732072288484087,-0.3766812112847089
69.74529071,0.05690713809144371,-0.2094769645345441,-0.1416390351472088
70.24529071,-0.24458720051942348,-0.05247304055655084,-0.1634325352608496
70.74529071,0.37059786351255675,-0.4206554631571807,0.18853223926422052
71.24529071,-0.33920639998769936,0.02534222230025539,0.44114886024716926
71.74529071,0.5703745515793285,0.01826105424569193,0.3423012742153466
72.24529071,-0.23328144658462788,0.16382052484522347,0.2944560727276655
72.74529071,-0.4072952457553879,0.23779239005409408,-0.49025102133260917
73.24529071,0.218992985301635,-0.30827329601147274,-0.28526708836328063
73.74529071,0.0930112919707447,-0.3702056615000295,-0.23086567683546755
74.24529071,-0.08486781151542389,0.022918113478929743,0.22466568786936875
74.74529071,-0.0432113689641003,0.142779235541078,0.6926546221866812
75.24529071,0.7500142322234612,-0.17311912854233266,-0.2728395937976171
75.74529071,-0.1141126937755007,0.047165125235050544,0.34102980993667187
76.24529071,-0.3406557204548398,0.30386177464318487,-0.24528049391452444
76.74529071,-0.3239904799252715,-0.20711973469412018,-0.6080002476987114
77.24529071,-0.15500912654083618,-0.12905458976537748,-0.21737656796188248
77.74529071,0.32150355711971473,-0.3802242829747231,0.37146064194215206
78.24529071,-0.42010579433487477,-0.08820817391286381,0.02578486757300186
78.74529071,0.01856423412030823,0.11885523948046411,0.2194958762776479
79.24529071,-0.09893100974946148,0.2433274534915959,0.8385661334069792
79.74529071,0.2681736911106509,0.2262806815361985,-0.7756106198901458
80.24529071,-0.12258172183613947,-0.14780666246269825,-0.26180329365036026
80.74529071,0.13447801420315794,-0.2178806226568557,-0.1943841561000224
81.24529071,-0.03844079779837919,-0.07561928432096685,-0.3387706647992756
81.74529071,-0.16527315700078116,-0.37568166542726844,0.16079544341797225
82.24529071,0.12702280825755818,-0.17176654931042198,0.3742257745360454
82.74529071,-0.4035301186398575,0.0925917129642925,0.6195672839390919
83.24529071,0.4491504972399401,0.052758521611022374,-0.15128772203050436
83.74529071,-0.2837221426683369,-0.10249441968862344,0.3597377188844773
84.24529071,-0.32831349447012864,0.2837344785434199,-0.6765250526596763
84.74529071,0.14542214248547805,-0.11866861035874951,-0.5979912785620869
85.24529071,0.039508481209143236,-0.3129425561859262,0.225902116341406
85.74529071,0.15501467620955478,-0.04177075875921222,-0.5973652270977279
86.24529071,0.164998526809305,-0.22844055442489394,0.46217484615895343
86.74529071,0.15679214355576007,-0.3707114882368952,0.04354626711445471
87.24529071,-0.510892127094579,0.17157371545795613,0.6079205369966583
87.74529071,0.7818189686802878,-0.3618124381304838,0.006476691362854173
88.24529071,-0.2019501837802165,0.2293284143676835,0.8083034078340603
88.74529071,-0.03674121464556609,0.3221539886016121,-0.8763843203481514
89.24529071,0.3545898628832148,-0.21977656544690027,-0.08963530453419083
89.74529071,-0.6483504232033428,0.04159971756759591,-0.11136399082140719
90.24529071,-0.06752784057351095,-0.295359630618131,-0.5001103980146271
90.74529071,0.5768600303195139,-0.3417980043110245,0.6146498285276298
91.23420022955555,0.06808922587064035,0.10275483009603081,0.23903539944827973
91.75029071,-0.19162874575228603,-0.015191733008779256,0.17574152486542757
92.25029071,0.5089518853985326,0.060447054360043107,0.7326929096004166
92.75029071,-0.10241931306500876,0.4795934229662216,-0.5994266408217495
93.245126636875,0.2726172662822531,-0.11729456520777248,-0.6623826030529881
93.75781678108696,0.07218446402548132,-0.19734392910442652,-0.13402529814880784
94.24529071,0.08217474893886173,-0.3299988253623552,-0.1250956577805258
94.74529071,-0.020806418421463996,-0.1187416685724869,-0.09739505099193646
95.24529071,0.29182777702114837,-0.14384857595694564,0.29365312355244355
95.74529071,-0.2141075100733542,0.0898518202226808,0.34431261832923554
96.24529071,-0.29012404729320934,0.10901692442372482,0.7214721151533263
96.74529071,0.0632563683167525,0.44459180554393457,-0.9594185323135679
97.24529071,-0.26371605696410816,-0.20244944860212005,-0.32784100441801706
97.74529071,0.6795632856920286,-0.13240238251302647,0.19532667127416847
98.24529071,0.05121651225939976,-0.36242548621243337,-0.44156042546031976
98.74529071,0.4532912796885543,-0.15024094049712108,0.01223131060737276
99.24529071,0.660594962796945,0.05402892520896619,0.06627005186911009
99.74529071,0.6178239046025042,-0.26934746291816447,0.17586678853285062
100.2452907,-0.040269577628064754,-0.430379306194577,0.5659690756054946
100.74529093400001,-0.762673484283371,-0.1641593967654325,0.15711519815561417
101.245292,0.2486164760680287,-0.22551674719088322,0.12089909485714251
101.745292,-0.3112713779035874,-0.2667436867174055,0.4975078347636449
102.245292,0.49326058448708565,0.16120400856250203,-0.05266159080621458
102.745292,-0.1462994056652892,0.15299394230344784,-0.3500127904463547
103.245292,-0.004720296029000264,-0.08718700130860026,0.026409955486497907
103.745292,-0.0987818071890797,-0.3887071732843483,-0.5147259808248441
104.245292,-0.2152908012848827,-0.18026133705349945,-0.2494072183933731
104.745292,-0.018171729034662253,-0.2693680335763078,-0.18922577661237625
105.245292,0.042290383840948985,-0.09981706097465674,0.2509388411924308
105.745292,-0.13648843257749657,-0.15857789895306465,0.2269674952735999
106.245292,-0.4964695949871993,-0.09412616560260352,0.5025462440154002
106.745292,0.5525388390376705,-0.06024339267903534,0.10062519255263108
107.245292,-0.43391721238091735,0.2002941393924996,0.3038252318926626
107.745292,0.3853333539916639,0.15516715499832642,-0.3762319093887272
108.245292,-0.09736378508104536,-0.2657575284802124,-0.38089400505828097
108.745292,-0.2425726018172135,-0.30612860296963523,-0.2614523626233181
109.245292,0.01954027624406386,-0.3473633196268948,-0.24148795074361917
109.75220409777778,0.035365267688412354,-0.24839226912614593,0.22668348176935368
110.250292,0.06212886986008189,-0.16036799324258624,0.37162914298502314
110.750292,-0.11242225554856686,-0.026491308444726008,0.7947080656945456
111.250292,0.4840879604509326,0.48439299661119967,-0.2732870824614655
111.750292,-0.34195188741002197,-0.0352049523165109,-0.434539668334872
112.250292,0.01728707183242446,0.0024652690524591516,0.1609258853256206
112.750292,-0.10371141437803187,-0.39214428330386075,-0.7355394254261046
113.250292,-0.16211689644382468,-0.14703263591680502,0.2914249135919155
113.750292,0.22905248748889423,-0.12197377988901914,0.0607859334728963
114.250292,-0.3947302677764047,-0.17973714412213596,0.429762405973744
114.750292,0.4990461496799918,0.235763021137994,0.29236470381098867
115.250292,-0.20640910594269726,0.41041542324869107,-0.055349357978161005
115.750292,0.41658092908942956,-0.12346496872769347,-0.41288303164531404
116.250292,-0.12496117527980546,-0.5306338789788879,-0.22774728817943884
116.750292,0.061396329845070576,0.039888544062502425,-0.05437274604247484
117.250292,-0.36465491806369216,-0.2742996350964488,-0.3066133128629835
117.750292,-0.1535156924240454,-0.06934137575336953,0.2616970115778885
118.250292,-0.18897522151696436,0.15538200633659552,0.32734371598463263
118.750292,-0.04518485397168779,-0.5002548082319963,0.42237013958393077
119.250292,0.12105670584524318,0.3772487346590443,0.020202026246242896
119.750292,-0.07127726842928579,0.03602291389265527,-0.7789907808162759
120.250292,-0.09294392660833112,0.1918669406275901,0.216877409547921
120.750292,0.1901118215981263,-0.4287569600297107,-0.3099671173659513
121.250292,-0.710211134560394,-0.2036368808833098,-0.03977370960978137
121.750292,0.8029189733937759,-0.06471539241830132,-0.13069049219090303
122.250292,-1.00834197824377,-0.16128255384030335,0.43948260931639965
122.750292,0.5004463818959151,0.5482817087295375,0.2952092892027256
123.250292,-1.1868097197181449,-0.5975180208158968,0.30704836038242045
123.750292,0.3077719073528737,0.1247005427462402,0.1835388834364098
124.250292,0.7555888896672492,-0.3055379687252643,-0.39559362619539484
124.750292,-0.6680900414822294,0.18865842144984993,-0.4803924139989137
125.250292,-0.11804162973285402,-0.2392972845258075,0.02737174300139421
125.750292,0.06208954911263946,-0.21196964795715104,-0.14493516912604001
126.250292,0.31086821766140843,-0.12536550935347598,-0.2953652395728779
126.750292,0.48276123375813684,-0.35758434726227734,0.3027919688374759
127.250292,0.13343329933575132,0.10315433394600161,0.06536754093919636
127.750292,-0.03196865706803011,-0.057193826441523286,0.22887946839117085
128.250292,0.2227336128085325,0.09890219256963682,0.47705042139428777
128.750292,-0.6580771965894598,0.7336605281346488,-0.5530261923690302
129.250292,0.5506231500503511,-0.4123684752846904,0.25630978856954917
129.750292,0.20428310021975865,-0.23532793856077838,-0.5158423565664715
130.250292,-0.7403644370008599,-0.15814266945798336,0.07699679925067604
130.750292,0.39914968289235103,-0.4435300706566398,-0.6206909393166946
131.250292,-0.37035776424376854,-0.128108212411317,0.4497783680945503
131.750292,0.2867946638185122,-0.1755159892993936,0.3998203583344747
132.250292,-0.3267497842711713,0.13193995039499554,0.9651858034664103
132.750292,0.31449837212907944,0.08329262095661573,-0.6040889119373919
133.250292,-0.119356468896616,0.08862233924817906,-0.4387207108628784
133.750292,-0.3722225797621504,0.08587364889955415,0.0001238985541931248
134.250292,0.042762846397593035,-0.17879597902912586,-0.42056615374724066
134.750292,0.17119309888527792,-0.38879210389074004,0.005362994519912622
135.250292,0.3094933362550602,-0.1906841449012324,0.16509621390937226
135.750292,0.07107262975057885,-0.033083148477368214,0.5806163648433761
136.250292,0.04969248569082728,0.2815508076892166,0.3681008304435526
136.750292,-0.21496467699096417,0.409223248506422,-0.21156368274881135
137.250292,-0.16148623926770392,0.044661166028026035,-0.4414422856181629
137.750292,-0.08813623147844395,-0.44615134236511045,-0.31882047775609224
138.250292,-0.10475146057709223,-0.281075533592738,-0.3046998634054256
138.750292,0.23847770677984864,-0.3446609992458546,0.18675211706624698
139.250292,-0.002843795261021964,-0.05000530687347929,0.6013280437913382
139.750292,0.013861566347220418,0.3140646142609452,0.625378155571587
140.250292,0.11783739766224434,0.2774496761692057,-0.46792284569194875
140.750292,0.049395720176755205,0.3088257415236052,-0.40166199836544353
141.250292,-0.01706350866778407,-0.4589049938778736,-0.553572934219379
141.750292,-0.1896799858161885,-0.29632559795493996,-0.1955227273820745
142.250292,-0.19536815245010505,-0.11607924482744583,0.3219126000508898
142.750292,-0.011150275917980927,-0.2045135098893328,0.6086366669883263
143.250292,-0.0339230754253044,0.06390779250564109,0.5230032142725014
143.750292,-0.37047593006697754,0.6273990071438432,-0.2831526554576253
144.250292,0.2582521281245152,0.10629961630398128,-0.3550681598970543
144.750292,0.30225304336555575,-0.4921537414206001,-0.6532128838235102
145.250292,0.3977886064618319,-0.19780505716241012,0.021938168143714663
145.750292,0.18173285065518044,-0.1884150298225567,0.1821452190916208
146.250292,-0.2693297890742236,0.017777499603433347,0.21687086782263382
146.750292,0.5950718210315058,-0.021700394923365604,0.4947378621682941
147.250292,-0.9441039950588723,-0.07995214233827647,-0.07649099532437205
147.750292,0.5856040836671904,0.19115993192382347,-0.11896764235072244
148.250292,0.47843930645693994,-0.05305418938548662,-0.11062808103559535
148.750292,0.32602182482192504,-0.06846715908131609,0.031224472255118433
149.250292,-0.07570382007820338,-0.37231598035572205,-0.44597615550589303
149.750292,-0.28973294219231716,-0.4147837182350177,-0.25304395979260774
150.250292,0.22464931597225854,-0.0916987330523279,-0.2960813528678538
150.750292,-0.18267438897570948,-0.4573505948617679,0.5323629891734436
151.250292,0.3948528180443632,-0.07889006002731595,0.4123717656899511
151.750292,-0.11889510734228008,-0.22732452294921715,0.07658302084899839
152.250292,-0.1106362376770176,-0.30063573806950294,0.19265769945368674
152.750292,-0.5484170163518495,-0.24457683080788636,0.21316880755552098
153.250292,0.4599566465616188,-0.10794558683067333,-0.07710060708994615
153.750292,-0.8503434188723893,0.08824939367600791,0.16378808256796382
154.250292,0.3433149450404463,-0.04107670370617148,0.10777419877196437
154.750292,0.3500281749526014,-0.2599987204430648,-0.21591112508056517
155.250292,-0.02139504589487323,0.01581875780941642,-0.34636470607502523
155.750292,-0.0388387407089644,-0.14011004196510762,-0.5523254174925892
156.250292,-0.09521365139694207,0.13566330595275422,0.3084245831377427
156.750292,-0.6570296574276127,0.06706748786120555,-0.5060085095748589
157.250292,0.0843186815593811,-0.48764858033620617,0.2824137282167046
157.750292,0.29709584493420993,-0.22759080733247777,-0.6574815295105805
158.250292,-0.3398682562537683,-0.6305252985347988,0.3139637017360914
158.750292,-0.17055307319452712,-0.2063133572855321,-0.10377015283384573
159.250292,-0.5336521227948113,-0.24030573691196583,0.3379719446146845
159.750292,0.8649742536649206,-0.2875966757136243,0.6640128960544008
160.250292,-0.03071908447951683,-0.43380102844475954,0.02427165795262309
160.750292018,0.23108508751980508,0.6182106115136863,-0.2955727120729448
161.2502921,-0.22736601459173456,-0.24566375424293574,0.7734316951534165
161.7502921,0.20715657325833206,0.3121436867177525,-0.4968821074465396
162.2502921,0.07799127554144855,-0.06302741083693249,-0.3307045529237389
162.7502921,-0.2553911555408922,-0.26130151269660234,0.026779889779670264
163.2502921,0.10939207069788262,-0.21878129290360612,-0.09507745861252942
163.7502921,-0.8820414583794092,-0.005075529795970364,-0.24745475979091175
164.2502921,0.9790826254847513,-0.4767168621240706,-0.7209609855084289
164.7502921,0.03313379865937726,0.07827309517469948,0.7798629098172267
165.2502921,-0.45759420602139933,-0.4627615974391129,0.1061853552368457
165.7502921,-0.32609516881538675,0.06539216807337797,0.20196844228369437
166.2502921,-0.047622694635152764,0.03918640825838051,0.15395396695600547
166.7502921,0.19011844501605674,0.0870194402696283,-0.3283314826701421
167.2502921,-0.21526555474538328,-0.1256683326083928,-0.3441489424090181
167.7502921,0.43312989204998253,0.07434772838356601,0.051576918605441564
168.2502921,-0.13134274736224985,-0.14333714750249643,0.031908488517909527
168.7502921,0.2252471778837559,-0.02121336063713522,0.16510788120311795
169.2502921,-0.29718140431994733,-0.006537491328484415,0.057628533903172977
169.7502921,0.11065899511631506,0.03969519284119768,0.22843571997657225
170.2502921,-0.24632601536479487,0.025665680011536053,0.2475139474022005
170.7502921,-0.248547106568337,0.15227922433127514,-0.7786795686327269
171.2502921,-0.028335573434593524,0.07061104180765099,0.1336022867744945
171.7502921,0.08382201561948302,-0.2597085643587148,-0.6784541934280703
172.2502921,0.06869822377994357,0.03482126037318676,0.25517475263072426
172.7502921,-0.03854218563562493,-0.22246780328555812,-0.049940261063959414
173.2502921,0.0067930099126726606,-0.16248350404883663,0.42780146933977475
173.7502921,-0.17695650376185845,0.03618348129460359,0.2855971737032687
174.2502921,0.2106394122670508,0.2139931256550453,0.24198336524790476
174.7502921,-0.020735989829081803,0.20142254092662826,-0.6343291413168515
175.2502921,-0.09887969738521182,-0.06303638549894702,0.01564264639076586
175.7502921,0.2459810545350616,-0.16271349342589342,-0.49599001878631455
176.2502921,-0.11347021778591826,-0.07738876329340293,-0.041914582535946626
176.7502921,0.4379967210006914,-0.18098401249390503,0.16713632859407415
177.2502921,-0.44454688550262006,0.1711522423421891,0.3262863560033318
177.7502921,0.18127721256296145,-0.06111229030130042,0.41038827863452304
178.2502921,-0.30954258077770197,0.20786332207360886,0.09412423356523135
178.7502921,0.13382101713983713,0.014329394150587402,-0.5090896829960275
179.2502921,-0.12752808995140996,0.22536188896446227,-0.2802651566916984
179.7502921,0.05777113510252169,-0.42557003833982593,-0.3748646864336704
180.2502921,-0.28176487385765253,0.1258095512374922,-0.2312783835381307
180.7502921,-0.38108123064077326,-0.7882762798733524,0.539397459147615
181.2502921,0.8320083935809935,-0.4100340567747601,-0.21608321044559603
181.7502921,-1.0722467636049366,-0.14848683092296255,0.8695780048209218
182.2502921,1.0966955296671275,-0.3055895306514868,0.5003048845285571
182.7502921,-1.565599364828864,0.24026539717850273,0.8005957285193754
183.2502921,1.278366989133417,-1.0896174014015911,-0.6473970798939551
183.7502921,-0.729114222304478,0.397247349300344,-0.33034130774498527
184.2502921,0.8179990737725658,-0.5877502183525363,-0.5033975454667817
184.7502921,-0.421485440658385,0.15353463994945016,-0.3746323461860232
185.2502921,-0.2648642671563037,-0.4882662763906207,-0.07426050881659366
185.7502921,0.17977468696888857,-0.07633911318757831,-0.2961817397841681
186.2502921,-0.2567187642794853,-0.4056896582007554,0.8608662470078501
186.7502921,0.3298136532055787,-0.19239085632373762,0.0992222191471154
187.2502921,-0.7927561943958055,0.06760141401398369,0.4417639324181167
187.7502921,0.6943408924560833,-0.2362935180300144,0.19899926070888646
188.2502921,-0.2948783124018636,0.42785626437258467,0.3929730427858474
188.7502921,0.6417981930670831,-0.36091043185462773,-0.9642636945020031
189.2502921,-0.6984464661950578,0.4749727972615689,0.08042116679910585
189.7502921,0.6810618262250459,-0.6460506546638078,-0.5432651381641767
190.2502921,-0.8529585804862901,-0.08638987815976411,-0.18058311402907015
190.7502921,-0.0896641701613498,-0.6399970892829281,-0.08114755675066973
191.2502921,0.26358106569195267,-0.18624122002561047,-0.1269477214794867
191.7502921,-0.1312521946272856,0.3042977474255924,1.553086027936869
192.2502921,0.9649536997395854,-0.6497230442035974,0.09331709129751335
192.7502921,-1.0005208497610818,0.4393264839448514,0.5318230565958451
193.2502921,0.6689929760054665,-0.4206427738060038,-0.7800969358383492
193.7502921,-0.6781891710513815,0.5224790234559019,0.018283931221293733
194.2502921,0.725360189394472,-0.6686711309051173,-0.4240330675275008
194.7502921,-0.09049919077767302,0.11501711295113942,-0.09988542691817695
195.2502921,-0.3731699991816446,-0.5916909647246485,0.2413710591109898
195.7502921,0.24372055909261323,0.0318482257042897,-0.43843860579994925
196.2502921,-0.6859432023587521,-0.2622381849281659,0.914928554152043
196.7502921,0.6658927636392257,-0.6084099417133695,0.2241018700511408
197.2502921,-0.3519860248692951,0.1553509028692794,-0.24426400062905923
197.7502921,0.1853649541040566,0.3767176300577236,0.9113180580408211
198.2502921,-0.6262403914994704,0.3267266004361103,-0.4651425154520693
198.7502921,0.9040090260549448,-0.995354912773667,-1.0488960396304727
199.2502921,-0.3769425010959486,0.4901961507315832,0.39302443271205334
199.7502921,0.05147904784541428,-0.5677684317256645,-0.346794362701014
200.2502921,-0.027712950742917776,0.001141119705515612,-0.0761034698662446
200.7502921,-0.31956613283167246,-0.39545015359913277,0.6367293578650781
201.2502921,0.3975577472772212,-0.280823609390504,-0.4514857831888154
201.7502921,-0.6922703821961141,0.23715163756621854,1.1331658604849517
202.2502921,0.7720502838378366,-0.4818147920328449,0.0690301950311748
202.7502921,-1.0551716329616094,0.3639994563625346,0.33536078680563164
203.2502921,0.5936633636106398,-0.37991834358498544,-0.6727846762344829
203.7502921,0.11683397740265374,0.3365269443212485,-0.27133742787825044
204.2502921,0.15929689014212428,-0.3925626014759658,-0.41451176645866666
204.7502921,0.1335554243416967,-0.015713257917502138,-0.2517511619764836
205.24681927291667,-0.48153362733957317,-0.17455650127598057,0.4629937785175944
205.76058552608697,0.14807970612060053,-0.1114437678524194,-0.11575363439637318
206.2452921,-0.44268493739786463,-0.021094748198354357,0.4954888582007573
206.7452921,0.5331850046939627,-0.3094235286745098,0.19029367345129297
207.2452921,-0.428436399803781,0.5218534726432662,0.7833793086577836
207.7452921,0.5818654220541446,-0.3702800196994238,-0.4313126445264697
208.2452921,-0.37396930406525003,0.37359126577570234,-0.48330704504336935
208.7452921,0.07925861761680558,-0.7834532832043188,-1.035369286122599
209.2452921,-0.09962168676113717,0.11156171910720035,-0.07157580657816552
209.7452921,-0.07347276447044085,-0.5579879314804105,0.49165297926438906
210.2452921,0.7975627568465964,-0.15992930528776694,-0.23391590713228155
210.7452921,-0.9098298138445844,-0.1744689944833709,1.1698783422743098
211.2452921,0.26828426998474597,-0.28025439836682803,-0.3094260019203807
211.7452921,-0.5119492422272072,0.1855712217964509,0.8158284352663309
212.2452921,1.1207021407065292,-0.280036672391554,-0.35229638590848017
212.7452921,-0.8453702912369799,0.4561951155692638,-0.3009358122851476
213.2452921,0.35415983669551493,-0.7575564581535,-0.4268463935405803
213.7452921,-0.311250376189001,0.14482387733674895,-0.31347947259118153
214.2452921,-0.15941064897795498,-0.38965288004451,0.12307571277205122
214.7452921,0.7843743562861174,-0.16453547135822555,-0.37472733511150724
215.2452921,-0.5478178667802812,-0.201077948594885,0.6815115711662427
215.7452921,0.6793622799449437,-0.2640184682194062,0.09939399445202916
216.2452921,-1.2950500790169668,0.1481852934550395,1.0909887731677954
216.7452921,0.8147083061700658,-0.6678329439708722,-0.2030664156858586
217.2452921,-0.6401630191005084,0.5720292028502986,0.09606829010552957
217.7452921,0.4011181238361789,-0.7142401139777858,-0.8454958089579833
218.2452921,-0.2836565832740875,0.3380516217915222,-0.2013570411876623
218.7452921,-0.0191165160999644,-0.26379301691671825,-0.32682412285421647
219.2452921,0.8306693176950577,-0.24933523314938108,-0.4445118222435604
219.7452921,-0.8650040398658386,-0.28513081867813567,0.9457652746513935
220.2452921,0.3455911186746372,-0.4238037831582453,-0.2759443946118737
220.745291956,-0.7634894081286467,0.33746122786476834,1.0210868228377976
221.2452912,0.7402326845675214,-0.5832139010782798,-0.09014548859855008
221.7452912,-0.8869460737432115,0.6113858316021168,0.7372169063346959
222.2452912,0.6158271491143492,-0.8361172517439097,-1.2839024211376873
222.7452912,-0.3639152773414363,0.4862808880647559,0.22934736781328774
223.2452912,0.27309276489895695,-0.7111960709124142,-0.4730180665389289
223.7452912,0.5529581836526721,-0.002392729145531032,-0.45216269287512867
224.2452912,-1.0135556254701203,-0.57271567301262,0.5680226889427357
224.7452912,0.5639477586914033,-0.20182269940723518,0.02127593962638846
225.2452912,-0.9198013592913235,-0.000753018910068377,0.9391527866312986
225.7452912,0.9101660153203056,-0.42236992538473667,-0.2151290376851129
226.2452912,-1.0805242589116915,0.3254502749568349,0.62253370033472
226.7452912,0.7951700364047087,-0.23262768181465387,-0.9310866086422367
227.2452912,-0.3010321515116057,0.21154862719201695,-0.057679593064439094
227.7452912,-0.10792388783363967,-0.7115078815301278,-0.41107302011883
228.2452912,0.27401029035097096,-0.04225218543886826,-0.23643920782825006
228.7452912,-0.5688874496869264,-0.28305693234109636,0.43198623135849185
229.2452912,0.3989400022300325,-0.37162319622661677,-0.25575507160972627
229.7452912,-0.8437969422712632,0.22761915378410094,1.1986240507760129
230.2452912,1.434608245971881,-0.6625062059475277,-0.0031079374201996223
230.7452912,-1.6659048201097202,0.24256935578575917,0.31518587817166543
231.2452912,0.7265323194643216,-0.4171658184286102,-0.47520939613670604
231.7452912,-0.44622894242129346,0.24990594558456106,-0.39736568225096136
232.2452912,0.5342867190096969,-0.46090820623566386,-0.008466624369281438
232.7452912,-0.003804537681985698,-0.05729465268478796,-0.3950166362309732
233.2452912,-0.4335563623232953,-0.3465188835809661,0.2638900897768487
233.7452912,0.21517651965497067,-0.3038222924718515,0.22605746520384645
234.2452912,0.15451731569714183,0.18300707773469171,0.2745711402576443
234.7452912,0.251443183924686,0.11074235472953799,0.3169228196867167
235.2452912,-0.5885168704472314,0.4702425251891573,-0.08531210455724984
235.7452912,0.5653921333648791,-0.6060947417938968,-0.6426531420166597
236.2452912,-0.1479765734079071,0.14946953574607078,-0.38025970763536215
236.7452912,-0.21053547473377354,-0.6446755339295461,-0.12311127156917274
237.2452912,0.1164042822688482,-0.27901906191876497,-0.2106625947074258
237.7452912,-0.7050508475305342,0.04118923714530668,1.602253782369968
238.2452912,0.7882494973649798,-0.3108072758643722,0.17470301918540174
238.7452912,-0.6228181787416144,0.16797068118894715,0.14319191139513127
239.2452912,0.37215820023486673,-0.07676577608203662,-0.58361639266267
239.7452912,0.1568516213863143,0.2772260122664587,-0.3322142673561285
240.2452912,-0.14557117361589042,-0.32937433174653047,-0.23915941344161873
240.7452912,0.3904253694030867,0.04237633110930574,-0.5151319510559152
241.2452912,-0.5395977894623565,-0.6012127190463644,0.482549585535531
241.7452912,0.190288777832888,0.06944424707166663,0.050571670556901684
242.2452912,-0.7543083021646065,0.07822934399273372,1.1962468103572084
242.7452912,0.634936406702825,-0.5456754091173642,-0.13867563412814138
243.2452912,-0.7892280490794904,0.2865781598254169,0.6829496837246601
243.7452912,0.8211470622863302,-0.5520259785051619,-1.313521844751909
244.2452912,-0.15744425581806404,0.1659981490165969,-0.20837862827576342
244.7452912,0.1111142043091221,-0.7717839178539385,-0.5635909261468149
245.2452912,0.28354702424671396,-0.1071008816865913,0.15966210951974585
245.7452912,-0.7013778848797091,-0.34688568043214746,0.9380150207131479
246.2452912,0.5700219621974518,-0.1640116028358016,0.08571273690871946
246.7452912,-0.9452690673542564,0.15982711108916717,0.6515772923622251
247.2412328020408,0.5414401092031086,-0.21462036371452653,-0.03808765655549277
247.75172838913042,0.13237285535848645,0.04752937867569346,-0.566792101503939
248.2452912,-0.2955069092757677,-0.0825322534590952,-0.0972415531142455
248.7452912,0.24057227210408502,-0.12279183923834762,-0.5545678507770129
249.2452912,0.06667676147854192,-0.14575400678326278,-0.2934215552520567
249.7452912,-0.03334438059821183,-0.13595460420785035,0.046387114901457964
250.23101022499998,-0.7559116594011378,0.0711000514896924,1.5412626497317634
250.7452912,1.0125338302485856,-0.5830462814455987,-0.44977106389353816
251.2452912,-0.9892998673525597,0.4263505797298919,0.964391263854552
251.7452912,0.5484690058682663,-0.9787965407960112,-0.4981949174099603
252.2452912,-0.6249920869470782,0.49211758836083047,-0.09435208660513589
252.7452912,0.4931901457626038,-0.9657866166678304,-0.9316853117553763
253.2452912,-0.5737635300265307,0.29112641150502105,0.3901975820438408
253.7452912,0.03216346444470031,-0.5951065047814399,-0.13610422946385134
254.2452912,0.043306915298845575,-0.12884560050359817,-0.4050100857380963
254.7452912,0.009095597798900078,-0.05589599029378653,0.9552286853603762
255.2452912,0.35690632925439625,-0.3433277615210335,0.24189362397879954
255.7452912,-0.5526246121451165,0.2979336654139671,0.551533916637888
256.2452912,0.8747133511099422,-0.7262832075643582,-0.7103029521423743
256.7452912,-0.29712377457542866,0.791711901204824,0.2539514168168237
257.2452912,0.21758172389670988,-1.1937917882785682,-0.7753662837858397
257.7452912,-0.2628615971430934,0.3190816902750187,-0.08880928742978948
258.2452912,-0.28676670797496795,-0.470103009846477,0.3210459589170577
258.7452912,0.25116878712298385,-0.16984842034580708,-0.05314689452628489
259.2452912,-0.6790875219159713,-0.29246693923577927,0.9078336461849674
259.7452912,1.0049818732773064,-0.2078656602877193,0.29721899503335225
260.2452912,-1.3625025465694176,0.21341023487626695,0.4297270664279597
260.7452912,0.475967255523612,-0.6579938337326904,-1.0143021478170975
261.2452912,-0.11883644176488094,0.4733088664089219,0.026950971593726825
261.7452912,0.25461770711994114,-0.804756753051754,-0.575984903072599
262.2452912,0.23708994584121673,-0.012118532577134885,-0.2864268161877706
262.7452912,-0.3061119847635238,-0.16870115092521856,0.8041207950918835
263.2452912,0.31629709711244375,-0.5647023214444867,0.07478287745482902
263.7452912,-0.2453284707038376,0.27944035572455717,1.056877813981142
264.2452912,-0.142653072625806,-0.6917531458543045,-0.3303100464229207
264.7452912,-0.09159665682330352,0.6939642647040692,0.29241043847738546
265.2452912,0.15612347107481894,-0.6213281050791921,-1.1297920874619714
265.7452912,0.037486666420826625,0.34777377401281806,-0.0154495015850239
266.2447863354167,-0.16169564679965195,-0.5559001555642284,-0.5058917742480417
266.7602912,0.10483538517522291,-0.1869890938093808,-0.3534673145566578
267.2502912,-0.33827235565427477,-0.2397868631008757,1.2612781995760365
267.7502912,0.26379087672969015,-0.1314897255740752,-0.18031124938191603
268.2502912,-0.43300273028585595,0.19507141323354169,0.7427922893394215
268.7502912,0.0888382815683503,-0.513740259542965,-0.0029512054863353554
269.2502912,-0.08941485552236562,0.6668301424321483,0.04392991475659454
269.7502912,0.4667980028576348,-0.8662569127134462,-1.1322381439222096
270.2502912,-0.13840637974063014,0.41177809952352845,-0.04447153558237787
270.7502912,0.0969047291754087,-0.6649849160467235,0.04725087884387076
271.2502912,0.22438812219372134,-0.018424590081293043,-0.09403325036475295
271.7502912,-0.3367997661604037,0.041760427796977556,0.7973258622374972
272.2502912,0.2955196212093153,-0.7461536250754682,0.0614875749776556
272.7502912,-1.3433254951579943,0.4080231310070826,1.1376698508886514
273.2502912,1.8711838812137906,-0.7952771849177597,-0.7443685605708542
273.7502912,-1.0494131209864157,0.6420289129457464,0.37814745478370015
274.2502912,0.8030211607124316,-1.5062934721676582,-1.3329584636572465
274.7502912,-0.8325651751675092,0.4027979958429817,0.24537676213631826
275.2502912,-0.054138338334619805,-1.00711477705281,0.08123741736760062
275.7502912,0.7517190362969055,-0.06400969273796794,-0.05751945837734787
276.2502912,-0.7994909564095388,-0.08293985221396799,1.2254445339078461
276.7502912,0.8490634894762068,-0.6205101574222152,-0.11635761048525406
277.2502912,-1.1162126141535196,-0.04742042445233564,1.0304570580243717
277.7502912,1.008880475101071,-0.41896682984657574,-0.4942701962169032
278.2502912,-1.0089923052520464,1.1456949603555966,0.08816831574304754
278.7502912,0.9918127155613319,-1.6589958098433941,-1.0857715131392123
279.2502912,-0.5377662092726734,0.43970935125050586,-0.01780026532721598
279.7502912,-0.03062958604430915,-0.48549914318898546,0.33106265432229753
280.2502912,-0.12371893565199285,-0.28162653828558354,-0.41927415625412506
280.75029111,-0.2029854020461724,0.10253012808181061,2.079873547649303
281.2502907,1.0340229700301022,-0.8317011044931464,-0.12522334273516067
281.7502907,-1.5168496914437533,0.28004704264375196,0.6174010702679538
282.2502907,0.9214137854285173,-0.7802730838130297,-0.9736351013389212
282.7502907,-0.3546894804356209,0.6954158928052372,0.1846803070518103
283.2502907,0.26392249213870267,-1.519082542006547,-1.0103481943857673
283.7502907,-0.33327193440497566,0.5332098840406936,0.2367192235979455
284.2502907,-0.04273257833731352,-0.6277269445791298,0.06476632610336709
284.7502907,-0.09074199276273358,-0.03381800003918831,0.2762836016716249
285.2502907,0.29123922252106466,-0.3494803463172058,0.5716235175081695
285.7502907,0.29475592410105417,-0.03105516687677318,0.8079924024388991
286.2502907,-0.6743842360030012,0.003226397378309405,-0.23334068623518456
286.7502907,-0.004174902958803952,-0.29802724250969065,-0.1737403386980121
287.2502907,-0.07679451893243998,0.3559239631582915,-0.29918717384735244
287.7502907,0.39673255994191925,-0.7046719792279886,-0.6653574322633133
288.2502907,-0.08264432294523041,0.09748986118647977,-0.2797897097557361
288.7502907,-0.14481743949635256,-0.0507680052519978,-0.22867409775193803
289.2502907,0.209546012535769,-0.37103786309341574,0.8205078220390684
289.7502907,0.196927199029886,-0.17203473304138978,0.3166230775340773
290.2502907,-0.1904255260121568,-0.09302288867487853,0.2362777622670312
290.7502907,-0.0637658858489551,-0.036647863747568975,1.0716955190183903
291.2502907,0.18161326252566304,-0.16991852376457356,-1.656449765044824
291.7502907,0.005482437802089128,0.2457030600692858,-0.5880360634055058
292.2502907,0.06157550090610015,-0.15850880910485599,0.05398879314264481
292.750429798,-0.4153130447690047,-0.20236351503783595,-0.0698854237221653
293.25637525999997,-0.26352842276319144,-0.13357154396371898,0.5464065229972023
293.7502907,0.3751946681552037,-0.42095465400642923,-0.16901100306845943
294.2502907,-0.2875013403013913,0.20818579093626535,0.9918430623503482
294.7502907,-0.20016541935203647,-0.5278984842040518,-0.24133355260024097
295.2502907,0.0481028530031651,0.6309307452375699,0.2806565162717522
295.7502907,-0.0035332669222731573,-0.35336153729763636,-0.4866231999709721
296.2502907,0.27529539749638404,-0.05173254223366621,-0.5628782566694668
296.7502907,0.10320488257431702,-0.30045115117592025,-0.2490614309865392
297.2387994434783,-0.2837546002308522,-0.04213722830299478,-0.08528927930461806
297.7502907,-0.11561677497361698,-0.24218965322246816,0.7928051011797743
298.2502907,0.13725600534065638,-0.1839263434722946,-0.10092028025795102
298.7502907,-0.23290579659042351,0.21704403782254164,0.7489550282901792
299.2502907,-0.1985710908214279,-0.3047192498087402,0.005145984719419886
299.7502907,0.14955114677066986,0.7858752950250634,0.0836784164078978
300.2502907,0.09485018695043614,-0.7012192323331431,-0.8678245550109429
300.7502907,-0.07249851727550335,0.6223921407478611,-0.014584097328661345
301.2502907,-0.3059999961195542,-0.39608467466281794,0.019057311174620423
301.7502907,0.620194762504587,-0.03925923849497179,-0.14651199231707598
302.2502907,-0.5332961199001303,0.163902564855079,0.19923635563187847
302.7502907,0.46245208612971855,-0.7513100730077837,-0.5477780342745185
303.2502907,-0.479278126540453,0.17344024886971812,1.1338795391827703
303.7502907,0.1742457780862182,-0.1502309709250409,0.4139978755365902
304.24046972888885,-0.5771942220009915,0.3686752456359064,0.038217955711863004
304.7502907,0.4490313650978128,-0.4825779740425372,-0.26535279371051324
305.2452907,-0.22168497425148725,0.4304831889879662,-0.3962113895259945
305.7452907,-0.08187413868782725,-0.15396547235302058,-0.21331210663121386
306.2452907,0.19465452645448117,-0.04845578620732852,-0.4155995350422741
306.7452907,-0.24937212217955385,-0.198695097192071,-0.08001781212810345
307.2452907,0.15410962475724596,0.04461281068929918,0.09508168401127622
307.7452907,-0.12825492755157308,-0.06849174306352748,0.4520859191997913
308.2452907,0.2291643432754231,0.13526921429743935,0.12623190368752235
308.7452907,-0.10976605764629285,-0.025334746784653042,0.45731569457182936
309.2452907,-0.4144740354291433,0.13375835641995074,-0.435983835699043
309.7452907,0.12619116934677982,0.2987972344368445,-0.41739987143558044
310.2452907,-0.3493675322443353,-0.29638013327516577,-0.3748002325405257
310.74510031041666,0.34421666254367395,0.14913340861262323,0.010054189593563861
311.2652907,-0.20778323752687033,-0.18792639509741704,0.20779418250542817
311.7452907,0.08521431530175509,0.13592852793767002,0.270529630936857
312.2452907,-0.6422316655549595,0.34105218756530564,0.4717227669689095
312.7452907,0.33357778514665354,-0.18458288485230778,0.10932201315107973
313.2452907,-0.20380694795025703,0.5202443340836402,0.17490036563552772
313.7452907,0.0617228868898468,-0.4559278933737643,-0.6109243476878645
314.2452907,0.2489496113529989,-0.2105860930143341,-0.47538055331460255
314.7452907,-0.20506068550372925,0.14852394287115908,0.0016781194057522075
315.2452907,-0.011778436272777476,-0.06252756474034889,-0.3787799928126161
315.7452907,0.006834959624903765,-0.18278366549145325,0.13746675187290205
316.2452907,0.30627920340508547,-0.1359322263890335,-0.13113105316577317
316.7452907,-0.9120292764522827,-0.04967670240408568,1.0608604410060443
317.2452907,0.6665493430738659,-0.5901812242270446,0.1891773399124771
317.7452907,-0.3497284572311288,0.4918889603722302,0.45281809165162074
318.2452907,0.17899070989492075,-0.49945398508862526,-0.42045117911902175
318.7452907,-0.47868303771274007,0.5322259487373919,0.2661123596500156
319.2452907,0.043231634567608375,-0.6306185375876705,-0.9123291519458304
319.7452907,0.2067963895799727,0.17153144113258897,-0.23863992730988268
320.2452907,0.27953393716590325,-0.09049656331780394,0.16303193519981365
320.7452907,0.0784279258950108,-0.41711723884862684,-0.23207655379796122
321.2452907,-0.1281871190036248,-0.1133272274882157,0.3104983199341662
321.7452907,0.08400553073091464,-0.01045418492122582,0.34167349821050813
322.2452907,-0.6320792402849715,0.2400021473030958,0.525459291375479
322.7452907,0.7667813705763575,-0.5704580416336481,0.33845221808016396
323.2452907,-0.6093719384107369,0.5197307824378589,0.1423555917781532
323.7452907,0.3269183720118845,-0.6308322689644923,-0.9685460194375737
324.2452907,0.14017088552709753,0.4470300720784392,0.10486953661805444
324.7452907,-0.18498006713395265,-0.15143142587320013,0.11465837002675051
325.2452907,0.05542723441344906,-0.06718934634348396,-0.49188353097323
325.7452907,-0.23985559141543217,-0.2670324734697951,-0.008993665314425678
326.24309857291667,-0.13533773344414565,-0.13621198590762587,0.28601935311500926
326.7589176541667,0.057962951408057906,-0.1535563261994933,0.2796986613133676
327.2502907,0.1408214106938086,0.08558024813488732,0.3751483745901347
327.7502907,-0.004051452230601152,0.038070928595333176,0.23189644151705227
328.2502907,0.19733962676251296,0.23153423722465016,0.011517123316267561
328.7502907,-0.4721702088506008,0.08966397622812941,-0.7988864426064635
329.2502907,0.20921035298079232,0.22155117962867613,-0.6545963839674613
329.7502907,-0.11908877431910449,-0.15226235336708716,0.33948242584395166
330.0652907,1.436526999497669,-1.567551333351989,1.8817872443187547
