Time (s),Linear Accelerometer_X,Linear Accelerometer_Y,Linear Accelerometer_Z
10.25169974,0.017524678827481925,-0.08682859704173125,-0.022293602023653977
10.75169974,-0.01220528072835943,-0.026829383809057833,0.07024857497750185
11.25169974,-0.08928988782572533,0.055497383113846416,-0.07142448587045098
11.75169974,0.23738726670169405,-0.07122626402183843,0.024932130314369586
12.25169974,-0.09751785011046472,-0.1324349128008743,0.18524084330812504
12.75169974,0.016688772285027537,0.005541045753621108,-0.04208616745416674
13.25169974,-0.01128172050151503,-0.030283946103639083,0.1258106947843406
13.75169974,0.02493953147760154,0.03351221142229514,-0.10970766538305812
14.25169974,-0.03154559256006482,0.01942608271085114,-0.11367898002358812
14.75169974,0.033472636274742715,-0.023890522434404184,0.11194303352812178
15.25169974,0.0059809974038809366,0.004064157789622954,-0.016083069317771103
15.75169974,0.0034002462088511764,0.005224451726949364,0.04739131638743216
16.25169974,0.10196258819840955,-0.08104585698954668,0.12091349603900106
16.75169974,-0.016373812858259663,0.07674444687759914,0.0424027508539602
17.25169974,0.07097181321152092,-0.026425577387289366,0.13465900553796606
17.75169974,-0.01949741244115034,0.004327137463166994,0.03593240025292819
18.25169974,0.005902175928480444,-0.006448686993873735,-0.03483463084612317
18.75169974,-0.0035678822311421554,-0.006191220129819859,0.02367082830014455
19.25169974,-0.06734358319954235,-0.0005106885739574263,-0.13030927683364962
19.75169974,-0.08000940987715024,0.046919972589876575,-0.07807953399121903
20.25169974,-0.05069712649233682,-0.07404034907226735,-0.022455323120654885
20.75169974,-0.102946195768744,-0.42784401340818845,0.17627837966181142
21.25169974,-0.01780124135209127,-0.18341162703697297,0.01551397636764171
21.75169974,-0.004050675572235206,0.000823270638876302,-0.056606505234882115
22.25169974,-0.07343103328272964,-0.32984860053589315,0.16668065902879306
22.75169974,-0.14816104002284705,-0.42954605488843,0.30070021075859055
23.25169974,0.07298559641018111,-0.58766991712897,-0.023438391926016714
23.75169974,-0.12722935639378022,-0.36569768282316467,0.08503449520949202
24.25169974,-0.020661572740942106,-0.16096359499858987,0.05525174141257411
24.75169974,-0.005811253230870849,-0.03995569630595076,0.0439613847541515
25.25169974,0.058147177377018966,-0.028018627302847286,-0.04504908126820689
25.75169974,-0.01762047403285469,0.03504607334955462,-0.1665672320924988
26.25169974,0.14628443289717746,0.09489077251243822,0.05908269105658074
26.75169974,0.10234458618785151,0.13882761083633754,0.007737713141470889
27.25169974,0.19300196032327752,0.12056456859407279,-0.1983373456627829
27.75169974,0.20347041072862285,0.1581651245833435,-0.3818680708900601
28.25169974,0.20612791395796135,0.23020338084016423,0.03660676717383686
28.75169974,0.20168312502513935,-0.025366719488081658,0.2591927391608211
29.25169974,-0.1314611965349746,0.12112361017005797,-0.552921208763478
29.75169974,-0.05203883522715202,0.22798192986224428,-0.21620405644383603
30.25169974,-0.03342227475564578,0.2569830566806851,-0.03929239784215782
30.75169974,-0.08720156763736292,0.20432892068998862,-0.1588959406203199
31.25169974,0.04469187305926201,0.07748691595402699,-0.19484712375539698
31.75169974,-0.08447903358281766,0.1272714554492929,0.04531152811556967
32.25169974,0.04476176577522878,-0.013629689144633876,-0.1647471473591996
32.75169974,-0.032560615371572156,0.11328012273048044,0.13614833046020522
33.25169974,0.9090957088912728,-0.16662485154082765,-0.152290259945636
33.75169974,0.1294612956918247,0.013636161485804585,0.27888824030857085
34.25169974,0.6402207298644106,-0.15194283172854775,-0.33842736497745496
34.75169974,-0.23271325823325636,-0.031222171345564913,0.08300203907597853
35.25169974,-0.36222472487955293,-0.002103702002704775,-0.18437940914311096
35.75169974,-1.1278418198725106,0.40793209871474245,-0.1345384298492244
36.25169974,-0.11482690671953759,-0.0899637672435944,-0.33008314177314374
36.75169974,-0.7527924850043617,0.3531689886074356,-0.013311562646989641
37.25169974,0.2667180613512736,-0.031935464075297106,-0.0992410529119466
37.75169974,0.05416238213451522,-0.006886819581642603,-0.016920434681545443
38.25169974,-0.019822453192749872,0.005031364512858619,-0.06633548850160297
38.75169974,0.050781465549018946,0.03195560624982499,0.012391899657151364
39.25169974,0.030858376008047174,-0.02007233232405437,0.026042520090859562
39.75169974,0.051372740912836196,0.04026179276910689,0.028672453989160167
40.25169974,-0.027239381276459803,0.060538139797017936,0.08640551315001213
40.75169974,0.07367735710771012,-0.022502855961268303,-0.0017661860986265942
41.25169974000001,-0.001149343718415523,0.475759430364876,-0.41478997640135595
41.75169974000001,0.12517128921000778,0.9639343197471633,-0.43849297831064965
42.25169974000001,0.3186127383609339,0.926989960684301,-0.6831766142640759
42.75169974000001,0.16393784167150258,0.41638182515096905,-0.26130397019549895
43.25169974000001,-0.061242568295765416,-0.044439666788930896,-0.042979106037282486
43.75169974000001,0.08643992933734335,-0.09271247542144481,0.10944446506551243
44.25169974000001,-0.07659729172529534,-0.04107396856515777,0.027007683690527955
44.75169974000001,0.00046525961230712285,0.0634830333238976,0.024512425090702582
45.25169974000001,0.07175092137557053,-0.08383219806563583,-0.01191826553994301
45.75169974000001,-0.00794260222154995,-0.03738058517066655,-0.08494001137110396
46.25169974000001,-0.11612723487222604,0.05192945806748774,0.1142276370903457
46.75169974000001,0.16722865185497285,0.11947813485825769,-0.020955373037570935
47.25169974000001,0.002396722839253525,0.4275014289732683,-0.19718100410059722
47.75169974000001,0.13262067981759362,0.3355453126394022,-0.09807739886072078
48.25169974000001,-0.0757696373026443,-0.03893467049561874,0.027060142391808303
48.75169974000001,-0.05681775771144761,-0.13898102632431486,0.11246321970951807
49.25169974000001,-0.05682555747486049,-0.07867083868004399,0.005501498039831836
49.75169974000001,0.025513673146918655,-0.0629201873816088,0.0023571001979054507
50.25169974000001,-0.034007172952362094,-0.0037987539014849316,0.01158376303909029
50.75169974000001,0.05001639583999741,-0.04682213050260471,0.004815281584723791
51.25169974000001,-0.09804784721839667,0.03746935494439413,0.042465066966757975
51.75169974000001,0.05550560535949676,-0.13751941017592423,0.009995612482749865
52.25169974000001,-0.15324606462897647,-0.29872132412389113,0.21374407644828927
52.75169974000001,0.03114681408669449,-0.3695460789217853,0.16023552757383475
53.25169974000001,-0.1302709124688232,-0.06415833868028818,0.10218122702835447
53.75169974000001,0.13824768832000547,0.06275106815854888,-0.12861304606361254
54.25169974000001,-0.035907868987030744,0.27144825845427634,0.021588136987442618
54.75169974000001,0.05089376264829358,-0.15701092645366715,-0.14621390265625756
55.25169974000001,0.2909337045056139,0.12245450766466073,0.10106241261927693
55.75169974000001,0.22481857290409263,-0.15069485243774472,-0.07799481826248451
56.25169974000001,0.13039236143538388,0.24308780390469914,0.06854779145009242
56.75169974000001,0.347700520815843,-0.10700513879232938,0.04904358348963719
57.25169974000001,0.14847421303472355,-0.34552683629805986,0.12459103759094114
57.75169974000001,-0.08238106109066642,-0.1613587848600477,0.07905037033764911
58.25169974000001,-0.30011014303793776,-0.05479178011978074,0.07375174069900976
58.75169974000001,-0.2579109044490172,0.0505820739362546,0.01785537177835483
59.25169974000001,-0.07926498635508981,0.5136976893572499,-0.3243360687916174
59.75169974000001,0.12860353774648936,0.7975727166202579,-0.5734151253373481
60.25169974000001,0.0345495326960551,1.035066149089171,-0.589272766123651
60.75169974000001,0.18637886992270658,0.8531103251007228,-0.5648721310548791
61.25169974000001,0.01696487409793841,0.6431866326135544,-0.41382480917904657
61.75169974000001,0.284360091541753,0.5295579203658929,-0.3946898002166307
62.25169974000001,-0.01865134241554058,0.12576561224856853,-0.1006779968331983
62.75169974000001,0.05766919064933344,-0.01699579186196038,-0.04709449756578536
63.25169974000001,0.023539996142451048,-0.03347590747491328,-0.006766602965087316
63.75169974000001,-0.04108410633385375,0.20772015758639925,-0.12181726614660045
64.25169974,0.08170413009898762,0.05874984843981992,0.045923048393930015
64.75169974,-0.042006285826393853,-0.05393765885621089,0.016700147296113223
65.25169974,0.03746089190222524,0.04838304008913028,-0.05408960172395393
65.75169974,0.004731544803756377,0.06503701608458702,-0.018789825008416007
66.25169974,0.025579720946014253,0.03980540240770645,-0.014625123169505365
66.75169974,0.00863352366717529,-0.00524044501309743,-0.0527620668745136
67.25169974,-0.04132103492660754,-0.16635315435760467,0.0911780720481548
67.75169974,0.01309990818820225,0.05826782391814014,0.01636966729869248
68.25169974,0.012301977251728644,0.13356918458036263,-0.036515765125241725
68.7517000288,0.051893059709480154,0.12414364873260136,-0.10721675468062365
69.2517005,-0.01011967949754546,0.018661502859010515,0.012762068308200293
69.7517005,-0.04437324084389128,-0.22039383670104737,0.09556692686265604
70.2517005,-0.045364026292572524,-0.1458775863262459,0.15399908865223338
70.7517005,0.04009806536416814,0.20734287342678828,-0.04059272153509532
71.2517005,0.015435643839502196,-0.034218883682630985,-0.08039122924379033
71.7517005,-0.09194724044449815,-0.34698656880851686,0.25559432129226073
72.2517005,-0.0899416676484558,-0.4005002474931907,0.21618384191905357
72.7517005,-0.0772051080173887,-0.36823150211574335,0.2269566567141835
73.2517005,-0.07199867516558428,-0.2842205875652075,0.11489095474301092
73.7517005,-0.023191171838433233,-0.1492440259577517,0.015035207844620068
74.2517005,-0.010988537175534364,-0.07046401594363184,0.02282850869838506
74.7517005,-0.011456000356042688,-0.030220156874729717,0.020390673571154053
75.2517005,-0.004995910278220668,-0.019588142765644394,0.0032432242920768096
75.7517005,0.001819858959234315,1.1909976953815501e-05,0.00207729852796022
76.2517005,-0.010720714280917792,-0.003995841817665728,0.0015441818349403932
76.7517005,0.007583140763409525,-0.004048238781250844,-0.0017708886984317846
77.2517005,-0.003990791321475843,-0.0020103990391707903,0.004385311042211724
77.7517005,0.002964441103303784,0.0001387341783132271,-0.0034103947179573934
78.2517005,0.002919848042879677,-0.0029142430824310585,-0.02705693637987822
78.7517005,-0.004980075868850857,-0.004123448453423072,0.07445586249521534
79.2517005,0.0013994619793463636,-0.0009741096334730748,0.035721483281775886
79.7517005,-0.008626127941767087,-0.0024307140614819576,0.004812060519838517
80.2517005,0.01298218987509967,-0.022128327590997195,0.01971532622573614
80.7517005,0.019528577670682844,-0.015274368490207484,-0.07581226911709944
81.2517005,0.011488245141068111,-0.0148920305454489,-0.045871427680310536
81.7517005,0.004097483683767572,-0.00608402165767612,-0.019549463308207903
82.25170050000001,0.004678194740273157,-0.004111418944193098,0.02669811172143106
82.75170050000001,0.0009111262859907485,-0.0019200637715906532,0.029575846638859215
83.25170050000001,0.003633664060325186,-0.007654241969945357,-0.05244455845618675
83.75170050000001,-0.0015534435903060942,-0.0033293649984676797,0.006148914132804832
84.25170050000001,-0.07761363238304025,-0.38243333539857316,0.16254617052848253
84.75170050000001,-0.0472358478078604,-0.29301325900775504,0.16628115307992072
85.25170050000001,-0.042118021103048894,0.011405523506092741,0.09637962071023712
85.75170050000001,0.07502569812857528,0.16721105815566242,-0.21139478773539025
86.25170050000001,0.02955745071792034,0.14377949663237952,-0.07449422845874522
86.75170050000001,0.03506317433256423,0.13395403759268804,-0.10576430344077081
87.25170050000001,0.010213216894820519,0.07379230350763911,-0.01326156790584671
87.75170050000001,0.0031392734188181648,0.02710470332851291,-0.07712962334223998
88.25170050000001,0.005404010801484073,0.020322279725293848,0.01976959000952841
88.75170050000001,0.02733823907143684,0.02935176092376435,-0.055763770571620554
89.25170050000001,0.011679489748365413,0.1709351274539025,-0.03574563630737468
89.75170050000001,0.03217383146028221,0.11166519600353722,-0.04980626889747886
90.25170050000001,0.013745774878476455,0.05120599797492529,-0.01848224340918489
90.75170050000001,-0.028942554437882545,-0.18570069065852718,0.07065514020498087
91.25170050000001,-0.09801424679281487,-0.4342676565612612,0.23019785096654896
91.75170050000001,-0.0807982425175146,-0.48616360077845455,0.24950890871350567
92.25170050000001,-0.05571551055901967,-0.244846611029725,0.10214265831600094
92.75170050000001,-0.008541243859754794,-0.11700311475185718,0.06582895839204347
93.25170050000001,0.001848040057435938,0.11072508992905444,-0.0025504398855724798
93.75170050000001,0.035914322253450405,0.12202688304584353,-0.13419012980591186
94.25170050000001,-0.002398711842145209,0.33549069837516016,-0.1912456749801605
94.75170050000001,0.06516466993080265,0.21294164484512923,-0.09575168846589613
95.25170050000001,0.028120768236503543,0.1410010137272825,-0.024471354096996533
95.75170050000001,-0.01005381700322919,0.09530195950972072,-0.051349444135228454
96.25170050000001,0.010903031080117054,0.10112159573223468,-0.14175381457001357
96.75170050000001,-0.0650425063479853,0.13750683507908915,-0.07684417851963174
97.25170050000001,-0.04842544930198564,0.19045168981803523,-0.10627564843182528
97.75170050000001,0.028295388915102738,0.14659753482113247,-0.11574722220956883
98.24172846744186,-0.09295940878918317,0.20044656570957328,0.12119992659872617
98.74896122733333,0.0465737197651512,-0.11628160685863474,0.131760900704319
99.24645924065217,0.004337764506582187,-0.011622047794422607,-0.003645914064148444
99.74942426826087,-0.0012257920794128431,-0.03261345922226606,-0.12315852723883305
100.25238931956522,0.07405295998462075,-0.021414009222819202,0.10310949233319124
100.74988739333334,-0.02514048113256703,0.03696300679532751,-0.06114681296590907
101.24738549782609,-0.11359516206901774,0.017807583875428076,-0.12938076023850179
101.7503506521739,0.015633349639092783,-0.009913454318643902,0.027346369325421855
102.25331583695652,0.007768030817634948,-0.009411522407534519,0.1920310134435128
102.75081402444444,0.0025645727861554205,-0.09081674546115544,-0.1480350411826957
103.24831228043477,-0.09659768639867598,-0.14749350742788236,0.29397418268568126
103.75127758043477,-0.13659448637590313,-0.3286893408321607,0.08993680775972615
104.24877592,-0.0047816429914121035,-0.17297694535227195,0.08448121862830242
104.74627429347827,0.11599331415303339,0.07851507888943515,0.003690923548212368
105.2492397152174,0.032782588785814575,0.056185857891284406,-0.07697950560157009
105.75220519130436,-0.3005392553706335,-0.6951713301825616,0.4594058048075264
106.24970369555557,0.050525291548140484,-0.5884136746628416,0.35218925461935624
106.74720224130434,-0.0798671159856617,-0.3883884923712626,0.2296799033976391
107.25016786521738,-0.03274806089216487,-0.0603308968705098,0.02424339842126892
107.7531335304348,0.05024277674165852,0.025116624561432238,-0.01176287552948613
108.25063224888889,-0.05152137803058664,-0.12711678796835485,0.026516198610902247
108.74813100869565,0.0010505232840389343,-0.04650807828637943,0.06668422788675597
109.25109685434782,0.03759649408190896,0.02697064727540556,0.011453396527473547
109.74859576000001,-0.052040302745708554,0.0025419352491191736,-0.13216664030101322
110.2460947,-0.0014317941817578643,0.11112837989090725,-0.011391208942084235
110.7490607326087,0.06308372762256909,0.1333055643232149,0.012929516017309468
111.25202682391304,-0.10175755498329096,0.23693426690223965,-0.06194161803477853
111.74952593555555,0.2125217018494701,0.1335398274687954,-0.16035774481673543
112.24702511739132,-0.11656595579876733,0.21012472799958468,0.003285188486160135
112.74999136304348,0.15905616638488831,0.051931924787290924,-0.08244183131580562
113.2529576521739,-0.07338999918595607,0.17195045261033784,-2.8376257631129237e-05
113.75045698000001,0.11159437771555615,0.23402777735856692,-0.1673010333174668
114.24795636304347,-0.033520065615610314,-0.09201827055671258,0.08061402072665108
114.75092283695652,-0.007051273956917157,-0.24040803553132956,0.1418042540491654
115.25388938695652,0.00023893067934930158,-0.028239681809444608,0.057848818116786195
115.75138896888889,-0.016143824053069227,-0.07947352032587707,-0.06866309366115607
116.24888863260868,-0.0650032781702121,0.017010007828574644,-0.040141129840112894
116.75185538478262,0.017990790487110518,0.003674874849277712,-0.021476115342271007
117.24935518222222,-0.0703672224526298,0.055379040130686424,0.08330793855074332
117.74685505,0.10300058775213991,-0.009433630964939353,-0.036020344903122
118.24982202608696,0.08681569980993124,0.04150025172651871,-0.013426789694261339
118.75278906304348,0.012429469449099957,0.4334863736334874,-0.17111027865032546
119.25028913999999,0.25821942104579415,0.8759001967826602,-0.4456232337300329
119.74778929565218,0.15040445106110126,0.5684554682848763,-0.11098838686988839
120.25075656956521,0.07899963113901139,0.26120546892533547,-0.16988054896039612
120.75372393913044,0.016356745680804828,-0.2350682949703686,0.05047911772296332
121.25122436444445,-0.1386906639600392,-0.18238598618191335,0.04205319777731797
121.74872489347827,-0.14920732366141187,-0.11000238236887895,0.01567841601236452
122.25169254565218,0.01380357619497396,0.19713149566780847,-0.13940057810028006
122.74919322222223,0.00875523196521919,0.13923830754543998,-0.061616919736457484
123.24669397826088,0.007864026353918729,0.011208550373551736,0.050851375912813926
123.74966184565218,-0.018920256139622758,0.0016537799515096467,-0.10561174018469466
124.25262978695652,0.06414858805128333,0.16273890045031145,-0.08207484860275022
124.75013074888888,0.018961030831511183,-0.03776263339616341,0.08785457259457291
125.24763177391306,-0.002827850287125366,0.10350666302194765,-0.1677116704663678
125.75059966086955,0.034510597226562884,0.033521736058341724,-0.12930459990954954
126.25356752608695,-0.013797432416074364,-0.08490184275983399,0.05190749239069498
126.75106868888888,-0.09474799884659109,0.01627949379771705,-0.04099276152154757
127.24856989347826,0.04107181668405291,-0.031108230413525458,0.010745407285131242
127.75153819130435,0.017128370919258208,-0.04619168386548926,-0.017927518228298894
128.24903946444445,-0.05098238184993672,0.008334343941138793,-0.01092645826600408
128.7465407521739,-0.028295332855767498,0.0007194434941760173,0.02039105909853729
129.2495091326087,-0.03323210752977148,0.06407913436282028,-0.036489483955887136
129.75247752826087,0.014285255769152816,0.04361898701725022,-0.006417099498750862
130.24997889777777,0.029501433024768663,0.01419657573580782,-0.011817707754110859
130.7474802804348,-0.023463164759743204,-0.2335147635077959,0.10521207649854997
131.25044870434783,-0.05425473096300091,-0.44714329063620534,0.1860144594437151
131.7534171521739,-0.11020278754665332,-0.5675162109300094,0.27714703723817175
132.25091854,-0.12975002793868096,-0.6377469112923865,0.1945891073745052
132.7484199108696,-0.0964552738161072,-0.43905594332830533,0.25386531534237183
133.25138831956522,-0.08765548258152238,-0.17120359462100226,0.15758065663403095
133.74888964444446,-0.06399928863889118,-0.05272182388513545,-0.0172042086395954
134.24639095,-0.06430891146406811,0.011626259282711824,-0.00647855758757592
134.74935927391306,-0.08550732938591857,0.25622357309067334,-0.0379138867659121
135.2523275652174,-0.11152013537138626,0.39611733068478844,-0.21962937350531891
135.7498287711111,-0.09990663678982406,0.3019298783548582,-0.08085099514776717
136.2473299347826,0.09432834895042516,0.5232456241364344,-0.2771214941209596
136.75029810869566,0.1817890092462808,0.2524541928651968,-0.12391824443994913
137.25326619565217,0.13755119081554049,0.06741418633241236,-0.14096352059736908
137.75076719333333,0.1979561697048337,0.12559849345674023,-0.043966411579021626
138.24826813913043,0.04735061755902854,0.12487832940769521,-0.19535621183711885
138.75123607173913,0.08958713941877897,0.07627094278538293,0.044917932129177024
139.2487369088889,0.05139581349522618,0.05594761912152182,-0.04109822480711744
139.74623767608696,0.05244302154731408,0.19677982586208345,-0.012547851238643177
140.24920543043478,0.08212351628805903,0.3392772789645897,-0.22295375951140164
140.7521731347826,-0.014752980644984537,0.44885230613935573,-0.06048241776067386
141.24967375111112,0.25694886759493707,0.17795634956689502,-0.2288120963139565
141.74717431086955,-0.1597394694798124,0.42103206929904696,0.06541508121768164
142.25014186956523,0.1874825080409659,0.5973010590171903,-0.41480754662005004
142.75310938478262,0.11175484597760561,0.6429897476812263,-0.18528454097154531
143.25060983333333,0.0362220393124191,0.34540241614722117,-0.058906031375717365
143.74811025869568,0.09847410829839524,0.25820405212507913,-0.26352193689672737
144.25107768478262,0.027616575294598055,0.09249121733616093,0.049051694932120575
144.7485780577778,0.08971930476899928,0.18029392451341333,-0.26647715923265736
145.24607842391305,0.02405854854882362,0.048911023021406506,-0.07276945473509887
145.74904579130435,-0.05142533065716674,-0.2735206150242268,0.0924214971065213
146.25201314347828,-0.08182736280190259,-0.5000248610548733,0.17509216298615055
146.74951346444445,-0.10393685353053919,-0.6097990885187026,0.24292800339528356
147.24701377826088,-0.11665140398453552,-0.5328643657791434,0.22095300059839337
147.7499811347826,-0.06930340065448039,-0.40026078488873396,0.12234567364283386
148.25294851521738,-0.04685904826915974,-0.23453196438372223,0.14188420222200304
148.75044888,-0.05523347985445087,-0.2073637685424778,0.071376122214687
149.2479492673913,-0.01625882555407173,-0.23694058956670438,0.0540803697012
149.75091674347826,-0.06079787685694423,-0.20317380522821746,0.05229481799572828
150.25388425217392,-0.021122753723473837,-0.1452020499317143,0.07486534932785982
150.75138478666668,-0.02078593836180749,-0.1466671329801031,0.0020360746152859413
151.24888535869565,-0.005895946412364456,-0.08045264146534675,-0.010435082878949835
151.75185304565218,-0.008683083618763344,-0.06605780170445999,-0.01223160642075506
152.24935374222224,-0.007058087863657008,-0.05610253689974708,-0.0022519653532372765
152.74685450652174,-0.013763574229929106,-0.05390001863440074,0.05719856946645302
153.24982237391305,-0.008396601007547952,-0.055925197207059484,0.04385985406044006
153.7527902978261,-0.01077653186413355,-0.05021809482149261,0.03601288309422089
154.25029124666668,-0.016477989093419857,-0.05052653245568076,0.039444052802823384
154.74779224565216,-0.009646393248983712,-0.03994430154144699,0.004338105509863321
155.25076035434785,-0.008045151414863679,-0.04935914727177709,0.057903312430298635
155.75372852608697,-0.00991079664892508,-0.04985856356418592,0.11439167769377552
156.25122972,-0.021989731854300403,-0.03823802645619864,-0.026178817956373373
156.7487309652174,0.004783852160504409,-0.049222386196857794,0.008934996303432112
157.25169930652174,-0.014932668092747051,-0.049919264477873426,0.01328173315068473
157.74920065111112,-0.008762408655923593,-0.01177535508026926,0.1040353470723712
158.24670203695652,-0.04107523360842574,-0.035113704556004606,0.044594658958512404
158.74967052173915,0.03168287355765143,-0.09379268126387824,0.06398969316458485
159.2526390326087,-0.026579315601381853,-0.0292515045356603,0.004354409518688345
159.75014050666667,-0.022470547594663604,-0.011720836920476319,0.03146783075865922
160.24764203913043,0.0014881378523312855,-0.008806274478629774,0.02983642357846333
160.75061060434783,0.0365779096011652,0.04457257156615344,0.00400461312556923
161.2535792,0.004805762125323808,0.16492504949489958,-0.0620245963507742
161.75108076666666,0.09819131548724233,0.26905344730669245,-0.19324720931196301
162.24858234130434,0.07253935223742229,0.4680498794558126,-0.09554498141035951
162.75155095,0.07111079822462087,0.2842023747215782,-0.11075788913178879
163.24905251333334,0.03881771402152274,0.033587565771845726,-0.017835856064239514
163.74655410652173,-0.01576113631005469,-0.05886577014640295,0.03452611153034645
164.24952274565217,0.015218653918981768,-0.09556423004967267,0.051755792741729326
164.75249135,0.0008852439301457714,-0.027430035623914172,-0.0030219016614533643
165.24999289333334,0.07996454203007518,-0.06741360891027118,0.022148384335572608
165.74749439565218,0.04747245810666486,-0.03542008912580776,0.009351259151868066
166.25046293695652,0.08465372044683743,-0.03718349037304498,0.061752779887144865
166.75343142173912,0.030370010124690303,0.014053713993789057,-0.12825781423981605
167.25093281555556,0.07848629271688053,-0.05144365031030014,0.10796072371719163
167.7484341478261,0.01839524024848593,-0.012012136999959944,-0.005982130816658665
168.25140246304346,-0.018668741777970243,0.051011438625917636,-0.029480029113819008
168.7489036577778,-0.03541631290839402,-0.06951985365526633,0.05681911059152048
169.2464047826087,0.003845294346566301,-0.05720474012434729,0.03464011289735796
169.74937288913043,0.05645762856343023,-0.027919133385551326,-0.02061107147252261
170.25234090434785,0.04708749496360761,-0.01604140763943344,0.019773522919015227
170.7498418,0.005006341466676694,-0.013328063203474431,0.0160513731041111
171.24734261521738,0.08272044369824315,-0.0067912003476822596,-0.03120306938140738
171.75031039130434,0.05202583735613487,0.07501409419843326,0.002843742394998598
172.2532780695652,0.054478555922716214,-0.1185737682462744,0.024740823139016228
172.7507786422222,0.08925904274649965,0.09441863350712777,-0.00991548119467033
173.24827913913043,0.030700473050361648,0.08341216455297362,-0.04136643451907658
173.7512465652174,-0.14257499985123903,0.04659282040904698,-0.010843555445547045
174.24874689333333,-0.24832060280967222,0.11646368664133436,-0.0783603060146692
174.7462471326087,-0.11278600256863719,0.04516606461851498,-0.025544005341160178
175.24921433695653,-0.03174171293451942,0.17908473136169908,-0.09417499582237766
175.7521814673913,-0.07606141973724471,-0.06978746575853415,0.04794375126345899
176.24968149555554,-0.04205050973055459,-0.0597750338241339,0.023148663962633684
176.74718144782608,-0.22168757694129515,0.1447560283673552,-0.047227319542393696
177.2501483521739,-0.24233297968883963,0.1084010632918152,-0.06605753243480299
177.75311520652173,-0.16222557448660044,0.11513427316105324,-0.06762423823537915
178.25061497111113,-0.10215833629162001,0.15873703989686028,-0.08700138261174642
178.74811466521737,0.12057706930494531,0.36669675235712496,-0.16884011948640093
179.2510813304348,0.04689268275873134,-0.07941236134595119,0.02088635919620218
179.74858091777776,0.08773007959950861,-0.06943053127538822,0.04137278170928029
180.24608044130437,0.025140970079005523,0.10300745592798854,-0.053587703984585164
180.74904694130436,0.11151096925755075,0.11814327945941915,-0.03493963713407504
181.2520133826087,0.1437658097874288,0.2545740259450432,-0.14694796823325493
181.74951274444444,0.18494650705646912,0.1439198121315874,-0.05838888783871981
182.24701204130434,0.12209716240181878,0.07084862908092891,-0.03396859535147623
182.74997830434785,0.06565695480819297,0.051009153432441445,-0.03796073069797795
183.2529445152174,0.1736519420357098,-0.18527600065684902,0.07076320012103063
183.7504436511111,0.1022193546882508,-0.0999830118164468,0.0662164652225041
184.2479427173913,0.15222675620439258,0.2614413450551486,-0.15281335247452726
184.75090874565217,-0.030042635772387295,0.2832596904553055,-0.054482101305869175
185.25387470217393,0.2422824735913618,-0.4213619055656465,0.0480149069258936
185.75137422444442,-0.035065338756050474,-0.5696074721804968,0.27736156988737487
186.24887398913043,-0.03219398675114797,-0.28013644613199234,0.07700448734338457
186.75183972608696,0.007908789288967164,-0.1364713822220615,0.0602904422969706
187.24933837555554,0.0033855397227219104,-0.07234135868001046,0.029090919291765077
187.74683695869567,-0.05354574944388502,-0.0148334452748457,0.01190332839829228
188.24980248913045,0.1790843219381939,-0.10556419748630007,0.02944381695735479
188.7527679347826,-0.21258026073737718,-0.14726393940700763,0.0980114637896256
189.25026630000002,-0.1491094144906634,-0.5779182681029744,0.36782308940722613
189.74776460652174,-0.09060465688765969,-0.5795381719099473,-0.03047973554059274
190.25072984565216,-0.3861609118026074,-0.2709421444990411,0.3315049352677525
190.7536950173913,-0.2742176835505943,-0.42703277084237157,0.1571694294788431
191.25119308444445,-0.029657020710210154,-0.2202494824593391,0.1273960939860497
191.74869111086954,-0.05437360758454501,-0.09351640854495032,0.018417720086166437
192.25165604130436,-0.056901450374302776,-0.0639166153279484,0.024320797187284686
192.74915390444443,0.03204455844015592,0.006316693698203943,-0.05671546043183317
193.24665170217392,0.07075372602952096,0.039921702279986614,-0.05246277635325575
193.74961641304347,0.055076533110979216,0.05164354447816318,-0.1675153466084418
194.25258106086957,0.04815752001371557,0.19466716471277284,0.13760727342483312
194.75007862,0.01938052013317039,0.07608347213444086,-0.05493041187878185
195.24757610652176,0.04477306292102852,0.13572452456095893,-0.0014571198884290217
195.75054052608698,-0.009884582457927496,0.1365765625910744,-0.05928560359408667
196.2535048826087,-0.0012135240389761915,0.034299780188633645,-0.048757608969913636
196.75100213111114,0.07557677097620119,0.09644831131234113,-0.009168019503120213
197.24849933913043,0.042864899311690664,0.05001977026025086,-0.04215313261699125
197.7514634673913,-0.028103825350323977,0.06219602791498846,-0.07836201067273098
198.24896055333335,0.006037606670595929,0.06477386255096346,-0.0004692093345465128
198.7464576,0.14185758268994544,0.17506131534705963,-0.12121744091503621
199.2494215847826,0.018641854539002457,0.3517289529205616,-0.22037206309276622
199.75238552608695,0.13497321743305876,0.2597161255098674,-0.09314387439569609
200.24988246444445,0.029771114354732748,0.01612024991678926,-0.0870589685549648
200.74737937826086,-0.08788521070753491,0.01588799684712769,0.07958606188530411
201.25034327608694,0.0852102314711599,-0.0507442652933725,-0.02717267432590392
201.75330716956523,-0.051339758852539746,0.03552555470519402,0.0805080589997989
202.25080406444442,0.042101585873231644,-0.036376000221787504,-0.07186691917729318
202.74830095217393,-0.06921137189653766,-0.05236713423586283,0.03338275109681539
203.2512648217391,-0.032315693838760574,-0.23249659608984177,0.15379164866043488
203.74876166666667,-0.049470555777410004,-0.2401480223495591,0.036406163373901235
204.24625851956523,0.049185525429334895,0.19770918268214308,0.068224550243766
204.74922234347824,0.24732376938375109,0.24590274380511168,-0.19766956476629058
205.2521861630435,0.14371677836633315,0.21062179589524072,-0.15519864825474797
205.74968304666666,-0.02485860746765597,0.25791616687176067,-0.16422540325554386
206.24718,-0.07366906185197866,0.2216905446624752,-0.16222023042833983
206.75014405434783,-0.014400859318159041,0.6309374415978091,-0.16988945337723266
207.2531082456522,0.07636687151504573,0.17810628269150688,-0.13669190193228734
207.75060557111112,-0.04661328425393233,0.16521383200298684,0.006412948392339311
208.24810302608694,0.10211346519836755,-0.09387958007609344,-0.004928003327412292
208.75106760869565,0.01827188565343931,-0.0009196721068674201,0.04313855472069914
209.24856531111112,0.08715109716415098,0.059638407138084985,-0.05252366624610019
209.74606312608697,0.06053444688369127,0.013014370498185357,-0.01776362882431625
210.2490280326087,-0.014339794795911352,-0.04726477690284319,0.013684270625369718
210.75199307391304,0.037772820116513055,-0.042129304770182646,0.001986763548787654
211.24949117777777,-0.06215280124878613,-0.1648960259935056,0.12412259381307014
211.74698940000002,-0.051672486730417765,-0.15825824357824428,0.05207361048352993
212.2499547130435,-0.02611713196463921,-0.039040987427579533,0.007629402155948548
212.75292009999998,0.021939728556547532,0.06438727422532925,-0.0344219232263142
213.25041850666668,-0.08015484342833923,-0.30646266822227397,0.1676903016549511
213.74791697173913,-0.0334651670555623,-0.14155918063870074,0.04427365043000157
214.25088249565218,0.05396336162989623,0.1795942688576851,-0.07800798532721465
214.75384807173913,0.021775712019320916,0.0944382207439368,-0.03652592357154334
215.25134666888889,0.04256860111575384,0.1229411478826614,-0.08521785627061913
215.74884532391306,0.025874263321654097,0.1046436031884399,-0.03255791718051191
216.25181105,-0.03193307467496751,-0.1304115563063619,0.0538476782101377
216.74930982,-0.056693625212024965,-0.165943835796081,0.07119250662159436
217.24680863695653,-0.04526006106970984,-0.15566281232961193,0.08310414797137552
217.7497745347826,-0.047256397818800144,-0.1677774459555656,0.09310043950892721
218.2527404847826,-0.04779580618112902,-0.17571666169481964,0.060545156811383484
218.75023947111112,-0.029249845865259083,-0.11562059090820435,0.03515691823774146
219.2477385,-0.03412116306289605,-0.08460059301575637,0.045544626953325826
219.75070460217393,-0.017855105472950935,-0.05396584324638745,0.017271197917819985
220.25367072173916,-0.004410921454324236,-0.01954783706369546,0.008396347281906347
220.75116986,-0.005751951207709715,-0.011225707169106043,-0.005846597551253193
221.24866902173915,-0.0017218677367591122,-0.004518107098956685,0.0008306188709115469
221.7516352195652,-0.0003076649992714602,-0.0008732173874625361,-0.0026268638494428968
222.24913442666664,0.0024206555779445484,-0.004787592569087113,0.006774998505307346
222.7466336478261,-0.005808354454068185,-0.0021469035446540744,0.011844898487195986
223.24959986086955,0.004070486159976509,-0.0009110228414843502,-0.010996109851681177
223.75256609347826,-0.0016826227724846983,-0.0032282468241475433,-0.0002806759033600697
224.25006528666668,0.0037454024294346264,0.0004032425341724823,0.00434470803308727
224.74756445652173,-0.0029956790995114575,0.0002767098770136601,-0.0037614680523830667
225.25053061086956,-0.0014566603243671827,0.002156350744538162,0.004824043746765482
225.75349675434782,0.0030805852345925245,-0.003313583165828901,0.002770775680380208
226.25099583333335,0.0014426940559010982,-0.0009969077249102128,-0.00208504225815522
226.74849486521737,-0.0018703982007677105,-0.0009550136041250987,0.0022969017166427127
227.25146086739133,-0.0001474069088537864,4.5493476757002325e-05,-0.0011264962267213722
227.74895981333333,0.002399678591106881,-0.0017668398882478684,0.0002958248443825715
228.24645869347825,-0.0025886361827830084,0.0006314073375974529,-0.002351989352454187
228.74942453913042,-0.000857728817626817,0.0009980439432923807,-0.004280604471465784
229.25239032826087,0.0003057146546536981,-0.0003775262631503637,0.006289562343668335
229.74988902888887,5.560311855330365e-05,-0.0032822076505450728,0.00019498144654180543
230.2473876695652,0.0012802415055170565,-0.0003309278962027408,0.0010530023773113943
230.75035325000002,0.06252658231115019,0.015127510438518064,0.05494915890173242
231.25331877173915,0.3510701431316928,-0.21449926135868755,0.15656815860852238
231.75081718222222,-0.1495120670118459,-0.2996629428322814,-0.7046977859601371
232.2483155369565,0.019618031983826462,-0.15429065858518212,0.4331126578951336
232.75128084130435,-0.19165450205507947,-0.5316658951086479,0.28905223143772907
233.24877906444445,0.09009162981747228,-0.3122982402468009,0.2691552103332867
233.74627721086958,0.030736205720847228,-0.11873579200194141,-0.1115251294835774
234.2492423152174,0.061544755846300696,0.19722432923231584,-0.2431583610882241
234.7522073521739,0.06205073415533906,0.12486961183652587,-0.13003103563911153
235.2497052822222,0.018232608875207338,0.07682730486195685,-0.06734971411895631
235.74720315000002,0.002821513924792903,0.00817271714950881,-0.038746751880759024
236.25016796956524,-0.012703264477501345,0.027755321634377928,-0.02160274667445983
236.75313270869566,0.0472676583600037,0.23441039979347525,-0.19913923807239814
237.25063038444443,0.02792963538267926,0.1374865830693724,-0.1212973934193927
237.74812800434785,-0.011750521779416654,0.0076766585204340815,-0.012214849982459622
238.25109256521736,-0.014701409033121554,-0.14617610999166655,0.13062481980997442
238.74859008888888,-0.020070908940553953,-0.11838103560812335,0.07874670761511333
239.24608753478262,0.0025339931162286005,-0.07034056300431847,0.06969848049144885
239.74905195869565,-0.007651360960921427,-0.039815525847928204,0.028272166092495804
240.25201634130434,-0.0030312814611607396,-0.014285299862177364,0.013666623763791741
240.74951368666666,0.002917842656426438,-0.007703001207947455,0.00977726692078067
241.24701101956524,-0.05218854953215057,-0.029218814354861695,0.06132387573507075
241.74997535434784,0.16296299827595803,0.02994376418325769,0.014741249941765818
242.2529396869565,-0.04580110740456989,-0.018578699302720082,0.14174238415818968
242.7504370288889,-0.027438087198417112,-0.0018760059182219545,-0.11555248100846945
243.24793439130434,-0.04381935240528619,-0.01891173262128195,0.09323236028769338
243.75089877608698,-0.022257068895195273,0.004503008939526803,-0.012630217204465227
244.2538631673913,0.05864337694067944,0.009680379500282386,0.08176418632893981
244.75136058,0.009320494493220012,0.0016596517947356374,0.00979204421151288
245.248858,-0.03112206624132543,-0.011899978987332272,-0.04379925117888624
245.7518217021739,0.04451202146152835,0.010865887368084554,0.02648543163355737
246.24931808444444,-0.07926096536408085,-0.013788069170763485,-0.14776140330141094
246.74681554999998,0.009396613054881818,-0.012523634050407781,-0.0209694156586525
247.24977999130434,-0.030311211226188343,-0.00034822242490498807,-0.02129836307382783
247.75274445869564,0.06425585344972315,-0.007915719235388996,0.06285481610739381
248.25024189777776,0.022981916643594363,-0.002782132712985207,0.022915927136934258
248.74773934130434,0.012935880359042804,-0.015971734391586632,0.01210733144859579
249.25070378913045,-0.020701395370975203,-0.0008868447423522369,0.039843013267835355
249.75366821086956,0.0037578785540747215,0.002019476041621664,-0.00988267560469475
250.25116564222222,0.019997830403504967,0.00442112069780639,-0.06139799243525167
250.74866308913042,-0.004205271124288926,-0.004981279463369403,-0.03935527468499308
251.25162753695653,-0.0021965845829467856,-0.004618121166668558,-0.0017223839536009246
251.74912501555553,-0.040910919432631844,-0.1294517811661973,0.09346394686785227
252.24662248695654,-0.028916887821937777,-0.4181339018794651,0.3700798691131925
252.74958696521736,-0.042073807505625796,-0.41581734265968867,0.3528169487222373
253.2525514847826,-0.09850807306998764,-0.23689710081289198,0.186088206952325
253.7500490266667,0.058954824269204606,-0.11243627675048924,0.20635440997061033
254.24754658913045,-0.013668524996979212,0.050744377962980265,-0.13272276277065675
254.75051119347827,0.016673810435726317,0.04121886978233258,-0.0336220348012651
255.2534758347826,0.02977124680014573,0.06304482535217164,-0.054246303999376404
255.75097350000001,0.00790075383810919,0.06739837633434803,-0.0570229862198962
256.2484712021739,-0.009431461403634317,0.08130327530892072,-0.05311538636303174
256.75143594347827,0.022639937951611244,0.15690731473131747,-0.1673312894644846
257.2489337088889,0.053642996294929864,0.1583712026659577,-0.12726286426017988
257.74643150652173,0.04172471821981418,0.13798843348908443,-0.103420784515557
258.2493963673913,0.06527198612610653,0.16680799957802614,-0.14276616605689932
258.75236124130436,-0.0922134659491072,0.13583728785954854,-0.17067320058453123
259.24985914666667,0.0903353342026432,0.08646234174516305,-0.08748758522491602
259.7473570869565,-0.011602573621222948,0.040094850601150464,-0.032714876337453645
260.25032208695654,0.05377616065815021,-0.08735654687611864,0.005741515605965241
260.7532870869565,-0.08552271762513153,-0.26416500502827683,0.31883945095930305
261.2507850777778,-0.023915554658186445,-0.3444032668541229,0.3780108076309337
261.7482831,-0.06986036182608305,-0.18595750835688077,0.09851278862876617
262.25124817391304,0.11158934995700223,-0.0886628764552208,0.1378304440889476
262.74874623777777,-0.12246860989469063,0.06051495722809144,0.002629432621216897
263.2462443152174,-0.05035413161132341,-0.0029110387126982063,-0.0560428761819658
263.7492094152174,-0.5492012943688442,0.10185611242903503,-0.45582158379499743
264.252174523913,0.1399245494019414,-0.08495044829335274,0.4789257312478446
264.74967261555554,-0.06895286286557453,0.12053995183283597,-0.2994891677090307
265.2471707173913,-0.029843904155983612,0.14438282623122722,-0.19988484927177236
265.75013582608693,0.09122104403883845,0.09614855401305668,-0.13001408553478688
266.2531009195652,-0.23096804456942674,0.12673839572780152,-0.029851853144911976
266.7505989977778,-0.036450206973729866,0.08508865075091304,-0.051158715900411905
267.2480970804348,-0.08264715934052046,0.0828663953664532,0.03870086200910707
267.7510621304348,0.10475695160578058,0.030298157627175398,-0.18242698072139843
268.24856018444444,0.034454325593587756,0.04803175750413024,0.030717078598085316
268.74605817826085,0.010916432907515905,0.012124047546261866,-0.13927226502904239
269.2490231826087,-0.009420669969499607,0.06402574714501383,0.10373914886423945
269.75198817608697,0.07101156654096383,-0.012956840757725659,-0.0502044350352807
270.24948610444443,-0.03876251002226793,0.042731494497427754,-0.025239048783011992
270.74698401086954,0.03711215207647824,-0.023913255360383218,-0.048437825390574785
271.2499488804348,-0.06162723336623928,-0.01623532804503014,0.004723979507514832
271.7529137217391,0.07546257957884137,0.20592593606779588,-0.00922643131442483
272.25041152222224,0.09310732492868051,0.2933696852547416,-0.40437305700947923
272.74790927826086,-0.025274645487343865,0.310399317565124,-0.2251135305626418
273.25087402608693,0.04475247331187562,0.08063734203121055,-0.14633941944654957
273.75383872608694,-0.01857495924045831,0.0959578796440575,0.10152306633371415
274.2513363888889,0.07646944221968656,0.10781918065427672,-0.15671646125858327
274.74883401521737,-0.014272260690374837,0.14252121947251037,-0.13218001842052732
275.25179860869565,0.12157754377524436,0.1879001393264059,-0.1798051994751026
275.74929616888886,0.004944570697107916,0.06274803055968556,-0.09483155978647365
276.24679368478263,-0.15823441717511538,0.14205857245365114,-0.04563786766450661
276.7497581978261,0.37616885727322824,-0.15479743661483494,0.11551562626581112
277.25272267391307,-0.2740300044785438,-0.01263853149806353,0.038012969830679304
277.75022010888887,0.1393617404515823,-0.059710026116882066,0.011729312578383078
278.24771755652176,-0.16436114975362556,-0.34914625824693835,0.3230120609226989
278.7506819586956,-0.0481797651984111,-0.19930130316971298,0.11161920169617703
279.25364633913046,-0.0622654219396986,0.01328883200640343,-0.04151141331239328
279.75114369333335,0.14686259788458156,0.07487418821717629,-0.12365750178422587
280.2486410021739,-0.06476249101262627,0.0776874632909279,-0.19570948517775988
280.7516053173913,0.22548136757913795,-0.14261059560183503,0.2076997434659074
281.2491025977778,-0.2846057692688766,-0.2841090134418869,0.22021130114589868
281.7465998608696,0.05621318388658116,-0.2636677859255263,0.20367154072348792
282.2495641130435,-0.02439432310096216,0.08504720565674369,-0.032926288222472296
282.75252835,-0.07405116517785494,0.11736330965035327,-0.057803951575694915
283.25002556888893,-0.02184270113676628,0.02476884228356827,-0.06306608086912531
283.7475227782609,-0.13609833161485466,-0.09969629662868536,0.12867276813722264
284.25048694130436,0.14563597216078228,0.24665443370509227,-0.35810095752078036
284.75345109347825,0.02790345468523652,0.30810183194627816,-0.2806814566196685
285.2509482377778,0.04153853886497528,0.14490435310604077,-0.13245501095889264
285.7484453413044,-0.00255099919096562,-0.026724062405864703,0.03838410430995464
286.2514094282609,-0.0012077913622515655,-0.11425191166747706,0.06615093466978449
286.7489064977778,-0.041765918744499184,-0.15204146097515192,0.12357713623678962
287.24640357608695,-0.0183358315182121,-0.010361575710676411,-0.007690153009464039
287.7493675978261,0.05299099139422839,0.10567538672432629,-0.07654759779791274
288.2523316,0.007312084576102134,0.023582169307222126,-0.045568769083031514
288.7498286,-0.049513282497800105,-0.23295458507888725,0.1804120591266616
289.24732560217393,-0.09287553693943623,-0.3938326801076368,0.3080086162686396
289.7502896,-0.01080159723872555,-0.26648442958598867,0.20584686917968287
290.2532535978261,-0.022494789875744187,-0.1248734173871856,0.09073869593852571
290.7507505488889,-0.0183321379353256,-0.07175026747708574,0.1204756438362318
291.2482475,-0.00819234507315447,-0.02924988423876075,-0.026416665429792204
291.7512114673913,-0.0028324135171594275,-0.02704273252021546,-0.0016282286412068626
292.2487084,0.003076618955592604,-0.019106465106434472,0.054103245359986396
292.74620536086957,0.012466362912624263,-0.005338476816449503,-0.037184808264788954
293.2491693,-0.018323117033455204,-0.015346488026391344,0.07900717964395983
293.75213322173914,-0.0008357994081255296,-0.004994799213728571,0.008258747145232875
294.24963016444445,0.018820081787707086,0.00123030065077556,0.020019730044174826
294.74712709565216,-0.04596767396298766,-0.023755661532613537,0.04703985674978157
295.250091026087,0.018177824251925403,0.010583574433357118,-0.06342246193116222
295.75305498478264,0.009499974592832633,-0.001305226649517822,0.014764479156458213
296.2505519133333,0.031029424550930457,0.007540979468487656,-0.0036928218504933773
296.7480489,-0.03071616368061688,-0.02081662534306371,-0.020927683710237364
297.2510128673913,-0.03418215636835549,-0.006909548146909991,0.020650820206368423
297.75397682391304,0.03211642397840657,0.011381739319327778,0.0014529281868620049
298.2514738,-0.03874202902294753,-0.018038304253753076,0.03121591747762396
298.7489708,0.0031232110104889793,-0.0011391304206171287,0.026816942236383402
299.2519348021739,-0.02161195389490664,-0.009332264480516071,-0.02148240491577982
299.7494318311111,0.0038846827042764956,0.004470389004115458,-0.012922959888554915
300.24692888913046,0.0025517875580283334,-0.0008470316326124217,0.006784546870161712
300.7498929173913,0.08142784944271307,0.013274518916652127,0.050187561995014895
301.25285699565217,-0.16855195413722726,-0.04481678556213695,-0.03143074055197241
301.75035408222226,0.06792596491431174,0.0046135271472274465,0.06518094792947625
302.2478511652174,-0.020260887431745818,-0.007145885020152728,-0.013744777404479136
302.7508152847826,-0.00037157481022590097,0.00802556482106897,-0.036159562097272856
303.2537794043478,-0.046183073750758086,-0.021468928782452216,0.013554819405555498
303.75127654222223,0.06594456503786629,-0.02186043905222437,0.017094001152401447
304.2487736891304,-0.029007295779454587,-0.0024336967066189,-0.04864295573726274
304.75173785869566,0.007602009255265129,0.00041098399387131014,0.004300398131947733
305.2492350511111,0.007671902476215367,0.004019003760864946,-0.009132904855088568
305.74673251086955,-0.004274383630055798,-0.0021535455703355537,-0.005026113219704639
306.24969712391305,0.006935810842943554,-0.005057782699171786,0.0034370489951205596
306.7526614043478,-0.19107243972167837,-0.107055232605653,-0.02120776891106602
307.2501587133333,0.3979426866233029,0.1342190480378506,0.05090343390686126
307.7476560347826,-0.03783195545072589,-0.15900472251882378,0.14414850936944396
308.2506204130435,-0.1142506512854835,-0.3394293047611271,0.2945154711756544
308.7535848434782,-0.032914732268270276,-0.1727865565878532,0.1168635641134666
309.25108228666664,-0.04714300474608835,-0.11228942882448807,0.09739595019418999
309.7485797826087,0.021356917822113936,0.01662954546005804,-0.045491600502125265
310.2515443173913,-0.1170710978538068,-0.1533661878758286,0.14976831541186691
310.74904187777776,-0.01583341909263783,-0.14559472066630305,0.05184631424885053
311.2465394869565,-0.07431124776873906,-0.0639546470251164,0.024963880439577583
311.74950413695655,0.001613494124815465,-0.08565573832993356,0.04718432487938038
312.2524688630435,0.07719459697732889,0.03177835296719005,0.07922636030838918
312.74996665333333,0.016521524029520406,0.1976395229834751,-0.3171351135490766
313.2474645282609,0.05566788508914393,0.4514919955638545,-0.2763467464852479
313.75042945869563,0.05818843016873868,0.2468349178140313,-0.1761943130149957
314.2533945,-0.007873535288524393,0.0668131355517406,-0.009867890080972736
314.75089259333333,0.039969043623094516,0.06186557029584901,-0.014104966384768255
315.24839079130436,-0.03691194169308259,-0.1279484077643607,0.06067063320458494
315.7513560978261,-0.005969645464681816,-0.027080125332830395,0.018974111608893472
316.24885448,0.02492118270060908,0.2045511826765289,-0.11483421869814371
316.74635297826086,0.03565568074388197,-0.0651021938458758,0.028782339453783824
317.2493185978261,-0.06808029245147497,-0.20958895265773006,0.1593129813652601
317.7522843347826,-0.048978911952894055,-0.0659940715320138,0.01620522572701394
318.24978316222223,0.037192077833521325,-0.01536875654050814,-0.037768751012922874
318.74728210434785,0.0006590559025236344,0.14638526300858806,-0.07409209157866685
319.2502481978261,0.121932552244859,0.38084482178117757,-0.2319262384509657
319.75321439130437,0.1283813818799109,0.4295235555274909,-0.32803862766528963
320.25071368,-0.0443845900023534,0.19350924919842136,-0.15801807102627807
320.7482130760869,-0.015912092219799275,0.02529317209495403,-0.021470769715583374
321.25117961304346,0.04297589758540144,0.29094319044712036,-0.2139771985093009
321.74867921555557,0.03239561145735361,0.1554766517375121,-0.1280617847334512
322.2461789239131,0.045813070793345095,0.1184621173608347,-0.10316221016343179
322.74914576521735,0.00425201775280572,0.03881828790206659,0.037320157468838704
323.2521126652174,0.0677409768455032,0.05039880518355165,-0.0346312950279581
323.74961262,-0.0007397242650474306,-0.0440273701691269,-0.020171636123374703
324.24711266086956,0.0836136717251079,-0.12436524066004762,0.10125527605214651
324.75007978043476,0.09545478582782076,-0.3518813909346324,0.38420815141223164
325.25304697173914,0.45194723157241234,-0.4412735200794016,0.42226816774375364
325.7505471666667,0.194497139567324,-0.36430119932431054,0.36557200947322827
326.2480474130435,0.08078081044211614,0.2131626161571442,-0.12667807793987818
326.75101473478264,0.4696096363110822,0.018908353299570527,0.04248466399305169
327.2539820956522,0.11415831754760966,0.0298896375574789,-0.016755084650009362
327.75148247777776,-0.14426383019085612,0.04270739337362235,-0.025923925945657317
328.2489829,-0.3545275854713587,0.1642826119336862,-0.19263302836717627
328.7519503913043,-0.3277287435770476,0.26900820491928534,-0.21638720910116138
329.2494509,-0.3535707038238032,0.0838402997227481,-0.18841768839474382
329.7469514434783,-0.10780811154686863,0.02234049866171881,0.002423257135754478
330.2499190673913,-0.12208584400047018,-0.23553855657833328,0.11753761978435091
330.75288673695655,-0.16177255300743584,-0.07310331064635925,0.022060752927226004
331.25038739555555,-0.08859170500839512,0.14090711872614425,-0.13326432304323024
331.74788810217393,-0.47930188410600655,0.029022749185008592,-0.13361505319566816
332.25085590869566,-0.9997280068843115,0.1403164883332471,-0.34053501395098185
332.7538237956522,-0.8246530807249124,0.1646189225647432,-0.25131116752584115
333.2513247333333,-0.37387601125784564,0.338480425372323,-0.32381531977246625
333.74882576304344,-0.7268324519762672,0.18649358412053413,-0.14365132982221682
334.25179393913044,-0.5402172306042997,0.3202812789366466,-0.29001859192435814
334.74929514666667,-0.1357970202960545,0.28084842603809823,-0.23674892362137326
335.2467964347826,0.44024733803285904,0.2190413526560185,-0.15997432921097612
335.7497648152174,0.31702781834500354,0.03828511506340432,0.04614510732751159
336.25273325652176,0.13745212018362948,0.42956035119821245,-0.2285959546184042
336.75023469999996,0.543829188346698,0.302246111025263,-0.23781243670650218
337.2477361695652,0.09717103527534426,0.19904496234108776,-0.13823497534561682
337.75070474999995,0.0556291465706587,-0.09958812306870479,0.056381163857244926
338.2536733869565,-0.07241538207337177,-0.20125722276975874,0.1697803083386266
338.7511750244445,-0.1070242845593682,-0.06747450079111425,0.06465057866453887
339.24867671521736,-0.08576989738548857,0.1292187649160881,-0.36054103695684925
339.7516455086957,-0.5865706745999045,-0.15158091860770642,0.10194649544126906
340.24914730666666,-0.49603303472315585,-0.08341419008891154,-0.11749211083637405
340.7466491847826,-0.2802698611879947,-0.05178423815095022,0.09065144025157638
341.2496181673913,-0.012918296317088695,-0.05322099152821387,0.015506515816669213
341.75258723913043,-0.2550675704605161,-0.06348478363944074,-0.042846945953695224
342.2500893355555,-0.34718046687179027,-0.005773972675238771,-0.058826227625717445
342.747591526087,-0.18732283503573902,-0.09493631220740496,-0.025186209777628137
343.2505608478261,-0.26822654517589606,-0.09461462963453807,0.019070682679468157
343.75353026739134,-0.28270892352121413,0.08835260414931258,-0.12729028442403925
344.2510327311111,-0.09257706008068989,0.15182570041403176,-0.1604029312397293
344.7485352804348,-0.3567601266030187,0.18347463949730664,-0.1722059696933085
345.25150499565217,0.27534192842162736,0.15499551788766422,-0.1347881528058242
345.7490077244444,-0.18690747768882007,0.29791269404090165,-0.06980342104580185
346.24651057391304,-0.2091735900136165,0.3489094294605793,-0.1824248498536065
346.74948056521737,0.02589872693660484,0.4685246961789373,-0.08837447505768296
347.25245063478263,0.11356457839588707,0.6567416212398846,-0.5602153193062698
347.7499537377778,0.3581183899859324,0.35527286110984957,-0.2503072689943613
348.24745693478263,0.2986668974301485,0.6184780662071586,-0.22390984361009933
348.7504272782609,0.840425360812821,0.2728709707153722,0.2915358716386544
349.2533976978261,0.4697323120329688,0.4561060765983918,-0.7344056348707815
349.7509011355556,0.689058123680813,0.14345409374708368,0.7324743703591514
350.2484046391304,0.5611231729510322,0.3230658867737341,-0.33057155617798606
350.7513752739131,0.6286720754467232,0.23662353012071088,-0.0466538830740398
351.2488789066667,0.4661513214671517,0.28238906187539864,-0.1096118595260587
351.7463825978261,0.36505713446053156,-0.0725033695675843,0.19904077676284743
352.24935342173916,0.23602040492938067,0.03026380940509086,0.03022767161300394
352.7523242913044,0.03587854569179366,-0.5787712447736988,0.40910563444357984
353.24982813555556,0.040244591202123065,-0.47363377472814794,0.3161041551806611
353.7473320130435,-0.05346447341780016,-0.37675365282378903,0.3299874031857397
354.2503030043478,0.04754297285255022,-0.022162112192325837,0.010887956356482622
354.75327403260866,0.04256809762335604,0.28279827091716914,-0.12021741284225407
355.25077802,0.0780034086560119,0.3600460294684749,-0.2871722112323887
355.7482820413043,-0.03779401585362155,0.37229391165855,-0.2061037781414759
356.2512531695652,0.06772922837374241,0.08520558943066439,-0.061282982843045494
356.7487572688889,0.019344406785110946,-0.04244450340877294,0.022455892229633914
357.2462614043478,-0.04635864625646392,0.016894651590089994,0.013182783786681097
357.74923266956523,0.07542132093651056,0.19519617285174193,-0.20298026257123047
358.2522039847826,-0.016392076835541444,0.14720483097429599,-0.07081431504864805
358.74970827333334,-0.009997049057356608,0.06946584472853334,-0.07520067569497044
359.2472126021739,0.008592801597326269,0.041350930473387684,0.028191395128253794
359.7501840652174,0.05642049421779328,-0.025888118762862122,-0.014690597602592769
360.2531555869565,-0.07185840731124483,0.06388601593290906,-0.01625117035563401
360.75066009333335,0.06587355546819672,-0.008921576949912087,-0.013411648727582224
361.24816461739135,-0.035054824323558574,0.0557777792725018,-0.038876799494780186
361.7511363043478,0.022112903764183525,0.02380118012481092,-0.012093965676251747
362.2486409511111,0.0065107587295091624,0.1290030473885402,-0.08683624975785902
362.7461456456521,-6.190456676007155e-05,0.2304234683853712,-0.15574551690578745
363.24911748260865,0.026294649621543775,0.1280640154640043,-0.06811635788418366
363.75208935,0.02611775917420814,0.024611254495033853,-0.016687993935477825
364.2495941866667,-0.007420134010755401,0.011368930674814556,0.0018966944106516435
364.7470990630435,0.0013607707307769488,-0.0073177959270733384,-0.010354540418794146
365.2500710978261,-0.006107290582024702,0.015085656309026436,0.0006451597802883504
365.7530432369565,-0.010362974007670344,-0.14830643930421242,0.09988098750088634
366.2505483977778,-0.040729454360656704,-0.3847380458378522,0.2458786058304286
366.7480536913044,-0.021451623764487667,-0.3479408711780009,0.2204182243775767
367.2510262369565,-0.020585306076618504,-0.23841137548326827,0.16799561442935207
367.74853185999996,-0.014589585396083052,-0.08261714418922733,0.05383702755339778
368.2460376391304,-0.004257114312250007,-0.05148895208653206,0.02908383629774224
368.74901066521744,-9.746792275549122e-05,-0.017037227885950884,0.020345977477431342
369.2519838217391,0.0015776980546445272,-0.008736724590783002,0.006870226146115213
369.7494900288889,0.011070988803449436,-0.002001589428805705,-0.005355511971157199
370.2469963130435,-0.013840863772613862,-0.0076654265988253785,0.010794651155481927
370.74996980000003,0.0024870043829227978,0.0022536534484059985,-0.008266341197846926
371.2529433673913,-0.0028891217655424043,-0.0066114103036293,0.01294067338295222
371.7504499,0.013637133223575614,0.00620831796995851,-0.008112540331924663
372.2479564978261,-0.013267673656305948,-0.005999115430351608,0.010744391667081871
372.7509302478261,0.009100369240787635,0.002608253951642335,-0.004769149124310756
373.2539040543478,0.0017680392996129001,-0.003752300288673781,-0.007760419041425302
373.75141079555556,-0.004218512060823,8.22640925623521e-05,0.008025848815271129
374.2489175695652,0.010519796536247272,0.0005769015196828314,-0.011691600320963976
374.7518915021739,-0.009152704008069975,-0.0008411064769309224,0.0104570386088198
375.24939837777777,0.0003475899151397065,-0.0015302350459686107,0.005000340793803124
375.7469053021739,0.011927967469761835,0.0006214026989850473,-0.004497213131704685
376.2498793652174,-0.004414136767690009,-0.0016647149325755132,0.0001389756146696245
376.75285344130435,0.0002559299832201673,-0.0026067870195850525,-0.01894149497406512
377.2503604622222,-0.001008774678212195,-0.0023937510840759276,0.019376404113386717
377.7478675282609,-0.03317262658451241,-0.016132457426020697,0.01928345034137773
378.2508417304348,0.04149358164364335,-0.007429504862041992,0.009000098253692718
378.7538159630435,-0.09130934422969074,-0.02016350357648873,0.05995546966393755
379.25132311333334,0.001757998208209106,-0.00598647647039516,0.09265780038654922
379.7488302782608,-0.06876441489032768,-0.15344891360553567,0.06887415790703501
380.2518045847826,-0.09875495532614269,-0.5210869383728728,0.3870626649964015
380.74931181777777,-0.08318423499482062,-0.5099330316648782,0.383317433147497
381.24681905652176,-0.00044934597832667133,-0.2079144476478776,0.19177162299754383
381.7497934369565,0.0032184039179198706,-0.06243099338376568,0.006783314809150697
382.2527678478261,0.003726338649214312,0.14528922319865195,-0.10703090271055793
382.75027516222224,0.03774717267068135,0.4132650842606051,-0.28402916544940965
383.24778249782605,0.05721253261316749,0.2617729769942434,-0.16240913531265183
383.75075697608696,-0.030555462308119313,-0.1516472355558948,0.09126735658345782
384.25373147608695,0.03127413611138228,-0.1994534482029947,0.1577696960182858
384.7512388888889,0.2374015280398565,0.003168767316529352,0.0599279030249569
385.24874632391305,0.038733943860846214,0.0850088001989023,-0.00804952852595118
385.75172089347825,0.2654593756777066,0.01453906736299771,0.08842852237738265
386.24922836666667,0.5546669296718059,-0.030472056709917036,0.21523356193161675
386.74673586521743,0.3010070017906638,0.22897073170562118,-0.17793730066765107
387.24971050652175,0.23457410539529674,0.3140442181637363,-0.22092216179149649
387.7526851586956,0.4083951933085519,0.2703947078557512,-0.17600922454337847
388.25019272444445,0.2586182350432862,0.15627891117620538,-0.06899443939386606
388.74770031086956,0.06832706689782764,0.09672760167426275,-0.047054940916848975
389.25067505217396,0.14603106226469315,0.0013415867395854088,0.01662496699867974
389.75364981521744,0.03013110237976655,0.0007140433007227547,-0.01442727239850911
390.2511574888889,0.17457561649845565,0.1271082958859147,-0.03409764101591893
390.74866521086955,0.2874098225084257,0.22288821760369495,-0.18372230458836755
391.25164008043475,0.3894448787158331,-0.22608279980334278,0.2366312164740192
391.74914791555557,0.06822601536363115,0.012714457008770323,0.021978919806984187
392.246655776087,-0.22376205581491318,0.23522781819215804,-0.26681346448962345
392.74963079130436,-0.6190507110116937,0.029572333024292147,-0.029396499661000025
393.2526058347826,-0.39878278720456767,0.11184728062480966,-0.2219117106432175
393.7501138288889,-0.2630856479647786,0.10228386120547324,-0.0512987315029522
394.2476218608696,-0.038724993600776136,-0.0036859891041947693,-0.05850293875024088
394.7505970673913,-0.11535082950166857,0.024111554009846773,-0.0014354824009018589
395.25357231521735,0.03527344366198386,0.019458617405641313,-0.04058588532096692
395.7510804911111,-0.05270100490130152,0.017442269384892507,-0.017189296690621397
396.24858871521735,0.01455052536564424,-0.010876604934675764,0.009140788392224037
396.75156409782613,0.017408672445077437,-0.04147336493710355,0.03391770596686498
397.2490723977778,-0.002600174686842265,0.013940648443135566,-0.015132975018754262
397.74658073043474,-0.011224913860905416,0.09489634343843609,-0.059769690059171966
398.2495562195652,-0.015406078505969945,0.018511651155087173,-0.01123087602514419
398.7525317413043,-0.008658598598200482,-0.03138208291612631,0.024913222400161597
399.2500401622222,0.056736378879488826,0.050947308628885205,-0.029707349292377807
399.7475486152174,0.011274916291177575,-0.002308495261836361,-0.050028354272207885
400.25052422608695,-0.03438937373635167,0.08144093975594394,-0.0153267052892094
400.75349984347827,0.011050710050669403,0.03892857071802205,-0.08200436392390079
401.2510083711111,0.030417977510896248,0.02951532890988566,0.019547150007503768
401.7485169043478,-0.028276342656883578,0.007417293601419419,0.010574397108952272
402.2514925978261,0.017784836953468088,0.026491281369720735,-0.06935547309634708
402.74900118222223,-0.038830184853686556,0.05087086009233009,-0.013359730204873979
403.24650978478263,0.13924384702513304,0.01931766693229522,0.017081837882982648
403.74948553043475,-0.05512329541022532,-0.017621974193534555,-0.061720400164583744
404.25246130217386,-0.22623036093905932,0.05590128357694764,0.057331364433578835
404.74996996444446,0.27223676521992235,-0.09597954239260796,-0.10286294048627503
405.2474786369565,-0.041698962731196394,0.04442579947639327,0.08533810816658144
405.75045446086955,0.041792390573230205,-0.01470344516269479,-0.06549687475597024
406.25343029565215,-0.15001342692622907,0.05912139940293897,0.07078793253265764
406.7509390133334,0.11593866327291819,-0.03722191916028951,-0.07045159149687613
407.24844774347827,-0.02161417308185166,0.03931597148895445,0.03709300612364786
407.75142362173915,0.00017748599999211948,-0.061294846146628175,-0.018278783291470976
408.2489323777778,-0.02175702763528299,0.02747774008153091,0.04674003777747641
408.74644115434785,-0.024649754531880612,-0.04338136932960636,0.002807447463665265
409.24941706521736,0.04293232172223914,-0.11839575573648996,0.09078844006694878
409.7523929956522,-0.061769574291865956,-0.012211204226545482,0.024780387433135286
410.24990182,-0.05279134929525236,-0.25050287321656134,0.1767087344638325
410.74741066304347,-0.13184988884266294,-0.478287972774784,0.2268503197983621
411.2503866673913,0.030383636884799996,-0.11417141890207279,0.060523966597398796
411.7533627021739,-0.04160175162130711,0.0717841619935045,0.10903904212046785
412.25087164444443,0.06790972949221628,-0.12272988405232381,-0.07745164387779022
412.7483806369565,-0.06564450781977793,0.2239910135155257,-0.07389982640432154
413.25135681086954,0.02608826777941078,0.2547013485587573,-0.20225553136432853
413.74886590222224,0.09061877925427157,0.09869254451999603,-0.16566753332593606
414.24637504782606,-0.07041320669785486,0.06658923176672638,-0.07157350506027639
414.7493513913043,-0.32470529848719004,0.2363868184061119,0.0039017923803610307
415.2523277565217,0.3458609551391604,-0.19827607589899207,-0.4646595456299313
415.7498370488889,-0.5481225386124621,-0.38744880679891625,0.06374034073568793
416.24734641086957,0.42200269310747257,-0.260545119809757,-0.26024204097628895
416.75032295434784,0.25746733179937953,-0.8971980281268462,1.354860756270874
417.25329955217387,-0.43238930503279543,-0.42897810004843107,-0.8036238384655501
417.7508090688889,-0.44594006941386966,0.17829815174990615,-0.5398153616057205
418.24831861739125,0.5847546303292724,-0.05593676288692362,0.28193905866016034
418.75129537173916,-0.36795549595190935,-0.1196331636782295,0.06087932074328578
419.2488050466667,0.28322344787443127,-0.09194143424068561,-0.4003394394116369
419.7463147804348,-0.18107282331428373,-0.11381528052351274,0.22524747200689443
420.249291723913,-0.16004987706868876,-0.535669317092368,0.4087450561779615
420.7522687347826,-0.17889589451099408,-0.22055799092667605,-0.013138900517206242
421.2497786644444,-0.0960531178822442,-0.2966782586507984,0.17743224728077886
421.74728863913043,-0.02566741633555982,-0.07245877539834829,-0.14469333292399425
422.25026582608695,0.15148072063809856,0.1217496860957146,0.08631636592284207
422.75324305,0.08297190376995403,0.16736442149016134,-0.359511638054092
423.25075317555553,0.1211570645479283,-0.032044472558230966,0.220267726263999
423.74826333695654,-0.11264808509213327,0.0350248261446814,0.36972363024193355
424.2512406717391,0.11350870423639119,-0.4095282663854347,-0.7741387755862275
424.74875088888894,0.014341289463498915,0.25267378329745865,0.13181594168243474
425.24626113913047,0.0467019155140212,-0.020192380809726334,0.5582183490088477
425.74923820652174,-0.27618053847021107,-0.45945309019110303,-0.16627566880922293
426.25221514782606,-0.07586632361520755,0.1140118679549019,0.0366453297346855
426.74972547333334,0.5664620975699772,0.06061146321081645,-0.26750719830350744
427.2472358130435,-0.22678989437891453,0.4212365036239945,-0.2776897259521913
427.75021333043475,0.5776039987819415,0.01148506094517132,-0.09552460745043191
428.2531908652174,-0.287127881035231,0.4077527103847903,-0.15126420529286394
428.75070127555557,0.4463857710223003,-0.07354104179152897,-0.24465244142939066
429.2482116956522,-0.26788397075896514,0.3537677498201886,0.08115619918036261
429.7511892543478,0.21695815637825533,0.009456408844824219,-0.09814802569626518
430.24869968,-0.13669929865666164,0.15128604184765312,-0.009471138502603742
430.7462100826087,0.056872883544076956,0.034011217157108455,0.016515106329841683
431.24918764565217,-0.07290064353317682,0.08497990332845583,-0.04007644026323437
431.75216518043476,0.12333543153916507,-0.05323330429158616,0.043925520101098944
432.24967555999996,-0.09971219542150299,-0.01097907565973525,-0.10310631926291046
432.7471859173913,-0.019673831958236264,-0.0157135445565476,0.03537766552463285
433.2501633934782,-0.11091458858671949,0.0796500641107418,-0.045365855887123836
433.7531408456522,0.13427464110242174,-0.10001009886258308,-0.050894324286559954
434.25065113777777,-0.14897266739716278,-0.01443619278417619,0.07909375759307213
434.74816138478263,-0.04931932870447412,-0.09111008098547806,0.07340263268397157
435.25113874999994,-0.05049502136183786,-0.05102542540294306,-0.024856773284833985
435.7486489488889,0.013449155090358945,0.04846686841603975,0.0029080484065230525
436.24615911086954,0.07224714441446448,-0.03363097748121397,-0.017482066811113136
436.74913638695654,-0.07795838682603778,0.07191858722845272,-0.0046414935219890605
437.2521136282609,0.2189940305287223,0.1255902477404801,-0.0990377627714469
437.74962370222227,-0.05202689259758994,0.06874302314796606,-0.0317424758564557
438.2471337347826,-0.045033994451596414,-0.14459668769219275,0.04346161271137937
438.75011088043476,0.10401440602251659,0.21511969470595477,-0.07328193060611685
439.25308800000005,0.09199345034727986,0.10200609212154324,-0.030128166167697666
439.7505979311111,-0.014105011094315396,-0.05322787858370686,-0.03287429418709756
440.2481078456522,-0.19065652508219985,-0.022814337724150324,0.10039758637537631
440.7510848630435,0.23848714072531094,-0.062070178769192554,-0.1433786052459469
441.24859469555554,0.08225555556077617,0.09569966362154142,-0.05860837411163861
441.7461044869565,0.09935389109506401,-0.09255729828963732,-0.05439102541372205
442.24908139347826,-0.1467222764498799,-0.11341368525097707,0.12850147027491723
442.75205825434784,0.02798901528108564,0.01364298363962295,-0.01434222341598576
443.24956794444444,0.14601625645747918,0.11632630983008728,-0.15256138651346857
443.74707758478263,0.12964126518525473,0.16499202477946334,-0.09705947153396723
444.2500543260869,0.1203160788820487,0.09182828796173341,-0.03030961319139537
444.75303102826086,-0.03769368389196882,-0.02524874996063604,0.025489080944577344
445.2505405466666,-0.25155431290389996,-0.29359272645741025,0.16181549693213437
445.74805003043474,-0.16237232900235088,-0.1954047947335799,0.17801502436338157
446.25102660869567,-0.037833206914504224,-0.29189731551861564,0.11997784915114608
446.74853602444443,0.010279375323146486,-0.07371145996011269,0.03745264672137454
447.24604540869564,0.19768707815414305,0.04569124186261959,-0.07794971852919437
447.74902186739126,-0.038594840512663146,0.18988588119395858,-0.19846372759330902
448.25199829347827,-0.006017860999544745,0.19042796705580362,-0.3703545420163686
448.74950752666666,0.1174088071955218,0.15513254395689302,-0.20305913219345986
449.24701672826086,0.1303731191379362,0.25189390527632854,-0.3378404932997022
449.7499930239131,-0.0036183639076504343,0.07112325684432079,-0.1010667469264097
450.2529692782609,-0.015229238013286177,0.018749362828435978,0.018698947767183675
450.7504783622222,0.22544492981470754,-0.1533415274472696,-0.15463834880984811
451.247987397826,0.1665196319639385,-0.032775915789719876,-0.09838083227421192
451.7509635086957,0.3412043158860311,-0.17780710341029268,-0.09715612813777133
452.2539395956521,-0.194074296959153,-0.061862552078790496,-0.10552199446184261
452.7514485222222,-0.3338893827347944,-0.24103559132943253,0.09968191149521075
453.24895746739134,-0.32852664965713785,-0.3031289737360807,0.18288287874539436
453.7519335608696,-0.16249290124786678,-0.1975824874003517,0.1233271508469867
454.2494425244444,-0.062085263602013746,-0.07826221889055567,0.04808030595767565
454.74695151086956,-0.012216077418894591,-0.05535077648274221,0.048230212390633055
455.24992765,0.010658086565116081,-0.03805534705586939,0.02850249184770325
455.7529037956522,0.011741114438787078,-0.017864187865718317,-0.017197070583578427
456.25041283555555,-0.009167664752618761,-0.007337473950021734,0.005047065896707103
456.7479218847826,-0.000880221813985333,-0.0034747705179839,-0.0038346218474735712
457.2508981043478,0.007322382048118815,-0.01635423936821689,-0.012161023494823375
457.75387435434783,-0.02763796676607873,0.11223685912559091,0.11172043663707962
458.25138350444445,-0.0005788544689393938,-0.14531154244206837,-0.07643510441202853
458.74889269782614,-0.001443926524887138,0.0035925663406313514,-0.12521650679110402
459.2518690695652,-0.002911730693134455,-0.013750405596835125,-0.004234491201608065
459.74937833555555,0.0342898074622139,-0.009707458168485958,0.0586412646733073
460.2468876826087,0.011434918276052827,-0.01779514052064566,0.0011393438398411004
460.7498642130435,0.008269312415279036,-0.006542073784084303,0.0020157566813069215
461.2528407891304,0.0059950589967657395,-0.008084110290482604,-0.003865539211189365
461.7503502844445,-0.0044735949236183545,-7.52240673377285e-05,-0.0005630947887780327
462.2478598413044,0.003297739178296856,-0.002275089381683898,0.007607952427319486
462.75083658695655,0.00021231128996693178,-0.0026586941913052963,-0.013439764255481781
463.2538133847826,0.0006115016144635234,2.8288216204133204e-05,0.00967447708496057
463.7513231022222,0.0065574832149797235,-0.002327693537239116,-0.0063863906853547925
464.2488328695652,-0.0020993340709192917,0.00011296286652458907,0.015174588912694556
464.75180981521737,-0.0012315488348673184,-0.0030854853318931868,-0.009497164073861893
465.2493196711111,0.005196131053705987,0.00019529303131384597,-0.00792237240359906
465.74682955869565,-0.0036393663518424525,-0.0016097002789513901,0.00847604218246903
466.2498066347826,-0.0006128802497960189,0.0014123895879575583,-0.00147291658831899
466.7527837434783,0.0007470828867504675,-0.0027979681486818213,0.0017685069569648736
467.2502937488889,0.00032805869364140494,-0.0006914945366333077,-0.0007145512778512966
467.7478038,-0.0005265895019031803,-1.0566975974636508e-05,-0.0006556725002821822
468.25078101739126,-0.0004652343067366596,-0.00044042857220317295,0.005786331960830729
468.7537582717391,0.025002085439412295,-0.0050067878939954015,0.03762363274130136
469.2512684088889,-0.04106791997530726,-0.010338434721386845,-0.0552702404929383
469.74877857391306,-0.06934217167551593,0.02546048405310444,-0.0593248083692321
470.25175594565223,-0.11855112337796171,-0.11656134846807317,0.12044675018590828
470.74926621111115,-0.06265224068049534,-0.06805865750786515,0.04572141074814681
471.246776523913,-0.07203219526601713,-0.09935182373329793,0.10709078286109822
471.7497540369566,-0.052788140039342776,-0.06397196276467809,0.03155511766102152
472.2527315934783,0.031250866046457035,0.042733995141089616,-0.022040091214529003
472.75024205555553,0.10956384119505241,0.14925899799949252,-0.1232028460341422
473.24775256956525,0.0670472171878802,0.0862707026549215,-0.105264968093736
473.75073026521744,0.02456425282306392,0.046019341264003207,-0.05085055839469
474.2537081195652,0.02015608369942904,0.012678832321596653,0.004592613855590461
474.75121868444444,0.00020299508562506995,0.01562632872810748,0.011279791974266517
475.24872935217394,0.007239000504457589,-0.005281551940709407,-0.02203825700000554
475.7517072304348,0.04590238642309822,0.06970928502599158,-0.044127548879496124
476.24921797555555,0.04448901152269677,0.0713080570818273,-0.2016947962856153
476.7467287630435,-0.19575708295962346,0.1612535193598282,-0.2613222320418004
477.2497067565218,0.1026277183813221,0.05707399143415436,-0.11639996677046918
477.75268478260875,0.04726970292347432,0.07177982572159432,0.0025689154378802782
478.2501956933333,-0.0015082652374934348,0.016798302244714784,0.05744000218169087
478.7477066413044,-0.033914410791484724,-0.05497377544445298,0.03279010925194006
479.25068478695647,-0.0302085363044751,-0.055079107967681534,0.03466328708451085
479.7536629717391,-0.03425004701797134,-0.036648963762937664,0.046957768993398236
480.25117405777775,-0.021969743973047535,-0.03137793928033902,0.0270932456412386
480.7486851478261,-0.015157708678336797,-0.026335619964924707,0.03018726398963163
481.25166344130434,-0.008587254527657717,-0.008516173196278443,-0.01345679875063103
481.74917459999995,0.016164295747738026,3.006301224477302e-07,0.04898674168475187
482.24668580217394,-0.011599554611347832,-0.011355295585303479,-0.025334361804104706
482.7496641869565,0.002558506669222229,-0.0024083736991549398,-0.009184528158659434
483.25264259565216,-0.0011143018681794617,0.002817147942323003,0.011198367302860236
483.75015386666666,-0.029816462092345484,0.02239671382352775,-0.0006323106041193251
484.24766515652175,-0.17188759593621192,-0.3304462620425971,0.23770701712783116
484.75064361521737,-0.333780511435232,-0.42430929433165215,0.390469583736048
485.25362208260873,-0.19590557325694716,-0.3002846158832535,0.26808837126477064
485.75113348888885,-0.07238163618807718,-0.10613878625114691,0.09031634851388795
486.2486449282609,-0.050349737740787395,-0.02800028625764023,0.044790920411303496
486.75162342391303,0.060136339039055936,0.009778358911684137,-0.035973128436650965
487.24913475555553,0.12173566589275937,0.18289224663338502,-0.13441581926065804
487.7466460956522,0.11985351267182444,0.30782005346515534,-0.23901678354896966
488.24962458478257,0.24424853428807228,0.24368610579758024,-0.32196943820930957
488.7526030869565,0.1453403824927456,0.16784049609853446,-0.09074868421888309
489.2501144511111,-0.049138905137726376,0.03447446628694293,-0.007924490389139439
489.74762579130436,-0.22145414230628357,0.16409370219764857,-0.0624637759441556
490.25060430869564,0.043047385266767824,0.0071942410202816675,-0.20600599673994627
490.75358280434784,-0.06708928523641813,0.021968244970440275,0.14198083831591776
491.25109414444444,-0.07728852563298118,-0.016907336968734414,-0.16147464820170396
491.7486054869565,-0.10658777624417398,0.12923751659037475,0.09429891470789975
492.25158396956516,-0.07250860169153693,0.019522407493048746,-0.09250258905275974
492.74909529555555,0.03686732333618649,-0.05683106604728057,-0.060575758279431555
493.24660661304347,0.06007053502384081,-0.26768572274425717,0.20687627006283027
493.74958508260863,0.03239730004151256,-0.07816496935337693,-0.08295808756222695
494.25256354782607,0.02857200025916524,0.16139642591948106,0.1589107255731835
494.7500748511111,0.12773158388947425,0.028168570877048806,-0.10547342054689506
495.2475861434782,0.10476285197770178,-0.009510727434950935,0.02800032358154732
495.75056459130434,0.09721710762487051,-0.032716413016244165,-0.08634536855451286
496.25354303478264,0.019798792008101248,0.0061571458796618374,0.08730512411916626
496.75105430222226,0.03484059899633375,-0.021485548259651134,-0.062175163879845195
497.24856557173916,0.08762324680746995,0.1361897165511041,-0.0455078998456903
497.7515439782609,0.2553409542015613,-0.19851814240310114,0.11705540929877245
498.24905522666666,0.2004715677698953,-0.2640699920778474,0.31715973088462435
498.74656647608697,0.0956670056240453,-0.16273612565522527,0.10480957693264135
499.24954486739125,-0.026072903014500392,-0.016462773900849416,-0.003755947397672657
499.75252324347827,-0.040661519910237344,0.1875839443135495,-0.12357170920035908
500.25003446,0.010318490242702618,-0.003682591002701216,-0.016999254753119676
500.74754566739136,-0.08705795732131906,0.0945960288746757,-0.07107440040823083
501.2505240152174,0.007712116660872734,-0.01684308897128161,-0.00123401073846841
501.75350235869564,-0.22719125241256605,-0.20139312075407292,0.18815011977514545
502.2510135333333,-0.3085020198091812,-0.5591469186563303,0.329930549942361
502.7485247,-0.30313122765143447,-0.4168473904006695,0.30793123961213476
503.25150300869564,-0.0282151661250484,-0.054997870528138273,0.04587489277331845
503.7490141511111,0.007096725427905147,-0.030001226260161183,-0.0344419387889359
504.24652527173913,-0.014364057944878527,0.01564277526273018,0.06165756231248878
504.7495035347826,-0.0012052494187388837,-0.0016109003008345927,-0.04332290665351144
505.25248175869564,-0.007045588519310847,-0.020335622440667375,0.012032224137828267
505.7499928155556,-0.02994400322760222,0.0168417940639705,-0.01238326955480281
506.24750385000004,0.046080418468145964,0.014669385358964029,-0.027677188355841396
506.7504819978261,0.05880112897291588,0.0727622534315993,-0.03409373709048095
507.2534601391304,0.08606101971568379,-0.0033811897695519384,0.061839857224720574
507.75097110444443,-0.12466978430009815,0.009710469539198834,-0.16844546583586106
508.2484820413043,-0.1113557005492256,0.00028649304956671274,-0.03419356610717249
508.7514601369565,0.10611967731833107,-0.05669363920273717,-0.004090811344293127
509.2489710755556,0.037796951683933495,-0.003694286585250978,0.030102787850531335
509.74648201086956,0.02719128564277854,-0.00369233928671762,-0.05298002856769285
510.24946009130434,0.07267993467471781,0.03266856845372009,-0.009471304732900579
510.75243818260867,0.10423873452686404,-0.13539085760444128,0.0965874523046759
511.24994912444447,-0.2341397426199923,-0.14959521701201098,0.22213812357839452
511.74746007608695,0.13454049695803455,-0.12199728144873592,0.030973426648077337
512.2504381630434,-0.28762556184668314,0.1669931342671643,-0.24594080045567898
512.7534162652174,-0.24337250665577545,0.14719124279421344,-0.22815804521369812
513.2509272333333,-0.023355164682924215,0.2605904567012351,-0.13728085415257568
513.7484382065217,0.07606170756339169,0.028169910403707775,-0.01458305684663228
514.2514163695652,0.16568807228919016,-0.14911324418129163,0.0262896091610579
514.7489273866667,0.28532305055781365,-0.5450031061987143,0.3822586008574709
515.2464384326087,-0.21949803339840204,-0.367172371303713,0.26656079292629115
515.7494166434783,-0.22791383483723757,0.6310118729845068,-0.5836707820778188
516.252394871739,-0.40880297295868934,0.3640084067653093,-0.5426619351323823
516.7499059644445,0.3547640328431572,0.3882850337675333,-0.053554095544395164
517.2474170630435,0.1497725759194904,0.25857844292856225,-0.3381670724220525
517.7503953369566,-0.3196504074325592,0.3532144525391653,-0.10687818215148745
518.2533736217391,0.23813598713026046,0.14071977397256377,-0.22530939415515336
518.7508847488889,-0.12462236556064155,0.20842550850813302,-0.22647544557548857
519.2483959021739,0.10302749600112426,0.16184856287213736,-0.026008031318470983
519.7513742239131,0.03470589735731645,0.1809369993743264,0.05044653512371889
520.2488853911111,0.029709400615348974,0.08711095046788235,0.03109196952370531
520.7463965826087,-0.07856557258561514,0.08665710926960392,0.035839294086667126
521.2493749456522,0.15630764040698367,0.14780717795711706,-0.03355181575911645
521.7523533108696,-0.08863689053447585,0.27663397883803403,-0.11793487885976328
522.24986454,0.040048169784656,0.05512215037359751,-0.10652435317524633
522.7473757782609,-0.010341551407467463,-0.08065101552908831,0.11167010370729095
523.2503541869565,-0.0029717059365005566,-0.09014010831497812,-0.001097011117785621
523.7533326043479,-0.016607479431013542,-0.017982173625692557,0.01747320773980257
524.2508438755556,0.07324694462345809,-0.047206196756572616,-0.005564385592458035
524.7483551521739,-0.09791623358578841,-0.07895565424162826,0.09361300635999589
525.2513336282608,-0.08308818214837187,-0.009056111237355396,-0.05503894134055089
525.7488449888889,-0.12363717932739436,0.08668996619276705,0.008343970477591814
526.2463564304347,0.11215848114143663,0.042510225125959804,-0.09328881487734553
526.7493351434783,0.11387733114474441,0.022713457464436943,0.043716231692818665
527.252313976087,0.044348719732431666,-0.04759489399441521,-0.014748848650327396
527.7498257866666,0.26841581114612856,-0.17095284648970327,0.09050735284504347
528.2473377152173,-0.09865506305651467,-0.006902047784444078,0.02579691188292108
528.750316926087,-0.02849703780721345,0.0055168879687567795,-0.018456738303378083
529.2532962369565,-0.15929065169509946,0.24495269201419068,-0.1032576348335855
529.7508084711111,0.10089467377122327,0.11537586398250958,-0.07126080171320769
530.2483207804347,-0.013198642643140178,-0.05471591993661898,0.04606213296570317
530.7513003130434,0.05313778480449403,-0.13421730857883363,0.04811587825531027
531.2488127177778,-0.012903506641018107,0.06454992755048451,-0.04425741512651123
531.7463251500001,0.04425895297663665,0.06364626322724533,-0.019264031228011767
532.2493048,-0.01222534464711057,-0.12764315705434212,0.05802758262468408
532.752284473913,0.04520725465862354,0.011087093414231117,-0.03265889444867682
533.2497969955555,-0.031138617352456117,0.09871061461889978,-0.03999168718128753
533.7473095347826,0.0022654573544984872,0.09830528960407199,-0.03538345680421951
534.2502892543479,-0.02172496840498573,0.013495435188278535,0.00878200850151281
534.7532689760869,0.02921542403966255,-0.056949867156168954,0.014873291046434828
535.2507815133333,-0.016634091732426803,0.11435422053534258,-0.05886635568983877
535.748294023913,-0.01675054031184168,0.07137341922791057,-0.02513242586535527
536.2512736913043,0.025723236389274092,0.028378776939030955,-0.036602359442276904
536.748786168889,-0.023135837161814773,0.09877665856129693,-0.032765193334855766
537.2462986304348,-0.01331677552888895,0.06384504583068729,-0.03200662471150683
537.7492782326087,0.012223236663469732,0.08874143549564022,-0.057158497932107685
538.252257823913,-0.01740020150526501,0.06088434283365087,-0.019413261441150177
538.7497702177778,0.01930005382941312,0.01754914807527017,-0.012038029603581987
539.2472826065217,0.05695925073758302,-0.036770043314619374,0.031796842739909646
539.7502621347826,-0.12030864959165441,0.025210581609318192,-0.08032718893686756
540.2532416543479,-0.031065572567491352,0.008134373277826906,-0.011401820110757256
540.7507539844445,-0.030408945447755166,-0.0138561264021641,0.007333417710335334
541.2482663021739,0.0012773354915848118,0.004482378502625461,0.017253137396816724
541.7512457630435,-0.008634071399109005,0.004591380083518707,-0.04014352993440393
542.2487580577778,-0.008088953504328446,-0.08863909051713723,0.05494363325738676
542.7462703434783,-0.012447580318795502,-0.16848302330664253,0.09557128221975392
543.2492498108696,-0.011046552699361166,-0.2519786293718494,0.2190055970255741
543.7522292956521,-0.00039187815124168873,-0.22481099972149976,0.12254962291496234
544.2497415977778,0.005766627216717081,-0.14959619423570444,0.12424665809474565
544.7472538891304,-0.027944638025747374,-0.04496885104528167,-0.07458891803024183
545.2502333630435,0.024409033851818005,-0.07880145657003222,0.14342121432824093
545.7532127804349,0.03782548929143742,-0.054090050233236354,0.0412778953838217
546.2507250088888,0.028719729525087237,-0.008108288651568917,0.019703484858721185
546.7482373347826,-0.011217658441664695,-0.021619519991849617,0.0041677770734952066
547.2512168630435,0.0018204432416288263,-0.01644150510562419,0.04850746271944613
547.7487292288889,-0.004019385327544763,-0.029007897126747725,-0.03485813683826687
548.2462416173913,-0.1459458063301538,-0.3840639880960703,-0.27515401892912633
548.7492212,0.23796743152008532,0.3556040872516281,0.151084504801172
549.2522008065217,-0.2959987941112407,0.031141836644527434,0.0021677452175245817
549.7497132955556,0.4440039975972169,-0.05698763053210147,-0.014817569164272949
550.2472258173913,0.08235564226706572,0.006145454003881159,0.02610567751030139
550.7502055695652,0.04239517603633629,-0.002407668881384845,-0.04214042410738949
551.253185371739,-0.042569127631661347,0.008073268700880515,0.014561380951098718
551.7506980666667,0.2147431285360168,0.050941127347763605,-0.20675828875236227
552.2482108173914,-0.2789717132603609,-0.2538886416984514,-0.08632305586880108
552.7511908195652,0.1713049610156518,0.18502099898242735,0.08039370356697051
553.2487037266667,0.02053612349656085,0.002142390433530203,-0.009308457743339344
553.7462166869566,0.006315387500339616,0.010143998072061379,-0.014235849963186404
554.2491968782608,0.0019718851198718044,0.0002740758399717191,-0.012686820850277425
554.752177126087,-0.021132566523661994,-0.2148676299144519,0.1297384756578414
555.2496902755555,-0.0171757637595093,-0.4057496533579736,0.25759317692553635
555.7472034934782,-0.01859700920211398,-0.2597870876714729,0.15598464090898795
556.2501839521739,0.004490521621824747,-0.09501990091218784,0.0647252729734895
556.7531644782608,-0.00558985242623571,-0.07166464251308868,0.047955571069282034
557.2506778844445,-0.00024500090680669825,-0.08021689336427355,0.04468670238698086
557.7481913565217,-0.017717699092408175,-0.05807543310618201,0.057377825346746666
558.2511720913043,0.009384316458837487,-0.19239592551683227,0.11942532711055115
558.748685708889,-0.00761680327881665,-0.0772487427098861,0.03757236484939532
559.246199373913,-0.053403585947676045,-0.005783509628443438,0.029902574865958775
559.7491802847826,-0.02646105092998309,-0.04699760755976285,0.025699332181027962
560.2521612543478,-0.18047528654367037,0.23172324103790418,-0.16055242355398805
560.7496751,-0.1606264418042735,0.34243698260759614,-0.2685037202112469
561.2471889608695,-0.18583393520986197,0.408742711069541,-0.25878473229710175
561.750170076087,-0.06859414787633258,0.08265380784763016,-0.07043719183773688
562.2531512326087,-0.21823304028749035,-0.10958413733607457,0.0949937589594935
562.7506652622222,-0.04999990588630025,0.14602090356089564,-0.03120616462273223
563.2481793195652,-0.021681090629020336,0.14630730319568133,-0.09209464363939841
563.7511605956522,-0.01773169907525174,0.07315619381279777,-0.08553913558002008
564.24867472,-0.14301665513272477,0.12275106575344369,-0.0805251160590452
564.7461889021739,0.08197660383584482,0.028631295420686632,-0.1029013282738924
565.2491702956521,-0.03345208711303276,0.15796874104483444,-0.19884915961299113
565.7521517391305,0.4198637119210037,0.3160990044404059,-0.2538278434004779
566.2496660177778,0.33287091226195215,-0.02862991670831407,0.5026920359537479
566.7471803630434,0.3367817134207107,-0.2601924403023631,0.36304696195857206
567.2501619086956,0.31704979310246384,0.005655288834955773,-0.04988658439606502
567.7531435108696,-0.18212736128363288,0.3975894315761358,-0.053738738496314074
568.2506579644445,0.08389115292316632,0.39963731068904035,-0.3069888166113216
568.748172476087,-0.03266218024732836,0.22749099036862633,-0.10334984379076263
569.2511542173913,0.12689543372847542,0.01969487112498653,-0.019413731653383753
569.7486688355556,-0.04878106660105769,-0.006826896048674326,-0.002604313896805072
570.2461834891304,-0.027595818596929538,0.045619737884196036,-0.002774455628771613
570.7491653978261,-0.043830122321354685,0.019710386240905046,0.057830928397742065
571.25214735,0.1561374592739639,-0.06466594531700105,-0.13857007333175206
571.7496621666667,-0.1982892030291899,0.025747513223360573,0.10518275379953891
572.2471770652174,0.19967122708740379,-0.02606907537741859,-0.03957962619649454
572.7501592543479,0.0319287262021664,-0.08525599906035596,-0.021045462154343848
573.2531415673913,-0.009492667727689327,-0.035773362784761766,0.0381356550537204
573.7506567866667,-0.06656729863205593,0.024386363645148068,0.06665349083703162
574.2481721086957,0.17235935366674318,-0.0939638304411687,-0.09800215897359488
574.751154747826,-0.059404911811703064,0.007145197044597663,0.05671508802154262
575.2486702799999,-0.07724886540126669,0.010468242163445772,0.03480699302648177
575.7461859217392,0.11931229100761954,0.00840831912096767,-0.03183558081315121
576.2491688543478,-0.022963275376585678,-0.03487046371825591,-0.0191902237961069
576.7521518652173,0.07203177849022277,-0.0027637782128115034,-0.05822215277823015
577.2496677533334,-0.007911339442493028,0.03201525531647,0.03933332920723138
577.7471837086956,0.02764525310771848,-0.03569321730255463,-0.026794579075675732
578.2501669652173,0.009206271311131949,-0.0357617800102517,-0.03149361851374641
578.7531502739131,-0.007815159127060838,0.2959026611991921,-0.09195332341887108
579.25066646,0.09065361970125259,0.3879474676928088,-0.11294615227620286
579.7481827130434,-0.0012448765434895201,0.23567922172856892,-0.021655964899827216
580.25116625,0.05219671645993743,0.02112311216933913,-0.1565470126585694
580.74868266,-0.06954700501168873,0.03782748351505703,0.0341170205510502
581.2461991130435,0.13191913601961805,-0.05905606188961013,0.06316871520215364
581.7491828695653,-0.08540020917283343,-0.04107125350013627,0.05421059933631561
582.2521666826086,-0.05283370963902628,-0.032922098615483855,0.009490507937983351
582.7496833377778,-0.01245728294449222,-0.023795830691768168,-0.0012672658626244893
583.2472000847827,-0.022558584935084888,-0.013240371974249742,0.02232700278648903
583.750184102174,-0.014050104986411915,-0.04738170908871633,-0.07171167716601605
584.2531681717392,-0.03455528868785571,-0.021348123684625606,0.08621537432668924
584.75068508,-0.04227766431459901,-0.019193631669767983,0.015309723381769193
585.2482020391304,-0.014350462357168674,0.015158883790589888,0.05130987195649696
585.7511862717391,0.022974741329125282,-0.06067015159015869,0.0640504073787043
586.2487033266666,-0.02730922501509475,0.044643133101880374,-0.004674289058863983
586.7462204347827,-0.09589828218760285,-0.07242903356457625,0.05679039194356603
587.2492048065218,-0.049219590837991205,-0.087355198781205,0.055332689052722206
587.7521892217392,0.08327950863133475,0.39812360171359157,-0.19131366484404577
588.2497064688889,0.05729141471263585,-0.008858783570162168,-0.00399658328182439
588.7472237630435,-0.07212068639633373,-0.007808510618852787,0.009074599719066349
589.2502083195652,0.02654316554873532,0.2812184608035515,-0.1328279061259172
589.7531929282609,0.01027782843729466,0.08830329254430691,-0.055715278887839524
590.2507103577777,0.011022587373829931,0.205956180845885,-0.10970456750496041
590.748227823913,-0.00339677006653293,0.14472045125375924,-0.057277069592708584
591.2512125804348,0.030704487400219548,0.05537792603834575,-0.03391760193840169
591.7487301177778,-0.02839450302034669,-0.27061387829072847,0.13870672080439028
592.2462477304348,-0.022396810636772027,-0.16427112741400204,0.090097555506678
592.7492325782608,0.008781211337464479,0.07458076805331125,-0.039355119550134605
593.2522174673913,0.020076600905749756,0.14221157901243303,-0.06440278159081093
593.74973516,0.014088813438536343,0.15077452755365728,-0.08225665734417358
594.2472528586957,0.005727814723807816,0.041971823485369264,-0.02367985435443718
594.750237823913,-0.0010245436601591178,0.02995780427457547,-0.0014837493201028881
595.2532228086957,-0.005032510464353557,0.07199640108302831,-0.03977341990727063
595.7507405511111,0.019179204286895863,0.2020783830345805,-0.07295295698464709
596.2482583108696,-0.013346263352642537,-0.20197270847123908,0.06727762460658923
596.7512433217391,-0.02349699681624981,-0.4631166529781147,0.220642194925406
597.2487611044445,-0.02650307569023987,-0.3242882135211041,0.17540830915426667
597.7462788978261,-0.006631891192216647,-0.19860330806754986,0.08895093918675778
598.2492639108696,-0.008975011095593495,-0.06211290918330643,0.0324748170035335
598.7522489217391,0.007557850349230934,-0.04029081045714466,0.021782601676066164
599.2497667622222,-0.0047818260062938295,-0.019501182122671448,0.0037603800808604887
599.7472845891305,0.0070164660587214425,-0.007691123524823608,0.016862288740284444
600.2502696826087,0.02075509401948034,-0.006114369168024519,0.023652175332802495
600.7532548,-0.05265876318638509,-0.016125666414871453,-0.032186501780689214
601.2507727044444,0.005139703083278176,0.0009147856266098986,-0.009174064248743074
601.7482906260869,0.0018799162236334383,0.0020356260705759193,-0.006956249266135108
602.2512758152174,-0.05149657761800015,-0.0333883130644737,0.03072793639632623
602.7487937755556,0.23795563844633866,0.028247884462343227,-0.0032651018494134227
603.24631175,-0.20166243709787451,-0.0156312258880467,-0.001367097057704605
603.7492969673913,0.029193648741649373,-0.033719083694512174,0.03437208903628412
604.2522822,0.06355543080559359,-0.0939532079282342,-0.3495919671709634
604.7498002022222,-0.00499593206933073,0.05297691219273283,0.34038780991537787
605.247318223913,-0.0009870620055359685,-0.02274514120660206,-0.2503450252008269
605.7503035021739,0.16459667889591836,0.1201341167450499,0.08690111411886024
606.2532887934783,-0.09880560698495354,-0.0898296025202728,0.11484136618796494
606.7508068177777,0.06866496420846044,0.01685524443252346,-0.0736324733688483
607.2483248239131,0.017913116610784725,0.013173732225945997,0.019137369473108682
607.7513100456522,0.007872442999453506,0.012744370325392981,-0.0024107050288810104
608.2488280177778,0.0024908245191024104,-0.0019784311209465094,-0.017364370048729035
608.7463459695653,0.0062155034952244646,-0.006867996821889739,-0.019125607050526773
609.2493311130435,-0.014779525816394171,0.0037743784694577675,0.04443910094905505
609.7523162326087,0.01739455760670554,-0.0013126546981158183,-0.01671991763067081
610.2498340777778,-0.01759014258414917,-0.01776580611916242,0.03693859479413885
610.7473519152173,0.02367172117046947,0.0037025577979856545,-0.10839840349154241
611.2503369152174,0.07870922335328012,0.010526396937113363,-0.0357311392201159
611.7533219108695,-0.05458867368181477,-0.010748708100546232,0.04217965175942502
612.2508396622222,0.03615456741040194,0.004048636234606851,-0.005524176679993157
612.7483573434782,0.04746278360744665,-0.018875195119606655,0.030284522016017154
613.2513422369566,-0.04264138903055809,0.02883570871678787,-0.07333996274620103
613.7488598822222,-0.05720013687109211,-0.0001629287485156513,0.052842045931302775
614.2463775065218,0.07577412240190004,-0.08680362114210731,0.27425272266834994
614.749362323913,0.08068270935469762,-0.3533958052840261,-0.03210691944699808
615.2523471478261,0.018726186553747783,-0.23723196484845105,0.2048400480791481
615.749864728889,0.07826213195426157,-0.2023598474950678,0.1381505862668275
616.2473822978261,-0.0012572401074406711,-0.14201477439267088,-0.12171504834807659
616.7503670956522,-0.05279813580429448,-0.14015561285288586,0.32746360377596917
617.2533518956523,0.01869763895289902,-0.31481180135445136,0.29939830751081853
617.7508694844444,0.0989551247184415,-0.42445879426286104,0.44496668868056416
618.2483870847826,-0.02585135040592419,-0.3098326880085844,0.3481065678323885
618.7513719347826,0.0076658642202105725,-0.23303082354605723,0.18217736103671642
619.2488895533334,-0.000517815536404319,-0.1874164051455885,0.2289674304410685
619.7464072108696,-0.006239382964521325,-0.09583454847060852,0.1725549538320665
620.2493921217391,0.0009703212832815635,0.0855777302469852,0.012556294434289288
620.7523770413044,0.06350475728221633,0.007500533328171871,0.004090219421372061
621.2498948022222,-0.006180348124120292,0.12520883801501087,-0.2069619439796906
621.7474125673914,-0.09163338449936685,-0.24405117251875535,0.13401263198165858
622.2503975826087,-0.01717196240687515,-0.060894776753381626,0.03181616349335688
622.7533826652174,0.023431162336046106,-0.14202653271383578,0.09591609501630609
623.2509005177777,-0.04813362074312507,-0.2918681754577064,0.34091477501804707
623.7484184108696,0.15424333216932343,-0.05192573691148413,0.01850712294470249
624.2514035673913,-0.10549328078818522,0.21772469570621314,-0.17558236219813997
624.7489215155556,-0.04699964789925871,0.4511206460382983,-0.6342729884857462
625.2464395065217,-0.06565548701416873,0.3997270596112461,-0.30720747229762146
625.7494247760869,-0.04070761137595866,0.375793765248473,-0.27803733877898046
626.2524100934783,0.03340286402368322,0.2162027620866889,-0.30333254416347744
626.7499282111112,-0.07952353676215161,0.08529182349065677,-0.05877106031185281
627.2474463695652,-0.17380644666113837,0.17086152170194985,-0.09506640925750016
627.7504317956522,-0.004268331408228234,0.17227487477502337,-0.17898166096009027
628.2534172695651,0.0517709520379321,0.02786200329178951,0.11300684795084619
628.7509355466666,0.0561434344070816,0.011676175394646559,-0.09956522047826846
629.2484538543479,-0.05467086897162081,0.15536898354662418,0.02307469750114103
629.7514394260869,-0.04773373013995058,0.15778959789184996,-0.17421173647274885
630.2489577933334,-0.05639633109466986,0.18114713610120764,-0.11568815184765431
630.7464762021739,0.007157768398698965,-0.023140999073590872,-0.003766660057080893
631.2494618630435,-0.08989384118993692,-0.20849503862721797,0.031070726145573886
631.7524475391305,0.24200387224128692,0.29356119115645696,-0.1351546916726558
632.2499659933334,0.2191366731428746,0.011552316288649523,0.13854576543363298
632.7474844760869,0.023833869837475746,0.11498663800826056,-0.11452471030760689
633.2504702021739,0.056546431832918624,0.10954833042999083,-0.019678604825984013
633.7534559391304,0.03080209573326674,0.07746940092566902,-0.018793088137512
634.2509744377778,-0.04217165880128855,0.11342254369234034,-0.04784793166197594
634.74849295,0.03198000197763688,0.002330926811784388,0.004974778564478428
635.2514787130435,-0.0711560832459834,-0.19945863177871195,0.17921401468410952
635.7489972444445,0.03752484069986729,0.11898156743463358,-0.08731415532990638
636.2465157826086,-0.021028851152032114,0.18150699180844396,-0.0989443782027298
636.7495015826087,0.01371266165847933,0.013109113574304979,-0.04430976076891369
637.2524873978261,0.04383113953720271,0.021782077876317477,0.011002091568398757
637.7500059911112,-0.020323314667744955,0.011132959134922094,-0.010624084435431044
638.2475246282609,7.845069708155144e-06,0.0017717138322434457,-0.027690378211240898
638.7505105347826,-0.00965750831635966,-0.006219979451593651,0.039710949519485506
639.2534964847825,-0.013695822078076814,-0.033704393900156594,-0.03764520005396479
639.75101524,-0.012368355611945504,0.08360867526596179,-0.03338821149854097
640.2485340695653,0.19126513777262802,-0.2531483442569681,0.059641545985144304
640.7515201869566,0.36460838684353625,-0.4064731980950583,0.12307953791613614
641.2490391333333,0.42722248355793047,-0.2507756195356149,0.03717666303994671
641.7465581847827,0.2212643077832173,0.07754409970529244,0.12306534376551541
642.2495445804348,0.352337228087119,-0.2045926072986932,0.08585031259338112
642.7526738369564,-0.028527462483312,-0.18540821262394117,0.1534354433805795
643.2502106733333,0.2534689577413477,-0.18117524047153147,-0.0071867738329144245
643.7486156636364,-0.049550800514712834,0.03545420575772402,0.14852916197734337
644.2520298369565,0.2560842605270262,-0.21550682283699768,-0.10316910271007203
644.7504290422222,-0.03792082687662961,-0.09426580521706532,0.4131450288540976
645.2479520217391,0.0029750315060812263,-0.02824115569212315,-0.09464178828655903
645.7509665847826,-0.060150435223063736,-0.012669652093791242,0.0800248600350966
646.2495510955555,-0.3465668284484561,0.0511276372576414,-0.0009402426753548518
646.7470821565217,-0.053995967746389435,-0.1020467959799688,0.0888888725657606
647.2500726891304,-0.100001630444874,-0.27227000860019224,0.1324800274885803
647.7530632804348,0.053227870181926554,-0.12971212226628306,0.06274622193214072
648.2505867177778,-0.09282033908364416,0.18738270285426795,-0.11390602396943118
648.7481103195652,0.2041000080788543,0.17601729633059243,-0.26131985762486193
649.2511013891304,-0.044844578726423875,0.17068177657802278,-0.05928312616096271
649.7486253977778,0.05533952652171682,-0.0005593921806337393,-0.0819058038518529
650.2461496521739,-0.027844624887408204,0.04602008090748555,0.0768800467419934
650.7491415195652,0.043195961997274136,0.06642255264773615,-0.3576247754020372
651.2521337021739,0.007971602579388015,0.09705298739774179,-0.03987009899753988
651.7496589066667,-0.013647313522715422,0.02950657135803514,-0.010539034995657715
652.2471844804348,-0.00017224170905850143,0.01705938965612748,-0.021640682504481097
652.7501990760869,0.016383192566867155,0.01839877144542901,0.021588826902413646
653.2487876977777,-0.07865552690906485,0.021866027658044716,0.039251161699399996
653.7463242565218,0.05117047643885387,0.04645731453900046,-0.08483300889200422
654.2493187391304,0.009961981958226463,0.15051683984160047,-0.025433865313085075
654.7523136391304,0.05402636095724336,0.039270618043704165,-0.037181030163187544
655.2498416266667,-0.04864661618281565,0.04357545920282861,-0.00884756294985217
655.7473700739131,0.03768760473691476,0.012240636363528741,0.008916404881144526
656.2503663065218,0.05261312173560986,0.2759297704836114,-0.18622699258226777
656.7533629891304,-0.04833064267338377,-0.14710819921920926,0.13866461900077767
657.2508927644444,-0.038821827539246394,-0.23145787414047578,0.15850382130481702
657.7484229891305,-0.05701020939615551,-0.10396146951937288,0.19909096435920332
658.2514210391305,0.029413462598342096,0.06085708332331581,-0.07827067208771236
658.7489521555556,-0.0003858237948616388,0.1855529337558624,-0.2152900999465986
659.2464837304348,0.15420199720022412,0.16156083398287793,-0.16521957561385628
659.7494831391305,-0.10315638824480905,0.1997150248288138,-0.0101931582224299
660.2524829673913,0.1012102564219994,-0.12505891533618974,0.0913358737493811
660.7500158755556,0.0007169435419155583,-0.22267896230591938,0.0853122322555076
661.2475491934782,-0.009592160417445353,-0.011376962959962213,0.018454134232898524
661.7505503434783,0.06634825992836783,0.08107489248596823,-0.07950923783158989
662.2535519347826,-0.02744196279496299,0.020287912114691553,-0.039603706540199346
662.7510865111111,0.11544634873635909,0.279074213363169,-0.2626795153560275
663.2486215065218,0.06236964548419017,0.20305132811948348,-0.1625700387579515
663.7516243108695,0.06356632205884491,0.10002134907427024,-0.10630456893602495
664.2491602177778,0.02756331511276811,0.021398457078104317,-0.04116793854513533
664.7466962260869,-0.045739188081076736,-0.28556561669942276,0.25774873613586974
665.2497001347826,-0.06335850336424782,-0.25836337342479293,0.1895019574394568
665.752704376087,-0.035902945375517484,-0.11365095260661305,0.10461978603216418
666.25024148,-0.002002802638332738,-0.013272690917778752,-0.004776723919790422
666.7477789369565,0.007088795284478434,0.07646614285164798,-0.01999185497366771
667.2507841500001,0.09481657830752004,0.2779141645629147,-0.2694691525513353
667.7537896499999,0.02807909236516146,0.21536210139572376,-0.13340632129876334
668.2513279755556,0.012426232496924549,0.06748477942410064,-0.051607367406469776
668.7488665847826,0.025007515862975335,0.04209133762576674,-0.041752252344754444
669.2518728804348,0.024412147595395572,0.1034457543581997,-0.0696415328221845
669.74941198,0.018794569819577302,0.05033760462414118,-0.05205941661162223
670.2469513152174,0.004695395995045738,0.02539642509315886,-0.010442060804159896
670.7499583217392,-0.010982719406667125,-0.059263383745394485,0.03375358731829593
671.2529655586957,-0.05962657562340362,-0.2904181624784643,0.21506733867252556
671.7505055288889,-0.07736376002356171,-0.3603052745823281,0.2732595360484465
672.2480457,-0.03708201087947688,-0.20053600592755821,0.18154530078032535
672.7510535304348,-0.02920700651869786,-0.1288681087521682,0.10336141878895608
673.24859406,-0.00438469479552191,-0.04506284684053497,0.03958012599522826
673.7461347630434,-0.0004918414443524045,-0.01748066912897839,0.013521419915305557
674.2491431195652,0.0027195980483339165,-0.015790416354727107,-0.00030865240561756956
674.7563654659091,-0.008652467513456273,0.0011638541749726921,0.01678741087929343
675.2484391478262,0.0017996069437700205,-0.016848007918876404,-0.027299912794387992
675.7514479108695,0.018825004449228827,0.0056148564170217675,0.026278181666208034
676.2489892755556,0.0042462672771960705,0.007269001931048495,0.07170291631220004
676.7481379934783,-0.007225000294548374,-0.010217031154392759,-0.07071538732106152
677.2507935088888,0.0005147906027885227,0.0032562099057132496,-0.008054993484717636
677.7483352847827,0.0002392127166453463,-0.0008324910912651827,-0.010478712148309796
678.2545935522727,0.0008171428617310112,0.0014891410997964116,0.018966257405335148
678.7498200913044,0.0024613498520368467,-0.0007198588083702571,0.0019056937704687372
679.252829773913,0.003261671093090604,0.0016477200816877274,-0.0063387987943555055
679.7503720977778,0.0027987941554286386,-0.00040810791508437075,-0.0026399895729142617
680.2479146000001,0.0013788948660785802,-0.0019368556098666833,-2.1524995443528753e-05
680.7509247326087,0.0021042308134300203,0.0028516238580915095,0.0006046591070542382
681.2539350608696,0.0002841674253530175,0.001575074947841755,0.003941715007440383
681.7514780111111,0.005009047020233003,-0.001214191990330463,0.009274829302121946
682.2490211347827,0.0069557940222935545,-0.00127286500172301,-0.01835371028881908
682.7520319065218,-0.004853759893589807,-0.0027948353054862646,-0.02337085086861031
683.2495753333333,-0.001577953443575772,-4.62328337063177e-05,0.03380392666429648
683.7471188673914,0.01272365639532865,-0.0005271889762638421,-0.02897114902858382
684.2501300130434,-0.022922616041025277,-0.06816367156575337,0.10576396472196499
684.7531412804348,-0.02505900341801053,-0.23202478316151737,0.1479173503408238
685.25068514,-0.010079922570364786,-0.0653316647571293,0.06209856435604835
685.7482291434783,-0.01491453966868859,-0.018220603111914556,0.016239903060859866
686.2512408108696,0.011459937418952551,0.03397878650749587,-0.03686082617930094
686.7487851333333,-0.0011638900072799428,0.07921169502462744,-0.04635060872815057
687.24632965,0.03238595036787895,0.05752279430718498,-0.07481730617567402
687.7493418565217,0.006400153549692338,0.02892660740124509,-0.02705199348138455
688.2523542217391,0.01025751007712237,0.018629627085015314,-0.020988388448522795
688.7498992088889,-0.4956522253094137,0.5877181174180209,0.13973094242937054
689.2474442934782,0.712026764391802,-1.1808090556785835,-0.00465767628947944
689.750456976087,-0.28963670911300954,-0.1422584366305655,-0.24946752175303413
690.2534697282609,0.12873431959239798,-0.031446516332034796,0.07745558598832998
690.7510149822222,0.043773822288320656,-0.09574864408856001,0.04960042341695006
691.2485602695652,-0.0696694890470934,-0.34677880403398553,0.2831669911751377
691.7515731152174,-0.16332203198823556,-0.49144774061825897,0.22810377081544492
692.2491184111111,-0.036255573940497936,-0.27035455943016856,0.3535493807765076
692.7466637195652,-0.24209440355997658,-0.3819453017255804,0.25051188526188883
693.2496765326088,-0.08172342345960526,-0.09334661300574254,0.0966801883209491
693.7526893195652,-0.02544840696966882,-0.07654977312924661,0.056823620316929106
694.2502345466667,0.016044858023586035,-0.029340257908217975,-0.0015782440958136486
694.7477797369565,0.04477973693287378,-0.041173010196059845,0.040131685575212135
695.250792423913,-0.0065847858243100275,-0.0005585428175679554,-0.01332168262119948
695.7538050608696,0.06141253161629328,0.09384654541338755,-0.02581137524517973
696.2513501355555,-0.03296442142119309,0.07096484363257895,0.026945674177702224
696.7488951652174,0.17227463408233362,0.09938140730672065,-0.044538627695448994
697.2519076804348,0.10339284039206703,0.27466565497402756,-0.27922265288180925
697.7494526311111,0.15491223043153646,0.36235243514258547,-0.18959187028859933
698.2469975326087,0.03755196405835308,0.3300537679933328,-0.12893014618200827
698.7500099304348,0.20957975496702427,0.18498513936665664,-0.07792039128017259
699.2530222804347,-0.10744173620574701,0.01788098497526612,0.05513837608687062
699.7505670488889,0.11121924689537166,0.05115481166224784,-0.21496913095736317
700.2481117847826,-0.24644732699268773,0.17829215284747257,0.2718582507298753
700.7511239782609,0.02884390465875692,-0.03602404391129356,-0.1192505535579654
701.2486686066666,0.18699081330052347,-0.020027524069950994,-0.09763728487491573
701.746213173913,-0.16382021210555922,0.1052454518522032,0.021190606584274806
702.2492252021739,0.09032160481380735,0.01630855733505369,0.002639282244823264
702.752237173913,-0.027549763300520055,-0.004934847688256522,0.11299646961941233
703.2497815488889,0.004332623864309604,-0.5056248974511102,0.15796622276876443
703.7473258695652,-0.5837272173429779,-0.5210405295323602,0.3401588524984051
704.250337623913,0.07724075827171889,-0.17317755544139524,0.06254502823284573
704.7533493304348,0.015368565194690886,0.10431490313967022,-0.06747647694374477
705.25089344,-0.05540346635274334,0.13820135132888442,-0.07167249770702022
705.7484374739131,0.08092342534584007,0.04809445243807122,0.004417501037208995
706.2514489652174,-0.028506640064778873,-0.03505948839191622,-0.04220545007612561
706.7489928555556,-0.059570301355881324,0.07419747069814485,0.0022133726387773135
707.2465366826087,0.12084708797166277,-0.2616847350073678,0.17318565900623728
707.7495479565217,-0.24157723323937377,-0.23138860229313582,0.1266904992952413
708.2525591630434,-0.01468474291216283,0.11936839491222974,-0.03945119267641697
708.7501027777778,0.05967282444553894,0.1548071469990879,-0.14705441806621622
709.2476463282609,0.11131041695654291,-0.010060741928200584,-0.0008567387798115064
709.7506573239131,-0.025279829105828266,-0.008242519115515214,0.013439615555025146
710.2536682456522,0.014755581536267697,0.0067797221878287284,-0.0011827728521383483
710.7512116066666,0.006051371384129673,0.1504696256456258,-0.0918268654082311
711.2487549,0.10186866891345348,0.16207462326753488,-0.10351304141100715
711.7517656217391,-0.0028360157451853885,0.03213847613380265,-0.0537516547475804
712.2493088066667,0.06494103808174523,0.09240180396361052,-0.03492130879165248
712.7468518956522,0.004266589225173668,0.0046128024105247314,0.03826142539051251
713.2498624391304,0.026457112531314272,0.14432692135663075,-0.15643381474857093
713.7528728978261,0.08483837640625018,0.09321441204708306,-0.06906594585342969
714.2504157866666,0.025167707344941545,0.03971645252734614,0.04018196119201049
714.7479586543478,-0.1653038211579835,0.023257509898197616,0.10385922542224332
715.2509689152174,0.224432205222005,0.002645917251344875,-0.04652684489701619
715.7485115733333,0.15959892954789623,-0.0215677674999856,-0.35014058929245484
716.2460541913043,-0.033448041924260034,0.1353404284075759,0.021845216505747195
716.7490642,-0.09422020673144817,-0.1573314126042675,0.034086707252144355
717.252074176087,0.12179002197079054,-0.08307744198116664,0.15802921782625984
717.7496165555556,-0.03685290925547303,-0.0076552838555539095,0.03849303802720226
718.2471588782608,0.07662100744320854,-0.06402690045450667,0.0007966174249665204
718.7501685956522,0.04073432222522984,0.0508766014300995,-0.021499087490781162
719.2531782434781,0.019725560154317284,0.06500993997284418,0.02638625012520343
719.7507203488889,-0.06084900826266776,-0.052332096938692806,-0.11963086802011771
720.2482623630434,0.11729422120956126,0.12161250118180142,-0.05253518467783382
720.7512717891304,0.01706806974387117,0.1342588222171631,-0.022785104001861525
721.2488136555555,-0.12767936431581728,0.03473464284968666,-0.03001273650147988
721.7463554173912,0.17410000708458745,0.07841730188303928,-0.16600044990146087
722.2493645934783,-0.05106718302057306,0.1114348991201505,-0.0019066406691857147
722.7523736956522,0.015389677251252154,-0.01676298387652807,-0.009264031682200835
723.2499152244444,-0.027653861773545667,-0.17963616516294734,0.13858613348371127
723.7474566500001,-0.06855524130966026,-0.12189646906985664,0.0853176784635486
724.2504654782609,0.027943119532211673,-0.015564024436720168,0.031077282609272595
724.7534742217391,0.014523495781654357,0.06222484193995038,-0.06908286726720343
725.2510154044445,0.0008132556873288374,0.03825311348266731,-0.010105196057086126
725.7485567652175,0.009679422589543333,0.046249566216473345,-0.035340059533428135
726.2515655717391,0.1015620468324696,0.2623746479364676,-0.23810100342576768
726.7491065,0.018087362632911535,0.10859506857324326,-0.07670132599841645
727.2466473521738,0.02366820366330532,0.053454828892018906,-0.02892196936364534
727.7496556043478,0.008849712429719978,0.012026208429617213,-0.007906876112779522
728.2526638,-0.015537638746227543,-0.0017650430452399684,0.004838976912252183
728.7502044111112,0.013881687297163511,-0.00030188183278796017,-0.00974879676273959
729.2477449673913,0.002134702100653125,0.012035536375966452,-0.0020466634841162594
729.7507529239131,-0.03036463555269605,-0.09642534250172796,0.07839390599463054
730.253760828261,-0.057019245452615275,-0.2467403273527305,0.18714368849233906
730.7513011866666,-0.05893830410329464,-0.31321515808644723,0.2608758828897302
731.2488414826087,-0.044237294456446044,-0.17073422304706948,0.12410135350800004
731.751849202174,-0.04057702916831118,-0.12372482928099467,0.10515844353530639
732.2493893666667,-0.0009874451877971517,-0.03845939073563659,0.02636735578391801
732.7469295130435,-0.00482399859665909,-0.021304096226252588,0.01518060395674109
733.2499370673913,0.01585143936506537,-0.00430256186162127,-0.0023819550626080167
733.7529445543478,-0.011433021723976804,-0.007496124197300107,0.01199601519014518
734.2504845133333,-0.015510736046746413,-0.005703064092873496,0.024726248097230133
734.748024397826,0.015635144244308334,0.0022291474842091987,-0.012073658857928209
735.2510316782609,-0.011862620450402438,-0.006964730299543695,-0.009634594019789524
735.7485714222222,-0.009214184193057952,-0.005355012995824693,0.013096160437895
736.2461111086956,0.0005821486080868783,-0.000424421597512547,0.024114622409097012
736.7491182152173,0.03617401583534281,0.018792783315593743,-0.05601208749538036
737.252125276087,-0.006726632993352999,0.0028435571099053904,0.018119186631969948
737.7496648377778,-0.003893303624175843,-0.03887459304640957,0.055326530190232974
738.2472043695651,-0.056942402232855516,-0.30477151082243026,0.20191338125046956
738.7502113434783,-0.1119801359854911,-0.4401879357112105,0.39055095802130546
739.2532182913044,-0.07909683299282895,-0.25890283848988227,0.18981109025907922
739.7507577355555,0.03335349833346239,-0.057316781092343505,0.06936359503819989
740.2482971673913,0.0007128446878702788,-0.03964905695434547,0.055978010834326096
740.7513040195652,-0.019039488082213233,-0.0316757072712604,0.14976489623923528
741.2488434022223,0.041998545845564776,0.06374981830748848,-0.18693288339408443
741.7463827782609,-0.013558420936551822,0.031592840942919836,-0.06336512865685978
742.2493896195652,-0.003835949333418947,0.00018049131076902663,0.02469269215335066
742.7523964456522,0.01935751738721757,0.009917617748802109,-0.004822447835355864
743.2499358288889,-0.002936328746085115,0.04466193409471088,-0.005466349531040139
743.7474752130435,0.012626973464949886,0.005922029650696177,-0.04142472851728568
744.2504820608694,0.02538180698972752,0.03322298819504437,-0.09195147001642902
744.7534889086957,0.00539165722297204,0.12207859444042836,-0.04057796908853851
745.2510282955556,0.02791850107320755,0.020599580514199606,-0.06019870884625378
745.7485676760869,0.0058385826427777045,0.06266300639310392,-0.009651534434614467
746.2515745304348,-0.01516686090674105,-0.04075092355561459,-0.015565301800398038
746.7491139,-0.0075645873440505365,-0.0056898801826358635,0.05439557428080084
747.2466532673914,0.033300809146532884,0.03315944972124342,-0.0411199400145009
747.7496601108695,-0.030893780822588802,0.03468900149974936,0.008734417493757756
748.2526669304348,0.008724576540284502,0.03140011541144425,0.04350509925423517
748.7502062777778,0.05315128525091702,0.033389924664280014,-0.12161883987647407
749.2477456065217,0.004814538297667866,0.018566132657486002,-0.040121483120339085
749.7507523847826,0.03600377280477546,0.0006503088489663411,-0.03460720919752568
750.2537591391305,-0.004060300197937966,0.03199892944987952,-0.023828131888195287
750.7512983977779,0.057505786045030226,0.03381346426642885,-0.019312040644311496
751.248837623913,0.004351059880295514,0.03721234677399309,-0.00183064475991437
751.7518442804349,-0.025769482955091672,0.009890206236080784,-0.04599961827220548
752.2493834533333,0.15283747806602085,-0.0028567044923262404,-0.03484049584065971
752.7469225847826,-0.07352984555958593,0.17305388865253155,-0.20556336981578494
753.2499291413043,0.11437653015577927,0.5752904016735253,-0.5544910787694829
753.7529356630434,0.13616859580341653,0.4761860338608221,0.10766305077585496
754.2504746955556,0.13907702239456368,0.497371284809408,-0.06854456660369888
754.7480136869566,0.09354367377040942,0.226548425303225,-0.060768612533395154
755.2510201021739,-0.010121549241799348,0.05536773245803484,0.019116057870613136
755.7485590222223,0.058992751419483756,-0.16730507718249496,0.06605469862495911
756.2460979152174,-0.005648532458044889,-0.1309381936625372,0.022388188846817394
756.7491042108696,-0.044675614746231475,0.1061150732311191,-0.05853348565789189
757.2521104652175,0.10918421059170669,0.07827467935574042,-0.030404719050964268
757.7496492288889,-0.0735818425663388,0.12597794505322543,0.011907113012932492
758.2471879369566,0.03758729239440918,-0.11944654332370766,0.008041135472465917
758.7501940630435,-0.05492766072622745,-0.1581185389268378,0.05237778560771991
759.2532001391304,0.00984492183135066,-0.06881248573625007,0.011067673698286757
759.7507387200001,0.03926753131255237,-0.013250304087420969,0.07888992997152298
760.2482772630435,-0.04924139631167007,0.00859273544336241,-0.014220796073600384
760.751283223913,0.04627620063833906,0.00211433440964809,-0.06094139146911795
