Time (s),Gyroscope_X,Gyroscope_Y,Gyroscope_Z
10.24782584,-0.0008165393566975247,-0.0006048798089158732,-0.0010032178037073815
10.7490630114,-2.2190534888555658e-05,0.0003817543106154842,-0.0012392719921691191
11.2503011872,0.0019613258860062084,-0.0002641153253779747,-0.00014720274230883748
11.7515405964,0.005398868512983672,-0.0001798640586944944,-0.006632288186109737
12.25278082,0.008620505562153876,-0.002708480497535698,-0.07979570205109139
12.7540211452,0.03139105958646862,0.012084982505055446,-0.26445567231838646
13.25025006632653,-0.005258986108603906,-0.012393176044074533,-0.48100415277020536
13.746480265,-0.01879196484343074,0.021207689050876773,-0.6598891157375235
14.2477239,-0.028166811675747715,0.036603819085770685,-0.7867593048310678
14.7489685148,-0.016894247583706345,0.040909152516850567,-0.7701861094854313
15.250214289999999,-0.01071930334145652,0.04359894288904364,-0.652059093533913
15.75146136,-0.019951968019304503,0.01852301903138963,-0.5099648934768263
16.2527097,-0.026758249780386382,0.01760541956071177,-0.5061810418556724
16.7539584812,-0.0025517107034024465,0.026331961799321554,-0.5527409591628265
17.250196234693878,-0.011476368858283624,0.04773336735414417,-0.5175691796380911
17.7464352836,-0.010727829646031663,0.021660916126287715,-0.31800037024348066
18.24768825,0.05576872605965584,-0.03748547001065287,-0.21729426382809183
18.7489416732,-0.026851761065340388,0.027708749367760216,-0.08530949445286425
19.2501962176,-0.008888471064325493,-0.0074164020413305986,-0.046022072881014404
19.7514521824,0.029585357757874874,0.03978185819359563,-0.04899038949905233
20.252709287400002,-0.006916918115082913,0.007608369429140971,-0.018677304051666396
20.7539673088,-0.03988103308040342,0.014847036688892278,-0.021601093006044954
21.25021379081633,0.03150592488425593,-0.0026234565533529916,0.003910423957673141
21.7464616082,-0.013444894612066416,0.017624037704753008,0.0036141599743952607
22.247723147400002,-0.01291055684360234,0.0055192444489526905,-0.0032472226152555394
22.748985390399998,-0.01068102052764901,-0.0014600319773466792,-0.00541810902922715
23.25024868,0.0064017214523105995,0.012692024940079025,0.004950455281777427
23.7515132946,-0.004745047026119625,-0.003979411839616428,0.061381065843937
24.252779190000002,0.0062339009142183,-0.0030656530995612523,0.09923343589681602
24.75404635,0.0052665034196924644,-0.0090961208489384,0.2378292924616111
25.250302027142855,-0.02159273016133418,-0.06636120826444701,0.4497948251570003
25.74655865,0.005509667933401401,-0.024694507223047245,0.5630580540212967
26.24782867,0.028371858304352463,-0.053772349327717614,0.6689467797657335
26.749099778,-0.012270319018379432,-0.02906933951381475,0.5069941654489228
27.25037163,-0.00456812563266082,-0.0022755499752661686,0.2927906914336902
27.7516441182,0.0022461414966236624,-0.01915786920356244,0.10877268959140954
28.252917160000003,-0.006813886761781899,-0.018820094724048216,0.021945681812660718
28.7541904614,0.005150247342343199,-0.011614833533662145,-0.00950348528746492
29.25045134346939,0.004178550551369426,-0.012256560713060189,-0.013119423149939522
29.746712702,-0.02299655516556983,-0.0007662895821601363,-0.01227460902261699
30.247987400000003,0.011782918015793698,-0.000465618063476036,0.002001528770977096
30.749262132,0.004811557243178046,-0.013446899493244326,0.002152558566709496
31.250537518599998,-0.002155818733287947,-0.0017689120886495288,0.0014934205337323084
31.7518133638,-0.0028152088804612235,0.001866585685784435,-0.009406408274647
32.25308978,-0.0015041590373219686,-0.0009133546171300456,-0.013111263627910652
32.754366548600004,0.006549003600240125,-0.012344602129272792,-0.02126963258007732
33.250631077142856,0.001204554232987403,0.016821063631353647,-0.020001867450637548
33.746896666000005,0.003948769690384741,0.01317352966987193,0.0021686064134072668
34.24817564,-0.01924756368940557,0.016088035021912063,0.007872352526521562
34.749454368,-0.010765794422434664,0.001293562081509452,0.023703926583485614
35.25073344,0.00710342583386709,0.01237174624924365,0.019151830661368094
35.752013240000004,0.010155962885513022,-0.017105247042111894,-0.014066536256258927
36.25329332,-0.017383435376546807,-0.011206096486010272,-0.004346513485392571
36.74956132408163,0.013175431992975994,-0.005933286052428369,0.0006474001075424376
37.2458302172,0.008029332929794755,-0.004560259150451539,-0.005637657972146878
37.747112863400005,0.02596406078201923,0.009653447967291095,-0.00220180546587112
38.24839622,-0.03987582849114032,0.015125060199125651,-0.007179205522675844
38.749679958799994,-0.004448441001810337,-0.0350383853619262,-0.014528473048822573
39.2509641476,0.005262432682468505,0.022065211917262958,-0.008695515188081503
39.752249227,-2.109072818814034e-06,-0.009748775366675393,-0.010566676542087436
40.2535348476,-0.03169868044545493,0.006626088224500095,-0.013523079517608444
40.74980844836735,0.033055284112583676,0.017636819774141367,-0.012536505321539044
41.246082957199995,-0.005958900498742149,0.0008450253995977357,-0.048153550338536535
41.74736824440001,0.001293184369514078,0.01306062762020751,-0.08723246175059197
42.24865307,0.011875602136831255,0.01819969605684667,-0.12202855734821254
42.7499406334,-0.00017339196723539319,0.008031892175667396,-0.15624493530226158
43.2512294774,0.016278280149871153,0.026760356910570327,-0.1630454918741197
43.7525190722,0.01740439074328488,0.0038896613197411754,-0.1557765823149813
44.253809527,0.0019078674940062644,0.007287176615930366,-0.1251046812623783
44.75008708693877,-0.008477084329854747,-0.018020010229496407,-0.07713513423660262
45.2463647468,0.01937598058500597,0.011789196368327131,-0.0267900698383821
45.7476563442,-0.00937550066370693,-0.010093338688937765,-0.024122484118403797
46.24894864,-0.029900124255079076,0.01893885070812465,-0.019724838578095597
46.750238798,0.025152622111402175,-0.02242116181736618,3.538615296478087e-05
47.2515293974,0.058949535405143735,-0.02515669577507602,0.012410502919535977
47.75282339420001,-0.10776480889747063,0.040204949175076256,0.00142153952641174
48.254118399999996,0.052302185568000155,0.013759554269287646,0.0010838207272749
48.75040052489796,0.033550565214944844,-0.015094984361356582,-0.005495194076205708
49.246683139999995,-0.029355392823378613,0.0002059063808566137,0.0037214490167368415
49.747979581,-0.03638642608325599,0.0005764213562493772,0.008890636892366332
50.2492764972,-0.005542035824137485,-0.013375535867819022,0.012588323178026462
50.7505742772,-0.03176689231716283,0.0015395924557328245,-0.00043428679948891575
51.251872717400005,0.007183690318657552,0.03153411120279723,-0.031013806197009046
51.7531715772,0.020721332714404798,0.03855279491067139,-0.027222947058160318
52.24945837734694,0.004417708742661556,0.00978364427523433,0.03292899317085655
52.7457453774,0.003838758236390542,-0.01589266611505147,0.023634182626679913
53.2470458774,0.0036737573754178215,0.030504788153552346,0.0020198686017227517
53.7483474314,-0.017298351789660965,0.013409571361885784,-0.0058297665113063975
54.249649829999996,0.012049398482693308,-0.019526148373007302,0.00343911410710557
54.75095184,0.0071254635013863355,-0.00957135196761742,0.011101885302564778
55.25225398,0.010196826477399052,-0.016121546289124284,0.012970397177351014
55.753557359999995,0.013507868193738986,-0.0173604840417854,0.002975998146728339
56.249848459183674,-0.004289990200535575,-0.011599071005430013,-0.04668801919475263
56.746139412800005,0.001206187219424061,0.023119561299882206,-0.21156091708190514
57.24744402,-0.07746001246738124,-0.011895981091599561,-0.2844801529905537
57.748748908799996,0.04118829642898364,-0.010168627108932403,-0.31049630772697917
58.25005418,0.012671215483776232,0.0032019686159139504,-0.28460177726035285
58.751360745599996,-0.005047794139571724,0.03496978422849884,-0.16191576299760238
59.252667866399996,-0.008941493364941745,0.023194060709153266,-0.18112903065914704
59.753974651600004,0.023439835060941622,0.020469929650790076,-0.3508894585952788
60.250268668367355,0.017755952412857136,0.023400244165626454,-0.4041600381748376
60.7465638786,-0.017617235279932898,0.01886396139522865,-0.3508936240128484
61.24787344680001,-0.009997109092813636,0.07357773268572036,-0.05735846849642295
61.7491836014,-0.01610084178044179,0.025180428248052035,0.29769550681422485
62.25049445,-0.05365201590317483,-0.09045686821245028,0.47068662842878156
62.7518057454,-0.01624450216483325,-0.022261162857695246,0.5539965471754186
63.2531175864,-0.028603249941934146,-0.01814170028085148,0.617360632981184
63.74941723244898,-0.023019284785154838,-0.042686199612418194,0.6307144482236222
64.24571765,-0.039161509811222246,-0.03287920759196413,0.6185631868743313
64.7470321608,-0.02071961782689908,-0.02003803673134482,0.6256093206226487
65.24834763,-0.03726806715347025,-0.02126647116952721,0.5917023320202961
65.7496635598,-0.033546817231726596,-0.03460641991326954,0.5691200849341791
66.2509802376,-0.0313867833863733,-0.05807144430628438,0.5531266732642751
66.75229736680001,-0.002180636681467451,-0.05746200866651719,0.3992992154578073
67.2536150574,-0.012011943398675205,-0.06239987490010522,-0.06830223516364917
67.74992042040816,-0.00874435162459012,-0.016873546639377318,-0.3481516562712548
68.24622628,-0.02359089202815559,0.0210912857475925,-0.306636142168162
68.7475462478,-0.011764126307630771,0.035953667044962855,-0.08670677401598693
69.2488666772,-0.009215355924155299,0.004981548303841294,0.1415808664829126
69.7501872962,0.010286914092987477,-0.0024843237484742917,0.17279458597185696
70.25150825,0.007412274053307049,-0.020120478912409524,0.15826798632780872
70.752829795,0.0031539109415754736,-0.02348749407985792,0.09845304887685381
71.25415178,0.005788379351984782,-0.007355712047971721,0.045404876689741094
71.75046068816326,0.011617767004982169,0.01768133469727457,0.002238357495513004
72.24676999,0.0053328811598321755,0.03040488261517458,-0.000272645580826935
72.7480931356,0.002957421512755054,0.0007605322932230271,-0.0006056976439464046
73.24941689,0.006247380269751344,-0.01152034258567121,-0.0017618845937079203
73.7507413428,0.008366087463866512,-0.015819919355098064,0.00025457780508176804
74.25206626,-0.043032491421492416,0.0002474655660388705,-0.0024635396004367345
74.7533904272,0.0034841099057042607,0.00998752099309716,-0.0022399292050647034
75.24970138244898,0.0037011369371725625,-0.0071256173732501815,-8.758816251465786e-05
75.7460130906,-0.0011721047325330685,-0.008176690213996064,0.002889638526109919
76.247338,0.012186206788421994,0.011192636064259062,0.005864168874648826
76.7486632744,0.01480426601749269,0.0063317506252460794,0.006794314368976433
77.24998893,-0.002367583909073854,0.004347975740300599,0.0037159760859229868
77.751314856,-0.002745485616337563,-0.0049580892700769,-1.2212264550000644e-06
78.2526410156,-0.013269020004922305,-0.00879805511057406,-0.004125653088224008
78.7539672172,-0.0011414267056349266,-0.004867049232963848,0.001109475489439865
79.25028030081633,0.015296900670256634,-0.0014713934431000773,0.0001446747649364948
79.7465940168,0.0026346546015508393,-0.007832906470635902,0.006116074606980315
80.2479216074,-0.008454661209245899,-0.005935298214078167,0.0021444262361666857
80.7492491256,-0.006589884297115057,0.001763252678819765,0.004193986993753574
81.25057694,0.010812886607971039,0.002005289996077925,0.002121762684534891
81.7519053226,-0.0052673267277305764,-0.010132360747319718,0.0024751797391375026
82.25323396719999,-0.001145724494106144,-0.0015323525832565046,0.0020823391336767484
82.74954948265307,0.0001666225542281972,-0.011689112894849453,-0.013709797049795696
83.24586544,0.006802029195307618,0.00934974822855327,-0.019218704599702895
83.7471948722,-0.010386272829211212,0.00769313193270527,0.006570410234304523
84.24852450739999,0.002244665824125227,-0.016146589846922323,0.006803872879042202
84.7498544404,0.005254667005222186,0.007983433972902314,0.008021990511090257
85.25118461,0.004645133374543189,0.011622179997951464,0.007171663066852914
85.7525151122,0.002425095863097306,0.0019319126548963258,0.008326006254240311
86.2538459974,-0.0010114835382816418,0.001800536364556051,-0.008683073272492788
86.75016364836733,-0.004034765144038591,-0.004364701472461054,-0.06754858218598252
87.24648132,-0.00835014367689107,-0.014046902356267217,-0.11487587235499362
87.74781327000001,-0.0020830793055581624,0.008229548417177013,-0.15688208540394621
88.24914573,-0.0033714470956384955,0.00891837530210264,-0.1471374650571236
88.75047836600001,0.015547636815823098,0.014188602494686736,-0.14822342363417024
89.25181145799999,0.006458660782062215,0.010073329248047052,-0.14872646338454518
89.753144116,-0.017360223709307364,-0.000402261015564131,-0.13141701253769913
90.2494637134694,-0.013611579310198194,0.008450896962439908,-0.12772925415740077
90.74578384419999,-0.00880539524940036,0.017461813164332415,-0.13665735896409167
91.24711778700001,0.013071848638355954,0.008893118162857632,-0.14566940867380773
91.7484518676,-0.003111781380326233,0.020464269248631258,-0.15818673503145672
92.2497860866,0.020427405748658735,0.01528557606704508,-0.07194313129036399
92.75112136780001,-0.026422765421697646,0.005007379038885137,-0.03829801636292315
93.25245750719999,0.008625757683565447,0.0032541182185022843,-0.0008910115847344673
93.75379413139999,0.008179109432282748,0.0009772493827327814,0.0012019751065184265
94.25011815306122,-0.003418115952510377,-0.007546068717412827,-0.00017831736184436515
94.74644237759999,-0.007560705741455906,0.00012240797163576316,-0.0023185654551984413
95.2477801,0.005115043415984476,-0.004339553738280864,0.0009493560935277676
95.7491191724,-0.0021789510257051057,0.003361459274337458,0.0016698071419039163
96.25045885,0.010762372008558918,0.0012248858557908976,0.0005230157837960261
96.751799416,0.004645511493461002,-0.0011164473387159722,0.0027852223909128537
97.2531408672,-0.003219287311418422,-0.004093465908918952,0.0014942557554731108
97.74946865999999,-0.00771012517334166,-0.0012986484718580764,0.0001417624801286295
98.24579664999999,0.0019457702089067663,0.0008176609028567479,0.0009073687338164194
98.7471389504,-0.0005060892117914131,-0.0010033224026440304,0.0007081948174669304
99.24848193,0.0016350794645569062,0.00919899661121302,0.0035433454974872773
99.7498247864,-0.0002303379863715011,0.01538409392621521,0.00043403990719072797
100.2511679,-0.01595698775274691,-0.002042816434807051,-0.00036503135353135137
100.75251166800001,0.021029515913290345,-0.002190003026121242,-0.0023997185684627655
101.25385584,0.004459995559141669,-0.010913735023021436,-0.0007739486079780247
101.75018680408164,0.001378555385191994,-0.021167382142623318,-0.11480714156937571
102.24651812,0.011261227125750171,-0.006641732511972965,-0.19858599873504534
102.74786329599999,-0.05484651660319372,0.028997654184436603,-0.17470784048206459
103.24920874,0.0027690911714951466,0.016199234283822667,-0.12410377319410078
103.75055499800001,0.024873275401576175,0.022050578007612138,-0.14638584874498717
104.251901654,0.004602713164931683,-0.0075984745067397665,-0.15761950287071747
104.753248232,-0.01195939024898626,-0.0013516124160140325,-0.15162109602416818
105.2495815265306,-0.0073046330549729685,0.013902106339789382,-0.14447097371442866
105.745915212,-0.000842214462843511,0.02227727191665549,-0.13495445438616024
106.247262694,-0.006408388222842446,0.007330835790059597,-0.12688315859244237
106.74861058799999,-0.005343012969817937,0.01270190226567768,-0.10764141343432305
107.24995865999999,0.013610738905247815,0.014466861396340094,-0.049346868437709725
107.751307464,0.00507615129953921,0.02087471991207281,-0.0017181971358693816
108.25265671999999,-0.0024504510804670265,0.006398389197992282,0.038029749665792444
108.754006312,-0.001269187170544166,0.01001356059322022,0.04246241071741214
109.25034227346939,0.0023245406308150434,-0.0024113013730394065,0.041682143748683335
109.74667894599999,0.004010256957195591,-0.010440154132816203,0.03254426557754579
110.24802996,-0.0016937817064278204,-0.0009917858414832982,0.024826349874414958
110.74938095600001,0.005620861096049329,-0.008817607773836321,0.02186567669715505
111.2507324,0.006171308780569215,-0.016432730337260264,0.020196914359638485
111.752084136,-0.001522080762678052,-0.0019348367385010655,0.02148369684246405
112.25343591999999,-0.0016410784305232367,-0.004719266913768048,0.03271878512223213
112.74977531632653,-0.00011075306823276917,-0.0023244667972753233,0.03359390176598052
113.24611555999999,-0.004719509663792788,-0.007004579558091364,0.030885353462888666
113.74746895599999,0.004981280583873265,0.006603391294217903,0.041401343905454
114.24882234,0.001543709566023542,-0.003332201351566018,0.03360785142382581
114.750176688,-0.004158820952585913,-0.009619446837607381,0.02592090852688378
115.25153152000001,0.007328139228210442,0.00468328633352409,0.016315637683583177
115.75288658400001,0.0035863460710167626,-0.002996011723850355,0.017754439611737352
116.25424206,-0.0005016130028347995,-0.0019684857177741286,0.03253652818919063
116.75058425918367,-0.008810118289207644,-0.0007048821330610905,0.03923525577471916
117.24692655999999,0.000569803662987679,0.002751466803585489,0.03324372356242526
117.74828312,0.0013802920262624462,-0.012010336476522929,0.015530994516651788
118.24964022,-0.007592844148974006,-0.013982403179938934,-0.001132230251356696
118.75099714800001,-0.0043380583547400695,-0.010593468151836389,-0.015527780372260564
119.25235412800001,-0.00827782914973197,0.010159461791567268,-0.005165572845215725
119.75371157400001,0.0076655136465685015,0.022731668091654646,-0.007998481802285073
120.25005562040816,-0.003457749290435754,-0.012395358101000092,-0.011435238290115014
120.746400476,0.01789387409894272,0.00982131259427001,-0.006542001268855663
121.24775984,-0.0007908571332022805,0.01658024591806096,-0.002114101071342468
121.749118764,0.00189431975417091,-0.011773922359189752,0.00298800835789313
122.25047764000001,-0.05549608629214948,0.012191053934954527,0.0038576781115231902
122.751837696,-0.017215366805630364,0.003020736669407774,0.004993656207018162
123.2531982,0.03860855496689964,0.0012174248107396242,-0.0007067158083667818
123.74954514081632,-0.01033899002256212,-0.0016829304449853123,-0.00974078719088982
124.24589239999999,-0.01527346233883227,0.005297199105529309,-0.014348895849147883
124.74725359199999,-0.007284746124732352,-0.006779896632169527,-0.017852879101776284
125.24861496,0.01532697389480495,-0.020036769942612654,-0.022906158421853492
125.749977112,-0.02913582636798143,0.011453736340138404,-0.02977492312383431
126.25134004,0.016748908108299886,0.005453564082537451,-0.02322580245240711
126.75270266199999,-0.015274838211774175,0.02242894608022897,-0.014962793545633924
127.25406505999999,0.0225653836805026,0.0019663018265826553,-0.017279883123328225
127.75041515918369,0.020496944561883206,-0.024936813258790415,-0.08317761677118553
128.24676585999998,-0.012808156338950829,0.00968325268648785,-0.24832633146916755
128.74813034000002,0.004114733789308391,0.030906319071443093,-0.3263702788700579
129.24949528,0.017441077686100637,0.04085781716026984,-0.27174662480310985
129.75086072800002,0.0032336417413680266,0.03467335611259779,-0.028235211336392677
130.25222685999998,-0.012993476151054242,-0.015872142137063987,0.3148313407543878
130.753593038,-0.018013488301413912,-0.03612958818478317,0.4695136780948706
131.24994594285712,-0.02756487786706194,-0.03263608381640177,0.5152239300888126
131.74629941999999,-0.014541561895879584,-0.03080576528603972,0.4827860561682901
132.24766688,0.020384874875009538,-0.0400857234335251,0.28533127390706126
132.74903446,0.0032967987047608383,-0.03518767395093112,-0.023820445315144413
133.25040262000002,0.007734684943810728,-0.012537502123501664,-0.2745717242748035
133.75177095200002,0.017174341420967968,0.03633503869444641,-0.313296127122063
134.25313942,-0.009167466658694428,0.015099201166202517,-0.21415426912282196
134.74949483265306,-0.004371000581677489,0.008650256025315096,-0.06004757176411882
135.245850736,-0.0036603654583392932,0.007596322542986104,-0.022255000222448706
135.747221116,0.006067673059356364,-0.0001844087652830824,-0.005089757868018897
136.24859202,-0.0002718728713479661,0.003740886040242864,-0.009309028188792902
136.74996371999998,-0.00401120205895182,0.00011639101856158664,-0.014908082611624709
137.25133598,0.00915725463693286,-0.002915252268658952,-0.02095250537220859
137.75270888,-0.008587107494985584,-0.009898525528003412,-0.02768424025575367
138.25408248,-0.008847707847232185,0.015818172839557155,-0.004625429155168786
138.75044235918367,-0.0002778164915653508,0.0007311514380953819,0.004968764143683076
139.24680214,-0.00155233356517049,-0.00834955446096893,0.00537553266369067
139.7481766,-0.01622124655232032,0.013898515011784327,0.0026469323741666645
140.249551562,0.01116287858930364,-0.008242257726261975,-0.007169281945123565
140.75092639000002,-0.01991654920286393,0.00357637925491396,-0.008711182519998948
141.25230159999998,0.014022235686429473,0.010386776572930993,-0.006520959188255504
141.75367712,0.010819767322109795,0.00018591062378749558,-0.0055950116633867765
142.25003899387755,0.005504755217458098,0.002386431367039535,-0.002248365761786181
142.746401478,-0.004262191802862964,-0.013420166176018555,0.006735557103401577
143.24777804,-0.008591655292843812,0.004109972615367303,-0.00571110698851756
143.749154986,0.028826297574118916,0.0007932515602399881,-0.023540857689100574
144.25053262,-0.024005117829021927,-0.006824381083460026,-0.015500177660093454
144.75191004,0.01872354078824898,0.0068066708455971,0.0209820363848411
145.2532877,-0.005766248154386275,-0.0016981901177628477,0.019981459681643332
145.7496519408163,0.006853754161227255,0.0012590969720018106,0.008785322006693255
146.2460164,-0.016140093655427727,0.014000874244665834,0.007487864167922793
146.7473951,0.023933774127729884,-0.02708669569493705,0.0038348795115431423
147.24877406,-0.030257099846422067,0.00648738126070614,0.004526056785585291
147.75015329800001,0.011033499691446114,0.014267109074370772,2.081736762220998e-05
148.25153286,-0.001710234852189872,0.005050525003962651,-0.007240162951285931
148.75291253,0.002998074742031653,0.011310292253967909,-0.005894763346435125
149.25429192,-0.0020982607724789135,0.00459804181778574,-0.0045375597150054455
149.75065815714285,-0.012871884609768638,-0.0202028604450526,-0.005272858057431743
150.24702489999999,0.007589609377080171,0.009044378581941744,0.0019711101938003923
150.748405578,0.0032585100097953677,0.0046002980601739865,0.016521903583284262
151.2497868,0.02016117761308782,-0.007954941057479797,0.009143784848739435
151.751168342,-0.02459352048978522,-0.0029402579623407053,0.004029478881325854
152.25255022,0.009728022040401555,-0.009834323883330574,0.000988914426554941
152.75393252199999,0.003943520061323552,0.008849247249703455,-0.0060047577950567595
153.25030126938776,-0.01286183825383417,0.0032270613332669976,-0.005112714665958002
153.74667024800002,0.011507225784871036,0.0009809708043517493,-0.005831153142083902
154.24805354,0.012265126497975414,-0.010323771044383192,-0.0035857390170862457
154.749436546,-0.02335040319560549,0.014643935859833097,0.007740780245581352
155.250819716,0.005877629091731734,-0.004887642356915141,0.007033344113465972
155.75220335,0.0003260866111887112,-0.0009529652033098422,0.001843329322282302
156.25358746,-0.0022015782000090124,-0.002014917139786653,0.0028904807224210626
156.74995748979592,-0.004755086339069793,-0.0008385955447608642,0.00368756423918517
157.24632752,0.007461354787799967,0.006662886817881265,0.024471108744392286
157.747712204,-0.0028054603956328607,-0.009484903111380517,0.053092462908449656
158.24909746,0.0029051365662928087,0.0009171019813985957,0.05655507099797999
158.75048258799998,-0.002851812079232061,-0.01824261603717294,0.04704252830893589
159.2518678,-0.003403063981757946,-0.01923849890640149,0.011378340444013747
159.75325340400002,0.006159217451170384,-0.02228330370982363,-0.05136954821536252
160.24962535306122,-0.01666288555353566,-0.015987823453456156,-0.07551144627793625
160.745997552,0.008774540661713189,0.004194596124296957,-0.054599897583352
161.24738404,-0.010618938166258952,0.00046785527222306547,-0.04395855894836469
161.748770516,0.010924487475057074,0.01563011068125637,-0.013967471111481293
162.25015729999998,-0.0018310248393012451,-0.008812308523841574,-0.020776033399004145
162.751544168,0.007450778591357021,0.001973999754132853,-0.05861962713097796
163.25293108,-0.007760190966021837,0.011662267780835569,-0.07459613436075421
163.754318412,-0.0010793444624444207,0.029730161815766567,-0.06153217195252159
164.25069212244898,0.006284266961696831,0.008499882046935655,-0.013476181079770127
164.74706569000003,-0.010785211847745151,0.026439447369729648,0.038134479451353634
165.24845290000002,0.010743521024854728,-0.004089210459165526,0.0056107517480832505
165.7498406,-0.015507241996245792,-0.005488110329575224,0.0010079882392082346
166.25122876,0.0076560715410570945,0.010879280500709092,-0.0017018425883151215
166.752616676,-0.008255973613701407,-0.0041438818212228045,-0.0021084181345209906
167.25400504,0.0199815097164258,-0.009421622061097618,-0.006671098168530461
167.75037982040814,0.0001846882446557129,-0.013129917157048587,-0.010181830796299113
168.24675491000002,-0.0007352925193044859,-0.02256896884013869,-0.00477962025091451
168.748143892,-0.014938641293616571,-0.01501686363832776,-0.0031843423697814244
169.24953236000002,-0.0052980587061057915,-0.001087260419180016,-0.01122705661657601
169.75092171600002,-0.00945756668114516,-0.003508950301847602,-0.02623283737830536
170.25231146,4.106151266510419e-05,0.011563909999195114,-0.01012881426352498
170.75370098399998,0.006741728988253842,0.0005811603129077491,-0.0002591876396724712
171.25007671836735,0.0029316124861904044,0.007516015714659133,-0.004348312513190212
171.746452656,-0.00021182523484805538,0.011875763440386641,-0.011388060817990936
172.2478429,-0.012669313919752637,-0.0010020149737881854,-0.009021429471481893
172.74923296,0.018258206111138323,-0.006121786058615027,-0.004632490368471565
173.2506231,0.0032162447125358372,-0.011408018713299708,-0.0029103108942545707
173.752013314,-0.003109096994969791,-0.0036835213857857136,-0.002926533306235247
174.25340368000002,0.0352777524347685,-0.007708179156601412,-0.05613232754926635
174.74978015510203,0.007961954144069625,0.007883539244235812,-0.21639864918055676
175.246156776,-0.005704861579867244,0.026622984561106275,-0.31862617644627667
175.747547312,-0.020381522101132886,0.03619539166017772,-0.2890044078004126
176.24893776000002,-0.021639506018087257,0.048814393945557394,0.011023656615747567
176.75032863,-0.02731551841076616,0.005602980016558789,0.41003527256468564
177.25171926,-0.014451722554747142,-0.023417299418247783,0.5900948328558991
177.75311039200002,-0.023294089375361832,-0.03862287498802712,0.5987850629732131
178.2494875857143,-0.027227830691743105,-0.05650199685438108,0.6636160255950861
178.745865048,-0.03217445599216407,-0.07278970619258271,0.6999345391236801
179.24725646,-0.030943959608709205,-0.052957358247577364,0.7014681659154514
179.748647328,-0.019216184153409737,-0.029243300238266018,0.6654514981890199
180.250038232,-0.01686121864200299,-0.06940900800505062,0.4211913420765711
180.751429272,0.010674811200984317,-0.036147618159230836,0.019877272499343446
181.25282076,0.026160233761910755,0.013155712554630937,-0.18037405796272526
181.75421209200002,0.023075027936204556,0.01508933855772174,-0.24967026287404032
182.25058953265304,0.002859606971896401,0.010257669569024875,-0.1684067234099235
182.74696727999998,-0.01620896082127401,0.019043397883517256,-0.10394539428913241
183.2483594,-0.012840530485623081,0.014468121124631406,-0.05895682846827512
183.74975103199998,-0.018108017040321434,-0.0046571376585688665,-0.011496279433606196
184.25114246,0.015093203339045293,0.0035557501160065575,-0.007054141179510253
184.752534216,-0.011431945083651503,-0.008825601402185747,-0.008082647364751675
185.25392632,0.003156354934381634,0.0029397923372700453,-0.006717897155610209
185.7503041877551,-0.0040852299822173276,0.008229316039740218,-0.006657798136011509
186.24668192000001,0.0010025849343441755,0.007796150894617323,-0.005272111778030819
186.74807388000002,0.0034735739800984444,0.00923111575445789,-0.0025519739155555094
187.24946582,-0.003301592609020098,0.0026842458348135725,0.0066149211553692844
187.7508578,-0.00027992264961100734,-0.0023037077392536864,0.00837582378470451
188.25224988000002,0.0009409336682619781,-0.002905655013961161,0.010562875269924643
188.753642164,-0.0010201751401712048,-0.0029327198500378204,0.0036320325135817204
189.25002049591836,0.0009942242398203614,0.0026245097940577207,0.0021647516962774917
189.74639939,-0.0033544115432826743,-0.0059388820793090935,0.0013543169051090953
190.24779249,0.0029099986655809745,-0.002845989817537666,0.0013273259805581757
190.749185846,-0.00014190535694163164,0.0057481499647972735,0.0028052303957570757
191.25057998,0.0030297144792262223,-0.004146025443387438,0.001174813790584573
191.751973498,-0.0008402655135474768,-0.0036968288544153307,0.002138133992212306
192.253366152,0.004778085947701658,0.005084590203603999,0.0009058710583644647
192.7497461836735,-0.0020098206039755903,-0.00030799285831677436,-0.0011641000661510473
193.24612644,-0.00024831464541182015,-0.0009425214939632065,0.00042519011293450445
193.74752071,0.002970438209033687,0.0055193480724161,0.000682050052920853
194.24891572,-0.00038865864676430065,-0.0005075924808998904,-0.0006829091616965399
194.75030966999998,-0.0037250621357228396,-0.002070438281245545,0.0001281928483311751
195.25170314,0.003725522761814166,0.0045592887899284125,0.0007553325283805707
195.75309739,-0.0007820370433934621,-0.003706148153087305,0.0004601518981959258
196.24947786734697,-0.007398478412862894,0.0002308116921667352,0.003538289487312756
196.74585854,0.0063781073372276165,-0.003469944651090399,0.0016699329161154134
197.24725406000002,-0.0009657815307399535,0.004033911723011923,-0.002905784888615809
197.748648616,-0.0016697798795477679,-0.0011944544690723853,-0.003501530328165075
198.25004213399998,-0.0038697334431430307,-0.0007186190835217005,-0.003921056332451212
198.75143691000002,0.007098200100263082,0.006371983962558835,-0.0024069690206457188
199.2528325,-0.0007703571796533865,0.002106867707214422,-0.0029371520860067618
199.75422733,-0.007339639022150132,0.0022248077036539546,-0.004901306246629912
200.25060804285715,-0.0005214620536927673,-0.0051530333126016846,-0.005348642870891599
200.746989168,-0.004006466108041028,0.0016385342876334792,-0.004919278727332521
201.24838383,-0.0007413628161957701,-0.0005485648663904613,-0.004552935321435637
201.74977925,0.009766698041214845,-0.002980795735949533,-0.0018620990821942086
202.25117496,-0.0006820856588392528,0.0012285126159985928,0.003334351852033361
202.75257072,0.001301199597591482,-0.0017534704825788892,-0.0011526482754142726
203.25396745999998,0.0036871670803188938,-0.0017389445996502486,-0.0004921952284370183
203.7503494142857,0.003355548546470992,0.005743722794969279,-9.582966927928888e-05
204.24673082,0.0015385019328072024,-0.0005705293862502674,-0.0003150517612793684
204.74812708599998,0.0031225851089945788,0.000881980564023774,0.0011556062827307128
205.249523432,-0.004637837462928561,0.00046435417037887783,-0.0002580984618181852
205.750920062,-0.00010704697399645209,-0.0002891935794805236,-0.0028292983374902246
206.25231692,0.012102942438103906,0.0007730109062633701,0.0011810087027714152
206.75371384,0.0042051136043848095,0.0013600757520728548,-0.002037799961458407
207.25009742040817,0.01735768051926686,0.0009685788582545555,-0.00015921918971301642
207.746480618,0.007512094434524014,0.002331731181371795,-0.000957355169136335
208.24787742,0.00490973873222729,0.00010394751696639664,-0.0019059058073886029
208.749274964,0.013844778253218287,0.004692528927581706,0.011019264290454715
209.25067294000002,0.015353815768471992,0.0009547573503500251,0.01514991340246442
209.752070552,-0.029701028055706895,-0.0010472133282110393,0.00464311973131746
210.25346850000003,0.03477505934004957,-0.017512230285012084,0.005604536747863941
210.74985226326532,0.01025454448018981,-0.026058926887590234,0.006017217791963289
211.24623536,0.01605608051531921,-0.017149421824563874,0.0062048069500270754
211.747633446,-0.006576896106882208,-0.008159247976432953,0.009367121084202098
212.24903193999998,0.014665986105751833,0.0007142784804866521,0.008019178219825885
212.75043024,-0.0519876217686711,-0.012463866382113076,0.007392806788893338
213.25182892,-0.011696804441039734,0.0040188561727390396,0.010592832841733924
213.753227434,-0.044750859517253015,0.001672055769537855,0.016740450751518803
214.24961234285715,-0.026629298558703923,0.0016724326486485816,0.019366924782990354
214.74599717,-0.007109484194198679,-0.013054734662277799,0.008952414328132012
215.24739654,-0.022606504897502648,-0.005376739850250129,0.0017251521857945275
215.7487951,-0.026011974675856607,0.008480673834256588,-0.019727549614937372
216.25019292000002,0.0016206911709181798,-0.00697512815125394,-0.1376732103053419
216.751591708,-0.0589773264622441,0.014602381187821058,-0.31958331142339064
217.252991,0.007939256709375264,0.023368112819556468,-0.5213596883813287
217.74937600816327,0.00900964765745604,0.05515430442528428,-0.681526941801935
218.245761,-0.016166954430849912,0.08441656580900393,-0.6987514939204753
218.747160152,0.02719549003263457,0.07596372572878485,-0.4965682278749174
219.248560272,0.0074056889068963095,0.04753895500937162,-0.2857272400049474
219.749960256,0.013279855922725204,0.016308299091807376,-0.07814015034905088
220.25135999999998,0.006706423863666648,0.02130644387501254,-0.020052255812507087
220.75275997600002,-0.02031280856621072,0.012399345641416157,0.0038756019906818154
221.25416052,-0.00377114826879465,-0.0005903017015657728,0.013499373007926634
221.75054714693874,0.003554932872113912,0.007259700068913832,0.02635969908622085
222.24693436,0.006077557749211002,-0.01332466538439133,0.025670851296973714
222.748335348,-0.018188869662250726,-0.007187668438542985,0.018183204800265647
223.24973666000002,0.004227829077483199,-5.681752066928907e-05,0.011032637311966773
223.75113784799998,-0.006495091915264433,0.009256931979831151,0.002161633871016109
224.2525387,0.011773095587870297,-0.0011808545095599709,-0.0007823619639792885
224.753939652,-0.007852788307257897,0.01164614898695964,0.003574918750047772
225.25032639387754,-0.008048961438144521,-0.016235006263807174,-0.0007291610915200989
225.74671342000002,0.0058625624458763514,-0.003720279413471932,-0.0013267512525473532
226.24811462000002,0.0007461502458722352,0.0019838829490090404,7.984432711747717e-05
226.74951598200002,-7.140934838710818e-05,-0.0006474117782447514,0.00022457015366200977
227.25091731,0.005600174440983759,-0.004459932897275753,-0.004276170411320317
227.75231871600002,-0.003644195028108168,0.0031896763356090443,-0.007194201991929108
228.25372024,0.002365376227114751,-0.0031604185542903444,-0.0027045595862200144
228.75010769183672,-0.0031859476040189427,0.008326089346983354,0.007984877761086823
229.24649499999998,0.006129566957940031,-0.00024203914948549185,0.008336088178383673
229.74789660599998,0.002794403238831343,-0.003247222276398142,0.0066665153509681396
230.24929843,0.007858612849261724,-0.003727443066744432,0.0008313689315780152
230.75070022600002,-0.0020663809743156716,-0.008073106478333786,-0.0023704359347831365
231.25210216,-0.003862996272245251,0.000757602320116754,-0.005581454246661741
231.753503712,0.0051956795002090364,-0.0005770397626384117,-0.003565396253057789
232.2498912877551,-0.0017631855450765288,0.002582841609775371,-0.004152037194547886
232.74627884,0.0024127124905070634,-0.004188286364071797,-0.001698561861975657
233.24768048,0.010385510708290795,-0.0040656494370328675,0.01208588523208934
233.749082338,-0.006983276946528159,3.598446522364226e-05,0.046665510855957625
234.25048403199997,0.0012721283343680146,-0.018677502971560154,0.11659286904982386
234.75188594600002,0.04805673837544673,-0.01884887081594124,0.1896469530183992
235.253288432,-0.046689286109898746,-0.016891445024716074,0.28622634268403935
235.74967647755102,-0.021955186286684737,-0.03379519182755824,0.31239425253519054
236.24606366,-0.004056049420538219,-0.02283911332973979,0.2965939147735619
236.74746586599997,-0.0222236062917443,-0.027030725152031258,0.3215653342711179
237.24886847999997,0.00623597668914936,-0.0167763784975503,0.34679522040879485
237.750270756,0.008813607976700834,-0.03037363899368566,0.3192364096825453
238.25167304,0.028986936014239417,0.03637641699325967,0.22423984820829673
238.75307559,-0.0313109794989982,-0.01654245629220532,0.12553547708758692
239.24946461224488,-0.004705230552552302,-0.007630561283069456,0.0677549382059556
239.74585284,-0.015278321390066876,-0.010766556073711351,0.029004397146975003
240.24725542,0.007525371496254473,0.0039311886025698425,0.018497121705233887
240.74865766,-0.0016303291024305272,0.0008695823792896784,0.012542717538290487
241.25005990000002,-0.0009757921262184898,0.0011906268926615805,0.007101582973161956
241.751462788,-0.0049112462286226375,0.000920188965015018,-0.007639599455726831
242.25286540000002,0.000811164984232136,-0.00450275080672997,-0.010818129646568307
242.754268962,0.011793814504209976,0.015818066507721943,0.02707412707863532
243.25065986734694,0.0018737287800015636,-0.0016485288769758882,0.0956384914211565
243.74704982,0.006853010363639461,-0.024808974181816976,0.07358254618409056
244.2484534,0.015175712028471336,-0.030736283218774266,-0.01722941632299545
244.74985768,0.015343738642870603,0.002728672305510228,-0.0728565300146205
245.25126196000002,-0.001174699755760689,0.019012883936920626,-0.05464172496778102
245.7526666,0.008667036874740745,0.01785354147972468,-0.03000296035300133
246.2540717,-0.0045206513797988275,0.0007125345186347922,-0.009699645326931995
246.7504627734694,0.00528621706721507,-0.0017283037133223073,-0.0013658939237526754
247.24685398000003,-0.0021559423471141357,0.004164654064400476,0.006612266108683131
247.7482595,0.0009729555323125468,-0.001417176213045663,0.00045188444627171083
248.24966560000001,0.0021428757496771223,0.0032203496455439073,0.0008139269243444873
248.75107152,-0.005688765079272617,0.0026321825947447893,-0.0008047660675086104
249.25247714,0.0005371257080813049,-0.006698807288417401,-0.0016261666474869554
249.75388336,-0.0031076390406516463,0.002565983124612582,8.608990309636751e-05
250.25027551224488,-0.006654813858367319,0.0030778410592738727,0.0002607376485554614
250.74666788,0.004932425143241385,0.0038927978442043452,-0.0008445112717539292
251.248073824,-0.0023264419978354417,-0.005994267974342218,-0.007424987093732623
251.749480532,-0.0027276895372170804,0.0002488942246543951,-0.004375810415704113
252.250888302,0.0017047168856360517,-0.0026840996772079994,-0.003253424000032027
252.75229532,-0.0003573928387826137,-0.0007018234327810766,-0.004943377222240841
253.25370254,0.00252799706163578,-0.00683983102343599,-0.009582666380924426
253.7500957489796,-0.00319159136410061,0.005839266368170305,-0.010318319703278464
254.24648825399998,0.006610873184907401,-0.002488581932317734,-0.009538007182171501
254.7478954,-0.008820300649219605,0.0037370218842127613,-0.004756486497992206
255.24930243999998,-0.0012098043574964796,0.008952125182436016,0.02855090356061615
255.75070952000002,-0.004247401622334502,-0.04648578841979642,0.012646612861573479
256.252116976,0.004817229286163321,-0.012616941772548058,0.02421475062244757
256.75352456,-0.002016442685456453,-0.007823880799764902,0.01705838047592003
257.249918522449,0.007651862663117218,-0.00822084698133026,0.004984490466498593
257.7463123,0.0014465513715275643,-0.010232506987165824,0.005081498624871816
258.247719434,-0.0021286086395155986,-0.014825180626128445,-0.01594820549689775
258.74912732,0.003426088571110107,-0.003704681107758314,-0.043683721023592706
259.250535378,0.0015663175376376451,0.015872771709325353,-0.07042789166747043
259.75194344,0.0008444155638025138,0.04065464629382913,-0.04671616520775479
260.25335158,0.0075519951773507996,0.03454787022965262,0.021450174458120596
260.74974574489795,-9.570465395058167e-06,0.019047552117731143,0.08257854304513987
261.246140232,0.003440009436559967,-0.010375623309485405,0.0850911672173535
261.7475487,-0.0037842206274440486,-0.017014933755427314,0.06938255235958682
262.248957124,-0.007563624865830624,-0.014955987597864451,-0.00548346596662722
262.75036558,0.010917109690231092,0.008514829716666008,-0.03882648914942078
263.251774826,-0.0028768420177426573,0.00022806773114682845,-0.04457214290719481
263.75318358,-0.004929990224929184,0.003084842546406167,-0.036375644255481156
264.249577777551,-0.0017932681857852082,-0.0018681099502392982,-0.020986009614593144
264.74597278,-0.001896461850615229,0.004465623786985212,0.006642901019898248
265.247382004,0.005308191195339442,0.000576499181494635,0.009982656552488896
265.74879153999996,-0.0031150079366810196,0.0030083361938033344,0.01253148279214749
266.25020218000003,0.0005307400005631452,-0.002835084595291023,0.010734809032177377
266.7516122,-0.0004099518647472975,0.0019412317403322402,-0.006458732620490395
267.253021972,0.001260293315861864,-0.0038183886466634583,-0.012977345450555441
267.7494181387755,0.009511843639153058,0.000200963918424584,-0.013999765665407072
268.245814324,0.005056327685995332,-0.0006787375254827757,-0.009613373831339297
268.74722488,0.0035904099175395553,0.001219337331575764,-4.4822183657008965e-05
269.248635364,-0.005941536041677861,0.0006033397820336731,-0.0022361473504120106
269.75004586,-0.005977290161602361,-0.0063649125381098045,0.011796214663586881
270.25145642,0.006120965037097457,-0.026222864768098143,0.041411185488765406
270.7528671,-0.002189360531775231,-0.021713782718395355,0.04481654533804599
271.25427794399997,-0.011027005907280632,-0.024004195623704948,0.03392451824307485
271.7506749,-0.00196233651397601,-0.0010312576537704226,0.022565401388822674
272.247072322,0.006885602587187698,-0.023115729671594355,-0.008286762873933177
272.74848368,-0.0024038682213682787,-0.00856707458420175,-0.07594656822171268
273.249894696,-0.0013108468393406329,-0.0026321419432335756,-0.12073301029265043
273.75130637999996,-0.00207220117654159,0.01939673867445012,-0.11079082365259196
274.252717968,0.009873960618566834,0.018438205439372215,-0.04942418538660499
274.75412991400003,-0.0007183395737465785,0.00707464899643954,0.028328954704453544
275.250528122449,0.00295656422265188,-0.006469444096871497,0.059794187811473845
275.7469262,0.0006888358554169235,-0.007125702837733644,0.06683849712301501
276.24833895,-0.0007366633887865486,-0.006294818845733583,0.07399716323492975
276.74975126000004,-0.0005068436231284687,-0.00396699011232619,0.03473961967250186
277.251163734,-0.0021956392989354264,-0.007280753341923291,-0.0020776045127419494
277.7525761,-0.0032650427740970266,0.001499155169607922,0.0012296002057115693
278.253987916,-0.0037546460427044124,0.006520592887854403,0.03787843734391657
278.7503861326531,0.0023717895494517983,0.0032276776766536892,0.04075768912447181
279.246784688,0.004501351807212382,-0.0025797383129749344,0.023209696708102308
279.7481972,-0.004178776551067766,-0.0037748151300998223,-0.0003172102032406056
280.249609766,0.0023245101834378783,0.006184535776337791,-0.05051557503188889
280.751022356,-0.010093439692778152,0.000989023005838978,-0.07181378043186135
281.252435508,0.004178088803988716,-0.05053863303568013,-0.07837948485350212
281.75384818,-0.007787832242311387,0.026980683315681424,-0.06955410194810482
282.25024658163267,0.0023229554167099784,0.07356238581139118,-0.05033759404608336
282.7466453,-0.0467608570062506,0.06343371823815971,-0.0023754784311538113
283.248057932,-0.008479933686693026,-0.0035393220280131575,0.050999677658474345
283.74947104,0.016505955591971287,0.007042916786566198,0.10561898214867388
284.25088396399997,-0.0546359116774448,-0.00999225974265184,0.10322404921730584
284.7522971,0.02854044917897709,-0.025911290134052547,0.03901883058251272
285.253710568,0.006653176731118951,-0.00972711114267316,-0.04590180776057129
285.75010966938777,0.018519780980387826,0.009078809895418687,-0.02344914863234419
286.246508462,0.02793451950831345,0.02354079807988159,-0.012188958780679292
286.7479215,0.002480508080046618,-0.004303701966609641,-0.01975528246589229
287.2493351,-0.0049329021193690896,0.010325824590179609,-0.018688095909399183
287.75074844,0.010875325908414103,-0.014028312625050316,-0.009109801129171919
288.25216192,0.008024351931988655,0.0016771244407720535,0.007007391843172659
288.7535755,0.023153334514384855,-0.005526148838899994,0.009287912344145994
289.2499751020408,0.001801728564256757,-0.009385094966206944,0.0005778220554710148
289.74637481999997,-0.0020307928643751544,-0.009891010596170037,0.0039054188345176745
290.247788564,0.0010440219249812227,0.026159233774029744,0.003139711690925628
290.7492027,0.0012723500673693434,-0.02303488216128363,0.0015211018419417223
291.25061762400003,-0.02231059106619747,0.00773188750768651,0.00016290086627900705
291.75203216,-0.033976713958492055,0.011651145338000522,0.002268295587306957
292.25344582,0.04267906573134341,-0.0002835764189877638,0.0008712752620108849
292.7498463795919,-0.028337022291958457,0.0057748789020366596,-0.0039643508002843485
293.24624805999997,-0.0016791175822795151,-0.021750635198877988,-2.3644228068680982e-05
293.74766324,-0.010416950045689948,-0.01282475152181191,0.004284124840362918
294.24907852,0.01485621606485742,0.010787892088448056,0.005831534828477747
294.75049396,0.00462186149061598,-0.017818177064177158,0.003483945149267244
295.25190903,-0.023651878938934712,-0.0071509921052910295,-0.003861683885977041
295.7533247,0.014149028335003968,0.015078520525347012,0.0013448837695749902
296.2497267081633,0.012983416034385858,0.019119668976979323,-0.0033916594923500726
296.74612857200003,-0.002210149894507383,-0.016760094230956497,-0.006969625411420777
297.247544696,-0.0139643352768736,-0.005502584557619324,-0.003630256802570019
297.748961118,0.008882504287804361,0.015789003754658776,-0.002284052081373472
298.250377206,0.0030080006182382902,-0.0007253472427799551,-0.002805686152016324
298.75179384,-0.002696291590413001,-0.0005050803263560557,-0.003189554152226528
299.25321049999997,-0.0045697546851211635,0.013118085524537453,-0.0007046788249666112
299.7496129387755,-0.0005207847237128984,-0.003786186964397189,0.002115343640091877
300.246014632,0.004566245991925428,-0.01687864862171322,0.006955653593175502
300.74743124,-0.01055146142949796,-0.008699629355855385,0.006297704873783304
301.24884833,0.03608831615205244,-0.013001549373268712,0.0011876510792162632
301.75026536,-0.021693532139398196,0.022060992333646338,0.0007924470621866317
302.25168324,-0.015223369166055087,-0.016371058020044967,-0.0021875320147782514
302.75310066000003,0.01678574467125061,0.002516034937764836,-0.006736702349738244
303.2495030142857,-0.0017699509238693115,-0.014242993614164324,-0.006510820846992793
303.74590628000004,0.010381724874650701,0.013923714994303376,-0.002660781710514004
304.247324928,-0.0013220240523925146,0.004643640348180615,-0.0029647496428315983
304.74874286,-0.012041306197987094,-0.0036388464392107657,0.0012584746333523687
305.25016082,-0.0023840177215534992,0.001440452806548248,0.004295777515870183
305.75157882,0.004983545186874594,0.0034636078684073097,0.00038269458152212667
306.25299667,-0.010780723092749696,0.010207416978789461,0.00139417946708734
306.74940069183674,0.03941407037458872,-0.00745393959230415,-0.0010021989792484644
307.245804804,-0.07131819441729034,0.0046284199439339336,0.0008683110420585284
307.74722335999996,0.059273053635688626,0.005484771347695935,-0.0003451333867083836
308.248642014,0.0031004722053040727,-0.00936214862957045,-0.002291345192696273
308.750060872,-0.0021089576635373083,0.002074925137518315,-0.0018092095193232996
309.25148006800003,-0.0012676269875648509,0.0012481521880711925,-0.0010615326616161525
309.75289932,-0.0016598550444316873,0.004486257580102137,0.002506796438987985
310.24930404489794,0.010909215390573908,0.005160094823760771,0.0027172751279354226
310.745709394,-0.006291091517140127,-0.002499088921934629,0.001797065966151898
311.247129734,0.008265878443976573,-0.0008765402183044148,0.001171382930458524
311.7485498,-0.012889610129845179,0.0009094196234378942,-0.0016406510922421257
312.249969784,0.010215972583121131,-0.038816964699163785,-0.0017894505068818656
312.75139004,-0.04219054433550437,0.017416537732565657,0.004094075352644415
313.25281093999996,0.008005383332224354,0.031462906221416904,0.00392913194321368
313.75423166,0.0062642143057434355,-0.007577056252511991,7.454759714209963e-05
314.250638155102,0.007482377859444392,-0.008672565408163493,-0.004310055731471326
314.74704462,-0.0013092455582899892,0.008764437484309006,-0.0016585450173310686
315.248465206,0.004300709117803833,0.0011082505371955605,-0.003345429667738148
315.74988611000003,-0.001062117175006367,0.00471772951331366,-0.002806929503245719
316.25130729,-0.002394423200676261,-0.0021798318306784077,0.0038088074835777776
316.75272875999997,-0.0009492816740967772,-0.000862391628154642,0.004733267526025636
317.254150616,0.009767005964073445,4.272030419056216e-05,0.001030263835889314
317.75055836938776,-0.006469186850306626,-0.0033702882354879724,-0.0023380959458789126
318.246966562,-0.002290580580797516,0.008445804975164443,-0.002191098600068992
318.748388972,-0.0035836563682047377,-0.0020879297901363085,-0.0036776263630904148
319.249810816,0.006496927798919482,0.010595932319097912,-0.0006789642521100264
319.75123332,-0.010396586494751232,0.00572878938341133,-0.002298878274384242
320.25265602,-0.008319859251847759,0.005564629359487022,-0.002119939985562644
320.7540788,-0.003860678226410969,-0.004151524746897035,0.0009965732452424196
321.2504873673469,0.003184709741345348,-0.00447113865637796,0.0047773716560847715
321.74689616,0.0006604016588580642,0.0008142592367870877,0.004332778479234012
322.24831934,0.012854240073081433,-0.011152690386305316,0.0019741225777690444
322.74974274,0.006943586716685317,0.00466093279570377,0.0018960155575488778
323.251167068,0.00012214000473372258,0.020526344530682573,0.0012950475806609587
323.75259114,0.0018666995124690577,-0.001260004834586847,-0.0014914789790479194
324.25401469,0.009375892556972031,0.005088021302734098,-0.0008412411176253698
324.7504243122449,-0.010061606908820018,0.005987628357887302,-0.0007842854767223033
325.246834492,0.004981463064483365,-0.004520244708894072,-0.0013916928664241077
325.74825852000004,0.0003359075438781976,-0.014309797629994467,-0.002039205612630008
326.249682308,-0.002451272054776303,-0.008739472908827605,-0.0010283791451547832
326.75110646,-0.0017825023663327394,0.009143678580285551,0.0017456829504351626
327.252530126,-0.0015941546732192984,8.846615629517086e-05,0.005589639761436529
327.75395474,0.0038421793438335357,0.001012435914060852,0.004533778238421529
328.2503663489796,0.012243043808465534,-0.01062984350353792,0.00378557903787217
328.7467775,-0.014017466375053318,-0.0059244898773877595,-0.0035189435257915475
329.248201156,-0.010811298246945523,0.002610254436639562,-0.004919317988430774
329.74962553999995,0.00022496546276992705,0.00280781416264188,-0.004081709066679869
330.251049928,-0.0012028226445293382,0.002332156161898518,-0.004554935386488642
330.75247444,-0.005263782877528708,-0.0012706604858190682,-0.0028873866607745315
331.253899436,0.0002115227557071131,-0.0011491604444470592,-0.00045650009826074257
331.7503104081633,0.0045252866955513725,-0.0004468337574968924,0.0006322894273972659
332.24672176400003,-0.0032558550348474437,1.6327463009505896e-05,-0.00026781500551505496
332.74814762,0.004196214237552963,-0.0014398511796280275,-0.0015375053697940077
333.249573216,0.005645204238425564,-0.002180460784819657,0.0011115413371087064
333.75099950000003,0.004953416618237613,0.006551699217248885,0.0030100774574167216
334.252426856,-0.012566536068236194,0.012534437480000635,0.0017886627366362768
334.75385378,0.00686853792163677,0.005654987345251665,0.0007233193950389164
335.2502661448979,-0.0077508434511817,-0.008680731247066318,0.0015587392841530047
335.74667906,-0.001302432531991288,-0.0031541424736397446,0.0024813273719682164
336.24810693,0.000198687669112909,-0.006150690550721531,0.002809962983215581
336.7495347,-0.00605385754215786,-0.004312664245255778,0.002958407681898127
337.25096168000005,0.00622166105007052,0.012807753730903107,0.0029174408226246788
337.75238942000004,0.01652720565278625,-0.001785993357814794,-0.00035854154523274424
338.25381832,-0.005924006206738056,-0.006173858585976188,0.0012913145975520343
338.7502323795918,-0.0028338300621401666,-0.004112925444005975,0.0010031067612227141
339.24664580800004,-0.004712704365945454,0.00670153427098024,-0.005994495490170479
339.74807401,0.0021742296880970474,0.003776139066351416,-0.003610163332809711
340.24950268,-0.004400525747065859,-0.010350870410353551,-0.005803728723703018
340.75093128000003,0.0026001943472300053,0.004535784974115183,-0.009202560650404836
341.252359978,0.005784102965039566,-0.004225027059913558,-0.008443709657195887
341.75378881999995,0.001003154232116018,0.0026946818654013487,-0.005200561935980962
342.2502032469388,-0.016154745102483454,0.01117125966970415,-0.0003556865081680878
342.74661804000004,0.01457048173043305,-0.001468010467340671,-0.001495258527550345
343.248047632,-0.002685852640356461,-0.008658492637181874,-0.00870602012737773
343.74947715,0.00691581721093269,0.001982460849382153,-0.01571252535529382
344.250906894,0.0003003446193194306,-0.0006229013677464265,-0.009445472040133858
344.75233646,-0.0014051122460004067,-0.008833697177122046,-0.008321317526991136
345.253765738,-0.020033345681167835,0.005174739971033667,-0.004321482928690602
345.7501808387755,0.03182136285095364,0.0044102943199187585,-0.00419525980204127
346.2465966,0.016473024040219334,0.006042197902736717,-0.02987835167809502
346.74802645999995,-0.007953769827710145,-0.022138662767996777,-0.1328153230240014
347.249456,0.005768546392175758,-0.019746266060818068,-0.2732057330270168
347.75088614,0.017161988056279963,-0.0009195006710536148,-0.33514896877872985
348.25231668,-0.01555507026183567,0.0164653244315056,-0.2923801940343276
348.75374736,-0.017800800594881587,0.04731160735049475,-0.05993514419150876
349.25016363673467,-0.010068846570180303,0.012686378016768508,0.24959924939422606
349.746580218,-0.008113631317030386,-0.016307611150527715,0.4220106080022737
350.24801125600004,-0.042065938284618666,-0.02988144718126833,0.5110545235566522
350.7494425,0.004152770449621371,-0.019455937781618242,0.5176342644133453
351.25087404,-0.035251471931067126,-0.007369778800643318,0.5093525697856759
351.75230574,-0.036315434217597656,-0.05357720860659005,0.5651203340109202
352.25373787999996,-0.018445049671971442,-0.0457084076274682,0.6428009709275929
352.75015565510205,-0.02518107038179176,-0.04008396685962766,0.6395584699475699
353.24657304,-0.03214750717472663,-0.015664920744131186,0.6052893777977376
353.74800518000006,-0.01642917728415778,-0.05093568217407134,0.4873842902022163
354.24943808000006,-0.02204448880543524,-0.06465706955800753,0.19994419442640637
354.75087076000005,0.01282892535812892,-0.0038026454201612247,-0.16812749074288189
355.25230336,0.012565255785849353,-0.002371877263837219,-0.3485465328928121
355.7537361,0.014720207324879686,0.020712965979900525,-0.31751971052737993
356.2501543938775,-0.009808387094040784,0.03985069396930332,-0.1705353336513181
356.74657288000003,-0.0027822640001372674,-0.022394321364328996,-0.025067642947055782
357.24800609199997,-0.011912851344302183,0.018310060742345393,-0.04081978687241339
357.74943924,-0.0038351265615144733,0.016236469446454575,-0.024049849178787677
358.250871794,0.008760061777787206,0.011471913827535839,-0.011902196437562714
358.752304936,0.010697029760425305,0.0055708198326371375,0.001685699147460675
359.253738674,0.009069638974252836,-0.016020707640346847,0.018645681026192584
359.7501577734694,-0.01118094113561698,0.002934764975086614,0.04811201867573989
360.24657658999996,-0.012094270175956594,-0.01005513668955602,0.05034813700660682
360.7480096,0.004674361231373911,-0.008468736685821652,0.04137172272509825
361.249442366,0.05875770294599814,-0.01153925869279329,0.002462819854367479
361.75087549999995,-0.0629025315433776,0.013303063182038326,-0.03456620390978253
362.25230971800005,-0.04776386142037916,-0.002669037423890055,-0.046146597581260634
362.75374367999996,0.06451687301577713,-0.0011265771833854337,-0.038490345040210185
363.25016232244894,-0.00846360206453654,0.004665609618757261,-0.03260427639215526
363.74658194000006,0.00560455089350597,-0.0023025376636092855,-0.02438329247050632
364.24801688599996,0.0008425807478568563,0.0015094130437368874,-0.030510742375772205
364.74945166,-0.012732891494062813,-0.028355130345023623,-0.04075276633813038
365.25088599199995,0.0031629601730703456,0.04975413718692583,-0.04686600709832591
365.75232084000004,0.003986610967437187,0.047063487289079504,-0.02326911730780283
366.25375620799997,0.0007007930894020148,-0.0008020824061370166,0.046349675980176495
366.7501772020408,0.013865930325436392,-0.05068689169782485,0.08026839384383104
367.24659865,-0.006694286998733372,-0.02036882025850895,0.07324577503670986
367.74803435,-0.014771213740355775,0.03364774983536802,0.0810657002153523
368.249469848,-0.03653788756709746,-0.02741619868633571,0.06729693062205333
368.75090566,0.0367319442110701,-0.01618400782558857,0.015807669871908892
369.252341808,0.0030325554139017715,-0.009588422998459294,-0.05090976033419998
369.75377789,-0.0030081086805214766,0.0258400196724604,-0.06192826645031046
370.2501994102041,0.003869772442729101,-0.01587990507648752,-0.03668116719256013
370.74662116,0.0037093009603806943,-0.011248632649584084,-0.025372699332279244
371.24805713200004,-0.007165634821810551,0.010978607724196168,-0.02452909240505525
371.74949328,0.0006212370675963175,-0.006547682434597358,-0.03079984323414626
372.25092946800004,-0.011246068638028416,0.014211502367208648,-0.045846249219794195
372.75236590000003,0.014198252267299837,0.0015619275135239034,-0.06941496874848642
373.253802472,-0.002893049158358821,0.02675803102113363,-0.03254419280644164
373.75022445510206,0.08274331336268598,0.0273184514913951,0.0404394884339493
374.246645908,-0.06540971851008189,-0.008299037392795548,0.06849090981714101
374.74808147999994,-0.001249635800827116,-0.0576037265330167,0.05851463133519613
375.249517316,-0.02198159247101177,0.04003835434051856,0.09309155767690346
375.75095302,0.001232107758012958,0.02136526914162515,0.08989183351418176
376.25238876000003,0.046998130491353,-0.032219608446842816,0.02324143553272459
376.75382473999997,-0.030347115074247172,-0.029010241970153065,-0.029741644021077686
377.2502466918367,-0.0044765880789826955,0.016181199765745714,-0.08176453410197013
377.74666899999994,-0.008638687958440515,-0.0010134229531657043,-0.07901685755883445
378.248105906,3.3044117104342185e-05,0.02072847095906944,-0.028925614583311707
378.74954304,-0.008234020793607688,0.002654911461129522,0.012797722280604806
379.250980426,-0.00876364669238367,0.009969725222367805,0.011357300254612113
379.75241796,0.010098759095012344,-0.039668312001828764,-0.012395296423829806
380.253855568,-0.008569679430023052,-0.005758792587834096,-0.0017894626967238775
380.7502790265306,-0.0010255702086419377,0.043886139178967505,0.016430173872367723
381.24670280799995,0.009793001466792337,-0.01663623979194158,0.0024151447144703515
381.74814100000003,0.008948418973484109,0.0029458383954227996,0.024912295409659054
382.24957936799996,0.0026339827512834374,-0.014944994944234648,-0.0044801152117869055
382.75101774,0.03279380292036592,0.0031673445164397134,-0.01127706880674219
383.25245581,-0.0018227739721781322,0.018933091824731893,-0.009961402586798583
383.7538942,-0.020546908864576698,-0.01844118484995381,-0.0004982437684238439
384.2503186571429,0.022894504436481708,0.010762086363090137,-0.0006560367210618192
384.74674302,-0.019554438517105893,-0.014714691893399886,-0.0041497527959997015
385.24818191400004,-0.003761286029516263,0.007386087017046786,-0.0062703955967931616
385.74962084,-0.0027703632267968713,0.002583487049491018,-0.002918419403200902
386.25105984000004,-0.008439601070426895,-0.0014573846755033797,-0.004613808205255394
386.75249904,0.0020681007619676502,-0.0036112070201289497,-0.004491967645079625
387.253938188,-0.0071503663990086916,0.0056928230578399235,-0.004868318040354132
387.7503631020408,0.00747644933353487,-0.011967071795295775,0.01232021158787091
388.24678816,0.07973514078148779,0.003069519665833206,0.010215579778574109
388.7482277,-0.06745201685878317,0.007386409715354452,-0.006371070645981161
389.249667596,0.029697804583957765,-0.018302045739052437,0.011766995178117754
389.7511073,-0.015507698398394255,0.008274929684373506,-0.007777848777351235
390.25254703400003,-0.010641144276179704,-0.003972267136925789,-0.011601481407232814
390.75398681999997,-0.0025842360411850234,-0.003009295252704319,-0.010645109050818708
391.25041252448983,1.3844301918208028e-05,7.128771466239979e-06,-0.0008526180845137499
391.74683830000004,-0.014189488358257406,0.0245621845793625,0.01119612424296707
392.248277872,0.00373054322618662,-0.013503144218048803,-0.0016558319807417879
392.74971791999997,-0.0012963009534740727,-0.008775674452913282,-0.034200317975626164
393.251158968,-0.00015208773093217204,-0.02046762065579147,-0.08519298278294267
393.75259972,0.004010523882129333,0.029614987896456314,-0.05924845925841832
394.25403976399997,0.051978222944566534,0.027092650578814242,0.027897140755158766
394.7504658040816,-0.05637063631056778,-0.008927157368335938,0.06079177884269992
395.24689231800005,0.006664080782706341,-0.0009419647496229238,0.05994453434627824
395.74833337,-0.016834427411857103,-0.026010960785085805,0.054912431619380184
396.24977497599997,-0.00229705372913353,0.028936345603363466,0.07381945153773478
396.75121644,-0.044678812758790175,-0.0068400307633242185,0.05593265338503626
397.252657132,0.04351905975706014,-0.026472712452644993,0.03436272356151677
397.75409834,0.002987711281211607,-0.022756130155078925,-0.0505161462209246
398.25052566122446,-0.004652341333874861,0.00018801400877474647,-0.06896890319606626
398.74695298,0.0015205772058197863,0.009066896735918838,-0.06454083194792476
399.24839518,-0.006640141255103354,0.0040352665709367215,-0.02488220430258478
399.74983732,0.004249227817384507,0.0005548743748940555,0.01225849777878309
400.25127931000003,-0.012855609941876575,0.002250350191644676,0.007140247015307164
400.75272146000003,-0.0019711890851939013,-0.005989532671108132,-0.014120843310420805
401.254163072,0.0032147749024201665,-0.005637289832595337,-0.011188145464382451
401.7505907265306,0.003384094642045227,0.006166963117221081,-0.0049982175473265765
402.24701873,-2.3290128096746693e-05,0.0032630128710604165,-0.0009285867980403275
402.74846125999994,0.009334095565531995,0.004723202490782233,0.002047665055577254
403.24990392,0.04433900766048635,0.005432990083900658,0.00697584578859477
403.75134663999995,-0.10752317826612405,0.004302321117405724,0.0024781811508581553
404.25278975000003,0.07824280542891829,-0.001987253567656604,0.006896137146313539
404.75423258,-0.0032655508351003447,0.01232986157684691,0.00023842037720175742
405.25066036734694,0.015490024972123019,-0.002881975595475152,-0.0026155616170351163
405.7470885,-0.01879698812588013,-0.0263830559510231,0.0108498037896003
406.24853164,0.010559835798929981,-0.0009253224884451937,0.011481892256872427
406.74997484,-0.005855283764074345,-0.0017525605807173744,-0.00717859115972831
407.25141800999995,-0.008035323091165378,0.005811397135650844,-0.007188411537256422
407.75286134000004,-0.01728613434366291,-0.004796840815249766,-0.0026587484439843856
408.2492903632653,0.007504299426337987,0.007573879373487024,0.0004538827316129335
408.74571944,0.006643980318416074,-0.005883900455617001,-0.00912760373352336
409.2471626,-0.007422371162144431,0.009708519871631783,-0.006325763502749061
409.74860602,0.0015149797032645426,0.013696581799069865,-0.005296478672528097
410.250049784,-0.008018792637984985,0.007840026285556008,-0.010457911896048486
410.75149356000003,0.008756609866778437,0.030187454369478645,-0.03667234582194812
411.252937532,-0.0076043299609764884,-0.03750752934356029,-0.07377770255901049
411.74936697142857,0.011010178324475267,-0.0028675976850352537,-0.032771466692037676
412.245796032,0.034770208359188766,0.05837833211811698,0.036916744130410545
412.74723983999996,-0.03289043195280229,-0.00723943420867563,0.21456052113773172
413.24868375600005,-0.05041127901418905,-0.055731786488137036,0.17122410635987928
413.75012798000006,0.046982410531012084,-0.035763574616384394,-0.04759415022804724
414.25157267199995,-0.010183269308122434,0.0015710210451930677,-0.12617525150172876
414.75301726,-2.5069499944634435e-05,0.04258302553902821,-0.07801297211590776
415.24944726938776,-0.010571644877954752,0.010904207522377012,-0.02027709658491574
415.74587752,0.002237722664764513,0.009404514654907235,-0.0003924633520974964
416.24732261800006,-0.0035697895610004426,0.00046415990920076395,-0.007420572000489588
416.74876778,-0.017668117104659146,-0.010790657414989399,0.0011713504847353996
417.25021330000004,0.003286699942441641,0.013826630906075528,-0.021548943959760165
417.75165874,-0.0031230078528298576,0.009741963646759527,-0.01313202001022896
418.25310398,0.011799261921025287,-0.004655386442458428,-0.006138221898798649
418.74953488979594,0.006824715128616507,-0.021708978680318045,-0.006452949199594409
419.245965424,-0.01576421857871874,0.005969882959726034,0.011411182811364518
419.74741058,0.007995479630306989,-0.0178171189118583,-0.02184318178827703
420.248855992,0.0036119897624589015,0.009448766049603109,-0.12391832252140916
420.75030138,0.00810973824768328,0.02273854477348003,-0.2759765577554339
421.25174657,0.027962902302519976,-0.016924605755624343,-0.4180857141933597
421.75319209,-0.015450009953798463,0.0009710546429649114,-0.40992332795668246
422.2496231469388,-0.04332974469348136,0.0014267254727626621,-0.48678399515974624
422.74605434,-0.017451835472548166,0.023032666052685988,-0.45816017454128444
423.247499968,-0.015391770056166194,0.042701482956824084,-0.35318170237228297
423.74894573999995,0.00019446864982888577,0.0664700791665048,-0.17392561029019382
424.250392102,0.01823670693268785,-0.000131370990389643,-0.11056079243865553
424.75183824,0.005059234863590705,0.012309235409119313,-0.07404280096663352
425.253284028,-0.00044488958316539587,0.009230877786311016,-0.02283536559771721
425.7497155734694,0.00531324884786016,0.005775153447900753,-0.014298914505632367
426.24614686,-0.007299525231401614,-0.00017361365541450512,-0.012431625598823666
426.74759281999997,-0.012469830904350743,-0.006184026769430319,-0.02580490405906477
427.24903906,0.016201337597216023,0.012827587897643725,-0.031004608370985877
427.75048524,-0.005610006972755246,-0.001897542306117356,-0.026442269904620824
428.251931666,0.0037583731558209345,0.025698019535021425,0.004552119963014609
428.75337804000003,0.009272388375048846,0.009663218995649753,0.05649553491957704
429.2498100571429,-0.00685798874522561,-0.004200091410657463,0.0668445719467757
429.7462421,-0.002120428266499369,-0.02528204490090056,0.044054174097369975
430.24768871599997,-0.009496237439066307,-0.031145909771529104,0.0014031506307066524
430.74913546999994,0.014879440621986291,-0.009944895627527824,-0.014958953167552184
431.25058250200004,-0.0048342720739776215,0.009491716276386314,-0.04422931953573988
431.75202958,-0.0009214124585291076,0.014615996440966197,-0.02414150468280176
432.25347668,0.006303017943566912,0.005895408015667319,-0.0010959627097600613
432.7499094693878,-0.010900956368729876,-0.0007095092210436786,-0.0024006259744887132
433.24634227399997,0.00010966790755687746,-0.001497501936743458,-0.0020711447023889725
433.747789776,0.0017452917574750937,0.005044403891310503,-0.001346632003382803
434.249237794,0.0031780952815751457,-0.00796737740602375,-0.0026852136016853384
434.750685728,-0.0033396328648963667,-0.0004747850586244083,-0.002854993805740314
435.252133278,0.0037395469012045353,0.0025244155501587305,0.003355989466686864
435.75358098,-0.005096156804022138,-0.006867768200631198,0.0019963543807100174
436.25001448979594,-0.01226861840930451,0.0004263363029001842,0.0005316989647001261
436.74644809999995,0.00961661976524365,0.00040605997069205794,0.001727800511084038
437.24789637599997,0.0014506899003428556,-0.0055704240213898725,-0.004270475089307945
437.7493448,0.00023761040501785958,0.002811129484741834,-0.003454965673775907
438.250793452,0.0008764263842683084,0.0011168444741274752,-0.004408692465524671
438.75224226,0.005009302412704455,0.0024460351480752617,-0.0016348446836151206
439.253691146,0.001567082564260353,-0.0025359318451988015,0.002888830138927428
439.7501255979592,-0.00893805015447334,0.0022362758853874463,0.0016713334956995325
440.246559884,0.008442861768442418,-0.0008312007855580482,-0.0005494977826263778
440.74800894,-0.00209104305967334,0.0019310896881759548,0.0012256562258759025
441.249458504,-0.005330584658167188,0.00941487862507863,3.7503622135226076e-06
441.7509076,0.0059087608650825706,-0.005530748957193632,-0.0006340615030713873
442.252357536,-0.0056425138287986894,0.0022705563437648915,-0.00017618035571209423
442.75380652,-0.003243864115090147,0.0028985608832746857,-0.0024330392588786166
443.2502415408164,0.003959967262876967,-0.0019884260528092793,-0.00559438171648544
443.746676776,0.003978404081128158,0.0056045879232362065,0.001530263995975021
444.24812709799994,0.0024688684676504617,0.005497749919811817,0.00917461189417355
444.7495773,-0.013091200171195774,-0.0017414205523549242,-0.00260391776570091
445.251027052,0.006371740321132943,-0.004074293580641704,-0.0020256915998597426
445.7524769,0.0061605414013413485,0.0013085286327575206,-0.0013065620838546017
446.25392777,-0.006162282420835121,0.002482883618663922,0.00330736460220259
446.7503637755102,-0.007691016422589925,-0.013636496521458617,0.0011785950218124723
447.246799814,-0.001459358742343814,0.003090472842846092,-0.001669617422975539
447.748250296,0.0042237149827659805,0.00022452846274717677,0.00021882431738550783
448.24970150200005,-0.004148406159905773,-0.0016461770602613577,-0.0011369503512244482
448.751152774,-0.00571716347509408,-0.0026730855798297467,-0.0030646187668843905
449.252603846,-0.0013948497436085403,-0.0013443455431504897,0.006242071558059038
449.75405498,0.008011867380979077,0.002973281523713901,-0.004691949132708808
450.25049192653063,-0.008379002719154585,-0.002428806761829075,-0.00999986148411167
450.74692877399997,-0.003176740914799906,-0.0008696291039118143,-0.015472092527619346
451.248379614,0.0016302694330712919,0.007466020394975757,-0.015175668572791045
451.74983056800005,-0.0027487813932311777,0.01691521918469344,-0.02508341833626228
452.25128199600005,0.00728309254510307,0.0026941975329806394,-0.033802591764162615
452.75273344,0.0022372293555935085,-0.013084279001759038,-0.05816625673865809
453.25418498,-0.007542383202905257,-0.012639463232852617,-0.07129268614224465
453.7506219571428,0.010956219010862566,-0.009363668075467188,-0.10355406214933216
454.24705928000003,0.0031316108845887464,0.009116190626958126,-0.12689721929816322
454.74851110000003,0.0006560089353164022,-0.001895113539531103,-0.11397300637976153
455.24996231999995,-0.022668415933433404,0.02333954859207005,-0.09668660143340516
455.75141378,0.018148963842321512,-0.00872345795112613,-0.17067765553130987
456.25286584,0.039977055022530995,-0.005557986670240216,-0.3611718972124581
456.74930346938777,-0.03212831588100642,0.04022803283621466,-0.33520225125307124
457.245740956,-0.001975911795724668,0.0500738735472663,-0.1053572224066026
457.74719303999996,-0.01778597890850402,0.023189511451203536,0.22675577656647644
458.2486446,-0.02237432159490875,-0.024537733443300597,0.41208377609388436
458.7500965,-0.007632351928972169,-0.05316012749808973,0.6080608918228535
459.25154912,-0.023741482155319814,-0.017010876232401915,0.6541890528805661
459.75300166,-0.025424066346190422,-0.02422194819528852,0.661374161862624
460.2494396122449,-0.014788783756797663,-0.06657835381458861,0.5041926438337677
460.74587758,-0.007328685940560013,-0.055701255590332996,0.11401258276259235
461.2473302,-0.0034901397722886265,-0.023225446105021873,-0.24665526425471515
461.74878277999994,-0.0008722067563578979,0.01328145011859429,-0.4123517658781159
462.25023552,0.0085081037765234,0.034386956375704325,-0.3013821475505893
462.75168828,-0.007446374164310203,0.014781402819132722,-0.1485574203592016
463.25314068,0.007365486752620094,0.007462035063047208,-0.08833176649325936
463.7495787428571,0.01834916502069493,-0.004406333423183452,-0.09639232390368829
464.246017506,-0.0200042365154401,0.011451288288994856,-0.11130336732088847
464.74747060000004,-0.005779869670069422,0.007145214672444959,-0.07011842448822075
465.248922896,0.024981783552155686,-0.003633048545101013,-0.06519134409720284
465.75037534,-0.04967382068480228,0.005101688973464974,-0.071005262549824
466.251828608,0.024218342895470413,0.015704606650452216,-0.061996625172755754
466.75328182,-0.001933856369299301,0.006795388315883859,-0.03086364564659561
467.2497200265306,0.009433608131464497,-0.0008364205506544749,0.012779863982034336
467.7461584,-0.007828199850646485,0.024963834749225918,0.003708055463221419
468.24761211,0.00013820690478551,0.007797133415417632,0.00133460581575351
468.74906578,0.0006814350139344302,-0.004781834707566252,0.0022148365678876323
469.25051911,-0.0018545109542476637,0.002573977350143843,0.0029051602886602445
469.75197256,-1.4482674845841883e-05,-0.007415586722053263,-0.0022031650535474113
470.25342647799994,-0.0008879337005063395,-0.002062323220347756,-0.00789652432004593
470.74986594897956,-0.006522051288725436,-0.008028395398760732,-0.003173064628020988
471.24630555199997,0.005675839230648841,-0.006536494387385474,-0.003374857316155393
471.74775986000003,-0.002300932014303308,0.003955349724882852,0.0009254117615257323
472.249213966,0.0002060725192059831,0.0030077199012868757,0.0030311288325822416
472.75066830000003,0.005395599325107919,0.002642760330396655,0.004377729076970813
473.252123092,0.0034552982122272534,-0.008248796507600012,-0.0031678364153052236
473.75357786,-0.012516351364830385,-0.000511250052131349,0.0018992411480185302
474.2500181591837,0.0014182958643376225,0.0026005835078162826,0.0006899181707748745
474.74645854000005,0.00978009641715858,-0.0025267403082454005,0.0018934117036059398
475.24791333200005,-0.00716929737858901,0.006812398958430629,-0.004175242621858588
475.749368198,0.004584393282370519,-0.004635251017132335,-0.007272523934563599
476.25082329800006,-0.01196695598596022,0.005143127871898437,-1.3761225839617892e-05
476.7522784,0.005044035379194294,-0.005550301682497132,0.0015403129386381584
477.25373369,-0.001308159606248179,4.817405845139095e-05,-0.007135634829533333
477.75017441836735,0.0016882625772340401,0.021053579422904194,-0.0043312851471866325
478.246614732,-0.0017218704299481417,-0.0020230034976794257,-0.00023713644965100332
478.7480698,0.0037939291560876364,0.001845000899989974,0.0003614699265088291
479.249525042,0.0005746924751885399,-0.005219287490186265,0.0019297700119104005
479.75098025200003,-1.150363265730368e-05,-0.011537650058621252,0.0004081994112145143
480.252434704,-0.00487105682629039,0.0072380607157035105,-0.0028130089275967634
480.75388921999996,0.0027092230292143095,0.005130823624382627,-0.0039329943860807156
481.2503295428571,0.009278879792028492,-0.005522792449532669,0.0048532439281118505
481.74676996,-0.010179272064971951,0.006297518076201622,0.0006347491388050147
482.24822534,0.0015333319421198678,-0.016930188601083595,-0.005078797237832489
482.74968082,0.004960543166509005,-0.003198306278814771,0.0010664394491544107
483.251136144,-0.011119919797459498,0.008339645432792446,-0.0014401123365677837
483.75259171600004,0.00226929609288848,-0.0014424010905967444,-0.0016757774709055561
484.254047318,0.0055949985204630315,-0.001514948576278906,0.0011081386941325876
484.750488477551,0.006517744631050878,-0.006525644346724964,-0.0014218225206070873
485.24692976600005,-0.004119628961664931,0.000491008258278544,-0.001628406482921149
485.74838572,-0.0025702665629811785,-0.006701735246400807,0.0030281557785049483
486.24984215800004,-0.0018218962507141343,-0.0017007198158632566,0.0008453492871322324
486.75129869999995,0.0021249998855782755,-0.007148934253950431,-0.0008433766252438518
487.252754508,-0.00266871647735071,0.0023793567289990673,0.000722687401615488
487.75421044,0.012001870356858492,0.0011789097888677768,-0.003240591622725819
488.2506524918368,-0.007674521222191176,0.002872412063387387,-0.0047122972898253875
488.74709442,0.0051151422988111005,0.0016416764118029454,0.0007350216429806351
489.248550618,0.0077871506000007406,0.00020880399792395598,-8.059854841353564e-05
489.7500069,0.007269372378977417,-0.0026370449519641263,-0.004993698306656277
490.251463536,0.011005698389535612,-0.0038391158213424135,-0.00010297928092978859
490.75292024000004,0.004092310256997509,0.0006487223648257444,0.002032913908533427
491.2493620653061,0.003470422490212825,0.0018689261475018206,-0.0016658015946362339
491.74580399999996,0.015505878387130752,0.010123160649765497,-0.002077067143055426
492.247260608,0.014407306216697401,-0.007397690218620149,-0.007474854483969115
492.74871728,0.001333137577025843,0.0011732711702399598,-0.01170285884035976
493.25017433,0.0037658369119230295,0.009938058599375313,-0.0157404407700048
493.75163138000005,0.002180711252255314,0.021870628392909222,0.006542128304372599
494.253088186,-0.003951568436370594,0.022296699072061513,0.005012836434168266
494.74953032653065,-0.0053816081812057,-0.02076030013452683,0.011686217907279755
495.245972572,-0.018686259225982774,-0.010976174075860781,0.013668306655846327
495.74742932000004,-0.01793393091943225,-0.010594809191246377,-0.0025500778875892447
496.24888605599995,-0.00044474198523295687,-0.004718006811209161,0.004063335741646115
496.7503429,-0.01503978582294762,-0.004709845862919267,-6.514963400151295e-05
497.251800352,-0.017042626461935367,0.0014448911050777224,0.0022200471185501976
497.75325784,-0.016853932466240774,-0.0016344521842162026,0.0072774203192707025
498.24970036938777,-0.020747629239996197,-0.006909113713944507,-0.00048121876124141403
498.74614302000003,-0.024181722323783576,0.011249013468569888,0.010252849293286216
499.247600636,0.0050887447748337025,0.016790181323805692,0.015755889990995378
499.74905826,-0.006143842828385775,0.007045594597337587,0.005164872978843159
500.25051577,-0.008163851346345046,0.0030823644658873185,0.0015432217495382412
500.751973376,-0.008642196632287068,-0.015258846445929142,-0.02101064211813146
501.253430958,0.025821596931769202,-0.01807109642195382,-0.008148981934369599
501.74987400204077,-7.394678215974227e-05,0.004662566910922202,-0.001600737583960037
502.246317536,0.006372787506679436,0.0015540105732480586,-0.009295687475375645
502.747775572,0.004937916022516123,0.00516818035791832,-0.008738601602075475
503.249233182,0.031320113275030995,0.001804337754941854,0.0012942603119814706
503.75069071999997,0.00944047343720167,0.0069283769054465875,-0.00012505259602437006
504.25214851600003,-0.0064554671145288164,-0.00818178217948222,-0.0033817616169992465
504.75360638,0.016055357318776754,0.0066281189610948674,-6.237442979131442e-05
505.2500496795918,0.005371024248467971,0.006653763378916127,0.004343932631874652
505.74649307799996,0.0002370959398099009,-0.0020762226065491507,0.0031277365004503442
506.247951084,-0.001967494791078259,0.0007721210958052116,-0.003056466316083504
506.74940918,-0.005220576257267512,-0.010967105444090545,0.001075732609594755
507.250867466,0.0022117088006268657,0.007338719188839768,0.0033143799519090196
507.752325856,-0.007513284156335949,-0.0015586144127390786,-0.00045781368585502523
508.25378437599994,0.0012690739736528655,0.0038300614655112706,0.0006988308790531568
508.750228477551,-0.002520606863262958,-0.006405461982597989,-0.0006533210000742793
509.24667233599996,-0.0011821114491379742,0.0011735253531244265,0.00113990167656311
509.74813078,-0.004430455593887483,0.0038225968029923364,0.0068018263695155574
510.249589636,-0.0032393045782572794,-0.008230630897797768,-0.0014099607864459366
510.7510485,0.006716479595806786,0.0001678435160382228,0.0008862712994401724
511.25250708,-0.0033928581719687547,0.009405721914879156,-0.003309629925067889
511.75396578,0.0005700702490223695,0.00037764387864629834,0.003232050488231525
512.2504105102041,-0.0012872663336206752,-0.008415686981269646,-0.0008546215808890418
512.7468554,-0.003453219286902559,-0.0027532615878409056,-0.002944326013701212
513.2483143,0.002219318355091512,0.0015278862285222601,-0.003835802540125184
513.74977336,-0.0004167593310440982,0.0034349140582048865,-0.0035880028230298967
514.25123308,0.0007771438081776933,-1.6317208183288037e-06,-0.004181688293450614
514.75269276,1.7734955107302827e-05,0.00046627531017363693,0.0005670849618523809
515.254152,-0.00035704097643990423,-0.014881555524049067,-0.0030659047960866466
515.7505965510204,-0.0038798679850989178,0.000863455089813968,-0.0026389137961420174
516.247040972,0.0034721582671695646,0.004083266567994781,-0.0017661944667280835
516.748500014,-0.0029332824270973026,-0.002301166517337177,0.002982009374340806
517.249959916,0.0030819420268046994,-0.0020503979703355123,0.0021923655627013256
517.75141984,-0.0012959942421175506,-0.0028363116725509062,0.007416401322951841
518.2528790499999,0.0036691636245394844,0.0007127940265592332,-0.002104820402861183
518.7493236918367,-0.0010318563955329743,0.0038799361653817665,-0.00014119210867674268
519.245768644,0.002377517156059292,0.0005274826416370333,-0.0023173015411420412
519.74722817,0.0032274986473132343,-0.004718564951346173,-0.008612095515307294
520.248687716,0.003030130084788508,-0.002757687279630976,-0.023725792838956313
520.75014732,-0.006461915831763987,0.00419286170357358,-0.01430639283287435
521.2516067280001,-0.004858282057897379,0.004918468759906126,-0.0105373555598702
521.7530662199999,0.0031837210948744217,-0.006477399565389379,-0.02006102662068776
522.2495113673469,0.002109162815146237,0.006270946656386215,-0.018251030007696543
522.7459565199999,0.0248496034138206,0.02882239649115621,-0.0183877561975315
523.24741624,-0.0023718974862494704,-0.006216294392404141,-0.03241172783056758
523.74887608,-0.005409785442269657,-0.053384218820798905,-0.2406016453693592
524.25033598,-0.007186063600927071,-0.004292211871690398,-0.43701191268302386
524.75179574,0.0008232065420537471,0.05750885110974173,-0.39036982661780406
525.253255572,-0.006646169105081367,0.04434629956314009,-0.08492399200757005
525.7497008081633,-0.002434593772450294,0.0170418503151094,0.31529420595405916
526.246145822,-0.039436989915325016,-0.02993387207371828,0.5069144185885546
526.7476055,-0.004596322692427428,-0.030908438950745843,0.5918732923046417
527.249065308,-0.04401425016766639,-0.02179046101962052,0.644700062482154
527.7505251,-0.028265979347241794,-0.03680474951666571,0.7236148378199384
528.251984956,-0.033672349147598715,-0.04959230359989162,0.7272433868832604
528.7534448,-0.023407911738066334,-0.03746059038672588,0.7292908123434426
529.2498903367347,-0.029132051186068725,-0.04424336614537119,0.5968353781361705
529.7463359,-0.003734578200022315,-0.071705819081409,0.43324138714259997
530.2477959720001,-0.009171303465924364,-0.04573244591402734,-0.024344219225273724
530.74925596,-0.012731570081454728,0.025250379049671205,-0.40038233186805783
531.25071607,0.02063841681051919,0.048501082826022085,-0.35234727162823626
531.752176272,-0.0032225289975560223,0.02417275489900691,-0.20953652143902382
532.253635998,0.00775706354810086,-0.005848650692143829,-0.06807044458396788
532.7500811489796,-0.0007607603326690454,-0.0069563662394716225,-0.0517190586979229
533.24652668,0.004155391853563549,-0.003461247087194731,-0.03285298214983321
533.74798686,0.001297087508809052,-0.0006594388712087517,0.016517103680684198
534.249446908,-0.004283330130290622,-0.024799972974087918,0.06374947390890709
534.75090698,-0.0061578030074693054,-0.016627084888514967,0.042541871095945545
535.2523675360001,0.0008816907082312112,-0.004423615632199266,0.035753848405550855
535.75382832,-0.0010624636892034665,0.008073801731930121,0.04306178743484348
536.2502742469387,0.0013092022893585352,0.005933320811376018,0.03845764320794041
536.74672026,-0.007005299518355987,-0.010701692731237271,0.027353416568923553
537.248180702,0.0009110217067407641,0.01906947011442699,0.02669715063283663
537.7496411,0.0007466876621360318,0.027762874174570976,0.027171491397662208
538.2511016,0.0021683727933032417,0.013067599468735725,0.004060359089179394
538.75256222,-0.0008978185599921323,-0.00032648899931901984,-0.01039667975030441
539.25402294,0.002018675075370136,0.0010480635343355304,-0.0020140884356528634
539.7504691244898,-0.010214524426223184,0.0036951396446966377,0.0012849352566581766
540.24691536,0.007716593978666505,-0.008658546036865776,0.003267599630669229
540.7483761999999,0.006370745047787939,0.006020460290662877,0.0011370086151713003
541.249837124,-0.005866538593387693,0.001287090023731332,0.0016836792428985186
541.75129816,0.0031185576558367,-0.0024390782368264785,0.004036488865678212
542.252759312,-0.005535112075260454,-0.003662761416684534,-0.006110166397502233
542.75422062,-0.00709572707951048,0.009066022419720744,-0.005628960542955244
543.2506671061225,0.003330941113191592,0.001707517566009773,0.003521096886764217
543.747113664,-0.0018008712957555473,-0.0025277044908983705,0.002580447070180668
544.2485749780001,0.00837319827727232,-0.007476769575542363,-0.0006929431026300613
544.75003642,-0.002968180907984433,0.0023698676785190017,-0.00282856524906342
545.2514979,0.009231035353818641,-0.006312687798663274,-0.004664842829555756
545.75295948,-0.010158335824498124,0.011433126626548723,0.00165534029327973
546.2494066836734,0.005126133272183378,-0.0007360189457773305,0.0008233661061275728
546.745853982,-0.003791462229700956,-0.002825012881229276,0.0030987154089501066
547.247316034,-0.0008257098973769256,-0.0029958826011035077,0.0036523202519028975
547.74877826,-0.0026097419340458537,0.004916448846165347,-0.0013770731685673152
548.250240416,0.0014424369190942498,-0.006987313335596228,-0.0018629941265780334
548.75170264,-0.0034538508720363716,-0.0015192264559753432,-0.00175485760390285
549.253164784,0.0019955970429042795,0.003081026973448009,0.000791721107738844
549.749612377551,0.00015937627635487328,-0.0010588655159039248,-0.0009043752779475437
550.246060452,0.0020274423240922794,0.0014597113183730537,0.0009587623856860892
550.7475232,-0.003529302084941064,0.018939580953777492,0.003836895860600169
551.248985758,0.0012112331701231791,-0.01071696827613906,0.005871337083512884
551.75044826,0.00012517031540798442,-0.01096865896689974,-0.00046509517061644567
552.251911008,-0.011318490591574182,0.0010259902812254876,-0.006653780256670465
552.75337386,0.0007092864368727161,-2.948442248125002e-05,-0.0008986330885759325
553.2498218836735,0.006604052683745534,0.0033688362822549903,-0.004742675123948958
553.746269876,0.0034550845321947936,0.0059035426236849495,-0.0018579118011188408
554.2477328680001,-0.001812958850415103,-0.009431805070732473,0.0018508254758565473
554.7491958400001,0.0033129558561513167,0.0025232495618105577,-0.001986315607938613
555.250658328,-0.0030577211822654447,-0.005403580582894834,0.0004020028260629435
555.75212072,0.0043305933819642334,-0.0014751173460128906,-0.0013009259144468586
556.253583898,-0.0011451202257050637,0.014259833441714085,0.0036622800767914998
556.750032667347,0.0006499759220600938,-0.00995062819591923,0.0016253950063775215
557.246481124,0.004941020248175726,-5.123470019831183e-06,-0.004114617601763515
557.74794434,-0.006411092111649868,-0.013746244035343174,-0.002260371246935422
558.24940739,0.0026514741427664467,0.010261323939837632,-0.004409083184770609
558.75087046,-0.002232123828249037,0.0032981648726272215,-0.0009681275157702937
559.25233369,-0.005817425638837843,0.0060073476985002565,0.0014065597910481143
559.75379692,0.005653467129501786,-0.0007293459567832123,0.0012761951592982726
560.2502459693877,0.0012292251961742294,-0.0015598055767250198,-0.0022429366295036142
560.74669496,-0.0019814485833312395,0.008452506603506178,0.0034508567955296
561.24815866,-0.004782645325306198,-0.005130702352718023,0.0008612220511166288
561.74962232,0.009789859685223968,-0.00680064185560263,-0.0008693862546093753
562.2510858,-0.0021552320784879084,-0.002912807666004537,0.0012675045772988162
562.75254916,-0.008258669191670991,-0.003731712884285482,0.006261594946530776
563.254012662,-0.0013555292652299088,-0.0012893195269076466,0.004544710280542704
563.7504615081633,-0.0017259331786351343,0.0014846222763760263,0.0014560235008427502
564.24691022,0.004887152607646256,-0.00042310302614368854,0.00362995031503853
564.74837352,-0.00011756740263774851,-0.0037467488224846523,0.0030765713551408154
565.2498373,-0.00411013452735311,-0.0014891908168357892,-0.00048244743487343826
565.75130128,-0.0027569402282109847,0.00621333608554911,-0.002990547168714629
566.2527644,0.006427112724737189,-0.0017747533529276654,-0.0036027633746311487
566.7542274799999,-0.002617653577460238,-0.006798798523532097,0.0011177000070207214
567.2506766632654,0.001702375275093233,0.0019824015465038465,0.0002688200019064065
567.7471259399999,-0.0020363520155353737,0.0036750677223692236,-0.004933114302770477
568.248590178,0.0019949398044261514,0.0005185409238562622,0.0006291982758339084
568.750054694,-0.007366372008016234,0.007172560789528216,0.004082997738132959
569.251518798,0.002989234403952457,-0.006639874627385575,0.0033180240900733482
569.752982854,-0.0002531271610508932,0.001629320474054668,0.0012333110490108093
570.2494322183674,0.004851723061206453,0.0005673963807694039,-0.004336456547742559
570.7458816,-0.005646128908816795,-0.006003149795510943,0.0014184120899573037
571.247345558,0.0007066275772108048,0.002788642339835971,-0.005183828172697291
571.74880964,-0.002073661117437067,0.0012117938205370967,-0.0012262695644711503
572.2502734999999,0.0008141914038139644,-0.0017008160934918392,-0.0028243030862136293
572.7517374,0.0021206967272613332,-0.0021295312994823886,0.0025917061924042887
573.25320156,0.0018237823036521422,-0.0147879240297043,0.03336333253171972
573.7496511306123,-0.006652225118301748,-0.019363361159672497,0.059781380956822734
574.2461010740001,-0.004541948907673359,-0.02015474159755557,0.06685682741560589
574.7475658799999,0.00456022538411338,-0.019055915417175186,0.09275779860014131
575.249030708,0.005284813471865609,-0.01041890210105709,0.10952575014754923
575.750495706,0.00045595866960502633,-0.0005372928771221378,0.11768925700544636
576.2519605040001,0.006415099590043653,-0.0069934280860016376,0.1105960295040018
576.7534253,-0.0010732128152599644,-0.010719015041865619,0.10316854686128028
577.249875577551,0.0007400831540086587,0.0023654235121849617,0.10374414032256074
577.7463258,-0.0016932475380796806,-0.013725820045481264,0.1068435864289306
578.247790902,0.005482331805466081,-0.004106553521270122,0.09812538828427703
578.74925606,-0.0014376685317639833,0.0008159217511428277,0.08709434044219799
579.250721342,0.00317167220498657,0.0011010019738883887,0.09784672223950594
579.75218668,-0.004913093015125141,0.001319480873315613,0.09556949399368825
580.253652272,-0.008604159775540859,0.0014287572577304823,0.0683587415164778
580.7501034265306,-0.007746444408542341,0.007751966178943203,0.016733583312217047
581.24655438,0.005934921246880104,0.020542636558440405,-0.0173053726513275
581.74802008,0.004090126319644014,0.00842689827618107,-0.025810031091638517
582.249485858,-0.0024673001967109743,0.0024372848914304083,-0.038276647011399455
582.75095178,0.014324571764506912,0.006784370496654182,-0.05179371376551309
583.252417682,-0.0035891155022614567,0.004273983926778138,-0.064633000846347
583.75388362,-0.0011045478757625501,0.006185193301688093,-0.07789060415645624
584.2503350020407,0.0013346238847877008,0.007016016316085164,-0.07099236444549535
584.74678636,-0.003891493330728521,0.015076797885173293,-0.05063421186466725
585.248252344,0.0029883616109833903,0.008376056738155694,-0.03956283969798227
585.7497183,-0.006125596222931395,0.007879636104479669,-0.024064157148158256
586.2511846,0.0009057523971287344,-0.0015635822839384897,-0.005676376846559441
586.75265116,0.005849155344985372,0.006017395230225261,-0.0027121349147915725
587.2541168160001,0.0019148645946514952,0.000802171305341704,-0.002148360665586973
587.7505678551021,-0.0014867359431229772,-0.0020132207919677497,-0.0023651623191133994
588.2470194900001,-0.003913440377649155,-0.0002678202993648865,-0.0020337077945084014
588.74848588,0.003728133949003709,-0.00044410512290244357,-0.0013805922053157572
589.249952484,0.0036900319946887665,0.0021963007619433595,-0.001438028549437862
589.7514189,-0.00020374087312131643,-0.0037528485024908415,-0.0017877908139492112
590.252885836,-0.0022558031438508212,0.000537655499509579,-0.0004685214137514749
590.7493385,0.003320181668394642,0.002369381334870707,-0.0014222706365654325
591.24579075,0.002817021479600239,-0.004827259364942013,-0.0013510135147419026
591.7472574999999,-0.0024155871487929765,-0.0003914493048164161,-0.00013040630811090014
592.248724652,-0.0013978062601689612,-0.0025864607257960383,-0.000786615709643519
592.75019178,0.0007833418595542787,0.00039284500613887067,-0.00038763983886883806
593.251659172,5.471260901479158e-05,0.0006490980360863808,-0.0009220386552479466
593.75312672,-0.001621894961593805,0.0006873593026173884,-0.000507568281286145
594.2495793775511,0.01172602149213678,-0.0001909328542611859,-0.00044030297375638244
594.74603196,0.007855573119954756,-0.0011432107687122392,-0.0014298621043840887
595.247499722,0.02100284215925923,-0.0047007064099788675,-0.001713232417226964
595.7489676399999,-0.01762145658803915,0.001914341109740991,-0.0016047431251715657
596.25043542,0.006889957045597235,0.0032697267088237516,-0.0013029869458570402
596.75190324,0.009130537808582407,-0.005164173077260677,0.0011885563262927072
597.253371412,-0.012476812887168764,-0.009097081892231278,0.0036201958567636653
597.7498251122448,0.022213809238970456,-0.006482562526795801,0.0015573166895501422
598.246278318,0.006020339671083932,-0.016794330722842546,0.00437991109465081
598.7477461999999,0.005650336005125479,-0.0014819225027356705,0.01866289230174351
599.249214048,-0.04919920858335139,0.003688849152187986,0.031125146781064775
599.7506816399999,-0.00770401316794705,0.0023085882141811536,-0.005022575648561416
600.25214991,0.0003962841888860373,0.004785092829945914,-0.009514337403130596
600.75361834,0.026159777077809268,-0.028309469718165958,-0.051590517907319285
601.2500719,-0.000726323354627011,-0.0065192416855149316,-0.09371205258884267
601.7465254,-0.003725279264527999,0.013580537034183554,-0.07720682143280355
602.247993724,-0.043729981892717734,0.02153752625966724,-0.07045977772884349
602.74946204,0.032707944158784766,0.017193902744661812,-0.056359843594950956
603.25093044,0.009420216152258614,0.006135188090418726,-0.08386895487350865
603.75239894,-0.02363087730167267,-0.011135656516451852,-0.11286541148062584
604.2538677379999,0.003919045206340904,0.03409222886021443,-0.11000612933782301
604.7503220918367,0.0031903706816937493,-0.002356091556397312,-0.11190942859494922
605.24677596,0.0049718674782674435,0.0060743357772036575,-0.1031688431751131
605.7482445,0.0026038076628610764,0.0019490470241251478,-0.10621487426979966
606.249713358,-0.004454901810132348,0.006720025847621698,-0.11972730753429715
606.7511822199999,-0.00099843313135527,0.011837766990068896,-0.14048815130096876
607.252651244,0.0007874844941452119,-6.95672994356042e-05,-0.14581212070069532
607.75412022,0.010167472870478438,0.003653353281750511,-0.11456899458582825
608.2505750061224,0.011256619676196252,-0.020674553450055675,-0.10671895748537628
608.747029986,-0.03305247919139413,0.014843463553468494,-0.12497468060643831
609.248499552,-0.0020694976823107517,0.02546346759068365,-0.113220160005686
609.7499691600001,-0.003014523257344904,0.0016606915565757316,-0.09897267725778328
610.251438788,0.003273733225926483,0.003149221814471238,-0.07593174699911164
610.75290842,0.0026093085929821914,0.022782844781157677,-0.05752110488666248
611.2493634367347,0.010671039585720268,-0.013511924784044779,-0.021696306298661944
611.7458184,-0.009624987366001196,-0.023140067973620667,-0.010572714248482802
612.247288508,-0.0026774269396469337,-0.009873969719982547,-0.01807250075971041
612.7487591,-0.004027530725792742,-0.0183223883172425,-0.022908788087784196
613.2502291,0.0029430795786389574,-0.010611884585561927,-0.02261384406030081
613.7516991,0.008117514852497646,0.014111769879963163,-0.001735127061510619
614.2531692360001,0.00163478266303907,0.017293840256929004,0.04012929548094715
614.7496247816326,0.001309934845609814,0.008981863427956224,0.06713937273647765
615.2460798999999,-0.017067015709978043,-0.01423883264276214,0.08497386648704325
615.74754966,0.004790028693394853,-0.02091237431099419,0.09102411988287913
616.249019672,0.005741890092552541,0.0023748759893931328,0.0851663765878346
616.75048948,0.011639587007638608,-0.005385506756166101,0.07443504045947291
617.251959732,0.002094853376510353,-0.0016238889535990552,0.0861478140371944
617.75343022,0.00024137890550218928,6.053192227844367e-06,0.08994248505754256
618.2498859795918,0.006258016342055413,-0.022396580178124615,0.07708589775780218
618.74634186,0.015363608608122976,0.00011578691701637681,0.07700643270672437
619.24781237,-0.017798346474052623,0.013064147349382722,0.13089794906550745
619.74928282,-0.009142238517453622,-0.012786023168324721,0.1171182712001716
620.2507536,0.011447380254467964,0.005831098336955851,0.11263805063840042
620.7522245,-0.009064065945305204,-0.02487963295127663,0.0407369296619599
621.2536953499999,-9.441084663005191e-05,0.03388570631340714,0.004907054014285232
621.7501515714285,0.007215300945999895,0.02457655718121046,-0.005698407116876738
622.24660749,0.0012406836215778571,0.014335646294647333,0.0015055643756984214
622.7480779,0.0034367842062350868,0.00921477481045343,0.031775575874916584
623.24954908,-0.007780641804065786,-0.0005074789996711868,0.01759529709606399
623.7510206,-4.930491812596032e-05,-0.0034794461879269264,0.018014122488099315
624.252491698,0.0008149223187110106,0.0024753415596599298,0.01200500359779095
624.7539629080001,-0.004563382022721113,-0.01750630465355217,-0.0055323800036827
625.2504194183674,0.0037115163982506805,-0.005030875828875404,-0.011064282260807287
625.74687616,-0.003801195256471322,0.009669863996003426,-0.003048376435584274
626.248347228,0.005517093774892773,-0.005826298886794578,-0.02032768896288898
626.74981796,-0.007465208736150808,-0.004666574785254571,-0.037215914881634754
627.2512897,-0.0019318333997510513,-0.004258919039525887,-0.05190519242646478
627.7527618600001,0.001259173644035265,0.011398761645430664,-0.04043019389396935
628.25423332,-0.008551803861882045,0.020144921876078796,-0.019979432968771624
628.7506900040817,0.0035913194497653625,0.012211151203857384,0.0002604623331511057
629.247147274,-0.0012895498226714755,-0.0017473640564497966,0.016743404323751456
629.748619456,-0.0023308612093428534,-0.0031602542253745384,0.019863963911882717
630.250091084,-0.006997594630064049,-0.005281908659109035,0.010997588974302253
630.75156258,0.004069688635180237,-0.004536500428487402,0.023130576702885142
631.253034276,0.0021500647384947273,0.00035719010234896076,0.025527725491101175
631.7494912530613,-0.0012325350269069071,-0.01043978100184005,0.009283127685467898
632.245948714,-0.0017357542283702426,0.0023482237745283473,-0.0019245754592481204
632.747421222,-0.0007418937582244752,0.0011870556754672034,-0.002857594130346613
633.2488932580001,0.011788082151121725,0.0030635323314637396,-0.004556710129155764
633.75036518,-0.02267717325402796,-0.02056503867077615,-0.018817347190468826
634.2518374480001,0.021448092571449435,-0.014477947304221608,-0.09481535163567331
634.7533096980001,-0.0066065628392167446,0.004929361553364426,-0.3011599472117226
635.2497673959184,-0.0028555003582094655,0.01921879430326286,-0.45118465866600344
635.74622526,-0.00666467481118175,0.036321002389804735,-0.40743609844907264
636.247697782,0.007906421542101092,0.05103122823949812,-0.20712704907850482
636.74917022,0.0003128087880136461,0.02717715829891408,0.16465538654721804
637.250643056,-0.009344030769459215,-0.022922864267512142,0.35829568355607394
637.7521160599999,-0.0196690297454103,-0.00841495849256536,0.38966486521815985
638.2535889960001,-0.004743537661463113,-0.030639421380083406,0.46454821557340176
638.7500473061224,-0.024609285514736273,-0.028848559193727825,0.4768014536721879
639.246505396,-0.006347609490533301,-0.030388620607224318,0.4796686531288974
639.74797802,-0.013574647798987184,-0.02543264559567442,0.48217659768559884
640.249451098,-0.004711054692577949,-0.041334524098936766,0.5067371407004428
640.75092432,-0.01299216816783976,-0.0549434788292878,0.5035731195557214
641.252397322,-0.003582683313368071,-0.03053832339900765,0.5054260508157988
641.7538702400001,-0.02816350034846311,-0.021645234216281332,0.4823188116965943
642.2503287816327,0.0017276645979940812,-0.03254481532268223,0.36616882895265535
642.74678752,0.0033690544715748814,-0.03697681818289294,0.05079625974124502
643.248260604,-0.003911833927018252,-0.013973078857518568,-0.1907374391181934
643.7497334660001,0.0003549116751786343,0.01759844259120881,-0.2535888374141855
644.251206944,0.012433156179008364,0.05528311330161234,-0.16469897402859066
644.75268066,0.02106697609040308,0.006792947147617139,-0.013782002748215665
645.254154098,-0.01713784872526771,-0.01631871796686156,0.02120198312769997
645.7506130612245,-0.020785740915615546,-6.349595375810255e-05,0.009365919483390757
646.2470719,0.00401573342146093,-0.006480344983313557,-0.006878863325430342
646.74854554,0.018970061403537054,-0.02086822729982839,-0.016733062474250625
647.25001934,0.0018077444629414534,0.0011335659900020235,-0.007444489441846189
647.75149307,-0.003766004926710579,0.023545195957109515,-0.005218022738264708
648.2529672420001,-0.011412255661043131,-0.006575586331602853,0.005363947289266427
648.7494270183673,-0.015351103013875832,0.011511188638517786,0.014179131585745311
649.245886368,0.018346045208008012,0.007455254201967548,0.01305126290751431
649.74736028,-0.001446587254782682,0.00600348647311869,-0.004754815707164294
650.248834566,0.003486066538361672,0.01295555475171444,-0.0018513044127437797
650.75030914,-0.009378148105685276,-0.007463704903828924,-0.006942681256115624
651.25178337,-0.00031886647717724916,-0.005312003258341841,-0.022233782009342583
651.75325738,0.003746973540738691,0.007025621437814025,-0.005192318885252059
652.249717165306,-0.0006575144120559672,-0.0016236692078988786,0.011962845468462489
652.74617702,0.004870036776751407,-0.004490218326874229,0.006630096039929082
653.247651696,0.0013128764436904328,0.01285917066998582,0.003954494193879044
653.74912698,-0.010424489832599068,-0.009054535255529104,0.0054475491618752505
654.250601476,-0.0013300003268545049,-0.014119913017501717,0.005095665444441385
654.7520764,0.003880944806851314,-0.008300786126072273,-0.0014349589444874141
655.2535514,-0.003838565548790632,0.00034433380475152995,-0.010373666055686846
655.7500116551021,-0.008878427158638793,0.008545489231156098,-0.0048516291264890385
656.246471812,0.0062811105071889205,-0.01850917003200654,-0.004153886904687185
656.74794686,-0.0033783778318062707,-0.011068869644330279,-0.0027245215565289437
657.249422168,0.0010934209441245948,0.012190354408480063,0.0015675760741984757
657.75089798,-0.005312379357209929,0.0058968693175608065,0.005889884620124514
658.252373128,0.008198154992837513,-0.0023814053109166037,-0.00041515433068821167
658.75384832,-0.004309196267078687,0.004088353380107001,-0.00026718282021081743
659.2503088591837,-0.0005369997402098975,0.0009780447019315818,-0.0013026664658298893
659.7467694200001,-0.00015811911620012525,-0.0022259048801317152,0.0007293591389106158
660.2482447900001,0.025665353291793123,0.0075199351031155605,0.00037630191519119437
660.7497194800001,0.014977571305911009,-0.012147874129865056,-0.001171092508681871
661.25119501,-0.039776751821234094,-0.0010513419246700809,0.005911451026787461
661.7526707000001,0.0008263451677475242,0.002709090059797759,-0.0012133156959415992
662.254146134,0.0006836421580164142,-0.003542676818132114,-9.03103973697574e-05
662.7506068897959,-0.03665280464407072,0.028259159439861646,0.005269625258595704
663.2470678779999,0.03610247291947251,-0.02073680826296334,-0.002338594224695695
663.74854372,0.007532653227110338,0.02517805789125065,-0.00038760568535596346
664.2500195380001,-0.007230340272249235,-0.026257007867096897,-0.0046126900664169605
664.7514952399999,-0.01179151591049468,0.024949249464424623,0.006067247630682577
665.252971036,0.012894677238523118,-0.00965237129348758,-0.003639220509112428
665.749432089796,-0.0029926636173502,-0.007318570679494027,-0.004876852623608754
666.245893278,0.0006491232616809198,-0.013340340068459643,-0.003080566465102756
666.7473693,0.0023704702769334744,0.013633932739528131,-8.954351331278837e-05
667.2488454679999,-0.010284199304028945,0.0028308677485485143,-0.00214591068278883
667.75032194,0.010939706213610685,-0.009154126295164228,-0.0014935277878440872
668.251798222,-0.0013389895203655498,-0.0018510026416195503,0.0004344558740857936
668.75327454,-0.006137657833419451,0.0056487848836166525,0.0011016424912811882
669.2497359510204,0.007749963679168252,-0.007350617323379853,0.002675712614831707
669.746196948,-0.004498443607319708,-0.006732769643480488,0.0018848588587528985
670.2476733620001,-0.00019258110462513914,0.01665871478431477,0.0025509513527376777
670.7491500199999,0.007889891982486151,0.0037740326674530096,-0.002281975863027006
671.2506264819999,-0.015110627475013173,0.0106030431656128,-0.0031344966538158986
671.75210302,0.013319145956550777,-0.0022227527829828107,-0.0040311572268237955
672.2535796740001,-0.0005844361396635686,-0.009344891684241638,-0.005608865208749372
672.7500418285714,0.0010634914711911347,0.004289254726306569,-0.002317857142406897
673.246503288,0.0007424371637230966,-0.00940592470894202,-0.004736199221307834
673.747979074,0.001323744413880531,-0.02060807027248868,-0.0723415542657684
674.2494552979999,-0.003596584113402731,-0.021665516919263873,-0.08988159885673831
674.75093146,0.012379532753725133,0.05247755851877546,-0.004480514496648723
675.2524079880001,-0.04113903694387529,-0.006840480067719762,0.040260185460707885
675.753884794,0.04344995185940341,0.016605500931615714,0.050862453228339335
676.2503466795918,0.004051182010870472,-0.023860045083558806,0.033373680843804966
676.7468086199999,0.0008196823650796012,-0.0016292559421507364,0.02518035292024337
677.24828544,0.0011401211700301844,0.004348383772750253,0.021733704175758248
677.74976246,-0.0004936443735944129,0.004148245421277537,0.0008764378826087028
678.25123934,-0.0014925685001553912,0.008282671271933283,-0.0062900965196302115
678.7527159800001,1.3578793472308614e-05,0.02046985173455908,-0.007058912366086714
679.25419328,0.004751778459236635,-0.012677326697186074,0.04187745119454936
679.750656167347,-0.003600736730538399,-0.006999306037424832,0.111957003438143
680.247118728,0.00033388858355326237,-0.017416132809492575,0.1532361044671678
680.74859592,0.003787082523549637,0.00012110706009720806,0.14822047752933556
681.2500736200001,-0.005789568338416021,-0.011316814003836786,0.10747655544720072
681.75155172,-0.012742668270982273,-0.006019047247103761,0.05693857235075248
682.2530294920001,0.002245374035600544,-0.01281799057306961,0.0017772330318498709
682.7494926734695,0.0072469859233562865,-0.010586875668164112,-0.03817959794491132
683.245955642,0.016431746864791735,-0.010969171590276584,-0.05782931264454238
683.7474331799999,-0.0011641958147690454,-0.013065301549514487,-0.11049025188440599
684.248911082,-0.03217022061607435,-0.00659969389326499,-0.11753928558968395
684.75038898,0.018964034026992392,-0.0019533349413217663,-0.11343711981054844
685.251866946,0.012831415490492392,0.01606775836751797,-0.11373994486053657
685.75334476,-0.0020192387098487067,0.017747042649946563,-0.1205690151223011
686.2498082734694,-0.0031717828584769112,0.00034906208006996945,-0.11557490475607955
686.74627233,0.0006925866209728073,0.011276418463652222,-0.10947008487985282
687.247750604,-0.013953955137016399,0.0049150351955047165,-0.0967241278436187
687.74922888,0.004748351966120685,0.01590398848762004,-0.09334517547602189
688.250707154,0.013683631207879809,0.007289976358696417,-0.09290587025072634
688.75218498,0.006087328213029433,0.0017574562473654616,-0.07950090544428019
689.253663454,0.009488828166282418,-0.008405902150664914,-0.03897846144401134
689.7501273693879,-0.00018124604777260326,-0.01069801567770617,-0.00809976047225782
690.246591184,-0.02114708705555465,0.002746977722154084,-0.0014383122575600132
690.748070052,-0.02395835867723138,-0.01287040970909802,-0.00105906254868875
691.249548636,0.01722090414326187,-0.01552101546585565,-0.004016921672524097
691.75102722,0.015751977266322187,-0.0024356561569022278,-0.0022852163176681557
692.25250605,-0.012299394359048397,0.008516186060336123,0.05209102780496775
692.7539858199999,-0.011352737485437471,0.0012301993572511932,0.13705309512589645
693.2504493306122,-0.007665423519036056,-0.007244125011633321,0.18723133392173175
693.7469114920001,-0.00892743567289193,-0.01579641631809016,0.19939175881434365
694.248390244,-0.010065030201721517,-0.01025557166809539,0.19993255830471668
694.7498689600001,-0.009618910730859053,-0.008254481291118132,0.1978900826662872
695.2513478999999,-0.00962212848006265,-0.012798853494261565,0.20126394595816804
695.7528269,-0.01183828732447564,-0.012988795193499497,0.22545098924761878
696.2492911795918,-0.020978530014574243,0.01495689331735765,0.3750907281275787
696.74575574,0.00299779573198656,-0.020935670622463633,0.4599773267777883
697.2472347519999,0.022936568353128132,-0.03495001897136157,0.47026136644223093
697.7487136000001,0.005287751973119471,-0.01702155583999336,0.4175874627539721
698.250192708,-0.006768352055532847,-0.027864127876822683,0.3858965848540177
698.75167206,0.005465119106174013,-0.03524336904980236,0.29368283456846417
699.253151236,-0.004098180687627731,-0.029470584740505044,0.07172336036338364
699.749615632653,-0.01583857094591078,0.017741811360299436,-0.09267897841814439
700.2460799439999,-0.0009680952900610685,0.05176228053012824,-0.1068275638363876
700.7475586600001,-0.06189878610670874,-0.04412333266403077,0.04920352148367835
701.249038076,-0.012968802178328777,-0.05339248792121976,0.23843551933046966
701.7505183,0.023142088184577768,-0.03455213055369908,0.24463219103092615
702.251997592,0.024656942995842566,-0.003474765268164939,0.07873454816888228
702.7534766800001,0.021960451118067277,0.0041211633338691395,-0.12218080739915889
703.2499412755102,0.026921439611261262,0.010465312526190377,-0.1392025577968914
703.7464059399999,0.0035201603259854687,0.024568536111903398,-0.12512274615452876
704.247885182,-0.005313754748135696,0.011686695078013627,-0.07494244490346365
704.7493639600001,0.0021255499666077977,0.005733506327599079,-0.026213723479273497
705.2508434060001,-0.016618688300169483,0.014346122140653984,-0.011404741295421173
705.75232276,-0.002435191939381172,0.009733795176083221,-0.004169002885133838
706.2538022479999,-0.01114211765428199,-0.0004217164717766274,-0.0030783847904073806
706.750267167347,0.006416249664971688,-0.004228293521950132,-0.005434712712213696
707.246731996,-0.01220095282116571,0.015090484158926045,0.004531182928544971
707.74821186,0.010586692749210858,-0.01805946366993974,0.005354712905830932
708.249691426,-0.007259691601382363,-0.00549880792554053,0.00829661302062238
708.75117096,0.0008400849677226018,0.011183836285108084,0.006938949199853841
709.25265054,-0.006940158165286778,0.0014023654854138717,0.006418211951396935
709.75413016,0.004997813118541706,-0.0010229587430310857,-0.006507931636402224
710.2505949571429,-0.00020010995950832763,-0.0011568732586232976,-0.004528671338896536
710.74705982,-0.005323923827057465,-0.006030670225566423,-0.004042389982606857
711.2485395079999,0.013698491881837218,0.003235556986024144,0.0010761954900225575
711.750019416,0.001166570899803483,-0.00021492843943958555,0.007078858870003574
712.2514991779999,-0.010366592749168933,0.005219915064777049,0.018638517641798198
712.75297924,0.00757334558409147,-0.001604969443308142,0.02285778381794702
713.2494442346939,0.008841317594314915,-0.01585303923751749,0.013100181194261071
713.7459088600001,-0.007175509733578871,-0.018279327620458023,-0.048372290208218295
714.2473888000001,0.07649913787131861,0.00659031724616908,-0.22516469720792634
714.74886866,-0.09406044453287091,0.017540663304180547,-0.3993423060921334
715.250348502,-0.023320560195756995,0.06243652266634794,-0.606694006428475
715.7518278,-0.019218638524049377,0.06390796894554031,-0.7313511893953972
716.25330784,-0.01295907402199024,0.037393013837879005,-0.703031827380481
716.7497738918368,-0.10088902481314453,0.03279633774023952,-0.4498412251894448
717.246239016,0.10521460950523326,0.06295890853695127,-0.14555174004615007
717.7477184,-0.02487224127626201,0.012636815159923898,0.03088543673161778
718.24919858,0.09682497731606113,0.0062964350964997175,0.03881525880287158
718.7506796,-0.007980029911027732,-0.01372590093771995,0.03474620945919209
719.252159628,-0.0007723054590716323,-0.005370716783700677,0.050758414181089215
719.75363886,0.0001689783114892014,0.008612627844930614,0.027462056581550324
720.2501043163265,0.0006772362253178176,0.0017958665693132859,0.00010643567106878647
720.74657008,0.0018680741002373086,-0.016465785958746804,-0.01932013612845941
721.248050272,-0.014389566243479882,0.0025919639797017226,-0.02601132543098728
721.7495305,0.0017322358681783182,0.011825417713024162,-0.010202837411679804
722.251010576,0.007334686904100981,0.008626274490218397,-7.693206903321416e-05
722.75249062,0.0008157020733358095,-0.011539987325053513,0.000204774739427735
723.253970736,-0.0102310668194339,-0.004116204245912479,-0.003732195071321118
723.750435967347,0.005009131153728531,0.005348543419107572,-0.010516008820645803
724.24690131,0.00010977022529445855,0.014163321476884216,-0.0095926308646067
724.7483812400001,0.00147526820008213,-0.0061129060173581795,0.004732172132455734
725.249861432,0.006181680185988939,-0.013529126818562,-0.005386511020662481
725.7513417,-0.00811933346944986,-0.007113916854360881,-0.021157548821077676
726.2528219,-0.01199690329903737,0.013721783731416097,-0.027834557953908847
726.7492876959184,0.01248507064559355,0.034162241825546294,-0.0272686553029229
727.24575321,0.030064899161589703,0.03489227504533214,-0.03907309024980658
727.7472345799999,-0.040475068768327675,-0.04446477197387562,-0.06334117996518955
728.248714606,0.042391676916629234,-0.025188404295898633,-0.059160846481318
728.750193956,-0.03649555497068046,0.021022756038439873,-0.01946052577026486
729.2516741359999,-0.007956860529598842,0.016282296297209068,-0.015133082178667084
729.7531540199999,-0.004417725667336555,0.016964640683385837,-0.020444465744064333
730.2496194510205,0.03273124152755573,0.01873984442327079,-0.0006242737598395433
730.74608458,0.11221713173747018,-0.019899672766781878,0.011023830620312917
731.2475649,-0.20240288942330767,-0.007130582301724439,0.016025773780257338
731.7490455599999,0.07531136274803461,0.004797950081832512,0.05956469385620282
732.25052586,0.011741412758592902,-0.01883034349461985,0.08509025733930416
732.75200634,0.01037131813128899,0.012973304323063473,0.0956927256375239
733.2534868900001,0.006136540464201499,-0.006399060007501281,0.1309214385639018
733.7499547938776,-0.028549216073900104,-0.03970385970319011,0.14945272192316644
734.246420056,-0.0020080980938027458,-0.018461601516273875,0.111722565166625
734.747897614,0.011112025344677168,-0.007944964238474357,0.11543600300759739
735.249377936,0.03495979467214456,-0.014959401870702348,0.11539608867670374
735.7508587799999,-0.0008518393970675106,-0.014985240609344036,0.10865636655477744
736.2523389800001,0.044795663401068136,0.014379831281558241,0.10016260422276564
736.75381886,-0.10369927499747346,0.0100681824256737,0.05741332999663718
737.250284332653,-0.0038002177033623166,0.04502721723774736,-0.007430827368698305
737.7467505000001,0.013676974942929403,0.01069365190772428,-0.05515840096720268
738.248230664,-0.01476347555459424,0.017862625825088695,-0.11288951649066824
738.74970976,0.01636663812201193,-0.03840439175222988,-0.1403334039437957
739.251190012,-0.010755037310150387,-0.01645065617090469,-0.13559470613752914
739.752671,-0.005914779431422759,0.049634714871971616,-0.142309056343171
740.2541510899999,0.030868077464984857,0.005593128146965886,-0.14944416911085054
740.7506156428572,-0.030384203641888125,0.005203323681437158,-0.15600316872719244
741.247080988,0.022108676500969884,0.009013258913717221,-0.16646317363087676
741.74856214,-0.010139213840720038,0.013156691049150317,-0.16564381565255792
742.250042128,-0.00437899348166615,0.03470300846367952,-0.15722353632760552
742.75152132,0.005434233230670482,-0.016403862074703974,-0.14461358235905952
743.2530015039999,0.02059522604268168,-0.005651014342362228,-0.13979170770269767
743.749467,-0.03338441181711904,0.037046552878800605,-0.12335672516059654
744.2459321700001,0.016292150694068176,0.022118808287905578,-0.11408231013539152
744.7474116799999,0.039209534856807594,0.009523988445410716,-0.044055008062304675
745.248891566,-0.026563338580041874,-0.04824361416375843,0.020537453026075167
745.75037223,0.017617105396171128,-0.008536671897095786,0.018211477106269615
746.251852012,0.11338457235642366,0.00373258906475786,0.01719599335313309
746.75333122,-0.28250001651157763,-0.010116805123684269,0.012264561548254749
747.2497962020409,0.1525773531237187,0.01085519667543323,-0.009949849641028111
747.74626108,-0.017199842004328596,-0.01895471794674042,-0.2009255986068924
748.2477409019999,-0.0009963885682192683,0.023952948906810927,-0.5243032873723261
748.74922134,-0.011671286637476654,0.05832041670271269,-0.6819959539765591
749.25070117,-0.002139279608548856,0.04641370240278869,-0.7253494833805528
749.7521814199999,0.00303773103536372,0.07558137944041128,-0.698473985748328
750.253661176,0.01844392527925456,0.05371071872233834,-0.45796163033440673
750.7501258734693,0.0031072103706527416,0.012347497852608587,-0.11801204613438224
751.246590782,-0.010702554828650679,0.003811786840889562,0.10079064914137595
751.7480702199999,-0.008268047046093711,-0.030012855605004773,0.13960645435925126
752.2495499820001,-0.004872881816112206,0.016263372699431004,0.1640009090720359
752.75102944,0.0037515220759098034,-0.011328956530186608,0.18260924111238971
753.2525092239999,-0.012850150318924234,-0.017215416964438447,0.1842887709662329
753.75398934,0.0060580419332700135,-0.012380726392718642,0.15850609307410787
754.2504542653061,-0.018002460600286683,-0.023292993347135513,0.0952164933392631
754.74691916,0.007661078726181636,-0.0018588883112478616,0.024208899708443744
755.248398788,-0.0040415707100836355,0.009985095599477831,-0.017109237415041646
755.7498781999999,0.00429957939258783,0.008316799921116759,-0.042688379093516415
756.2513577340001,0.005217445975426272,0.003674205796241642,-0.03737961615441236
756.75283718,-0.007692134584693296,-0.010235340854759833,-0.015614489371304621
757.2493019,0.00802650341617427,-0.002893552457719227,-0.03706909067734855
757.74576702,-0.012998036309440835,0.002664942500548366,-0.06187870146160804
758.2472464800001,0.0011095273200426353,0.004835509373800257,-0.05551578875205472
758.74872596,-0.0029423527380600624,0.01563140500208013,-0.04164747371358593
759.2502054319999,0.0030749694739895827,-0.0012022614383052225,-0.04965813059423715
759.7516847200001,-0.0043969408232792774,0.00861631098473708,-0.05363480634683702
760.25316429,0.0024169625493903877,0.009790041660787972,-0.045124223364199675
760.7496294612245,0.006350711657078354,0.0233558556263791,0.011329537045174167
761.246094204,0.0005315596958255365,-0.014415106496278857,0.26949093872551205
761.7475732800001,0.004778611504511451,-0.05570598845960954,0.5231540736863097
762.24905273,-0.013274340570390094,-0.044879674607651715,0.6018379843645151
