Time (s),Accelerometer_X,Accelerometer_Y,Accelerometer_Z
10.245545219999999,-1.4248990423624925,0.023911923901072028,9.735525041018926
10.745545219999999,-0.9280744829852607,1.5315075242949732,9.40102033372058
11.245545219999999,1.046414113665327,2.377694953954324,9.59275856430518
11.745545219999999,0.15254083702517773,2.553886161883598,9.008684559563909
12.24514522,-0.07264878717674556,1.4108553779433404,9.745920954701482
12.745545219999999,-0.021877878410604276,0.7876403266915291,9.544457666023636
13.245545219999999,-0.7118813415371577,0.26982382393767096,10.221068987337134
13.745545219999999,-0.04733673395726802,1.0239493008432001,9.140333033555637
14.245545219999999,-0.6309545241675051,0.5050824398113444,9.77155710291337
14.745545219999999,-0.3229585670004516,0.6085494307865578,9.726414848625172
15.245545219999999,-1.390857413738112,0.197329500284022,9.866118410197231
15.745545219999999,0.34280480085468057,0.46808859200195435,9.452326807495764
16.24554522,-1.00024920867112,0.379785508612506,9.513365922499371
16.74534522,-0.3236262952668759,0.8225039177793441,9.508306313027228
17.24554522,-0.7437486287346737,0.8018475200293564,9.300367475503469
17.74554522,-0.8580746988540217,0.25544530909195595,9.808040436176976
18.24554522,-0.3330761553487326,1.0689105266522323,9.51964337431261
18.74554522,-1.1846114405683799,0.534519480337259,9.76041188452871
19.24554522,-0.633667847075309,0.756888938303816,9.689823446217707
19.750153063137255,-1.256252818539828,0.46643552092109575,9.307296360809966
20.25054522,-0.1424510101608677,0.6881123119185203,9.681192984107096
20.74554522,-1.4599075326598723,0.5806091485305199,9.398735341585285
21.24554522,-0.44248654193254877,1.121388321959367,9.105514351092745
21.745145219999998,-0.8980491413066765,0.8007930773053848,9.745134990204932
22.24554522,-0.6369461646179257,0.20146805691240197,10.000799218707616
22.74534522,-1.3222410130912783,0.5135051286508812,9.358405967764597
23.24554522,-0.9959020262191979,0.20808228853093422,9.738063190147852
23.74554522,-0.6093643223776127,0.7085462815353415,9.302360442154633
24.24554522,-1.1275101586893803,0.08646407216210333,10.03327632220628
24.74554522,-0.5745821198184481,0.5350002019612898,9.377427461038279
25.245145219999998,-2.0668280255686433,0.317775733435929,9.07446429970849
25.74554522,-1.1336302790551764,0.40942182718257747,9.751405156159183
26.24554522,-2.0126711814142677,0.5755708548578119,9.222361372546295
26.745145219999998,-1.2406884394474402,-0.09286545114257731,9.300278913712285
27.24554522,-1.6323778320890483,0.8450316215335532,9.72069041411395
27.74554522,-1.5160417701442637,0.5947385940651292,9.364107071095974
28.24554522,-1.1437240240249056,0.84741832860858,9.56003240808674
28.74534522,-1.692288134973665,0.656157911963027,9.903948581186075
29.250349141568627,-0.8002458458576137,1.1852148946713792,9.126056779902312
29.75054522,-2.02757955765818,0.8986258007861248,9.346331068261884
30.24554522,-0.8727518819193745,0.8463858513878887,9.640023333684908
30.74534522,-1.6087044786023128,1.41507722346111,9.58743644815293
31.24534522,-1.8416142822201624,1.4234064425844601,9.04068802905965
31.74554522,-1.5874357311279834,0.5156358776877472,10.069140993118742
32.24554522,-1.3618066747886184,0.9296236792210228,9.208393205511276
32.74554522,-1.9083784463332023,1.0453042089667735,9.314314419174565
33.24554522,-0.5784949720179772,1.1838125865907116,9.962367120995609
33.74554522,-2.440837155557787,1.0935669638806504,8.973062778754267
34.24554522,-2.85298776221921,0.6516020269797363,9.33541406252064
34.74534522,-2.403242943136578,0.9752482463964395,9.158996936192935
35.24514522,-1.7309467328749386,1.1024369009088568,9.467813519003679
35.74534522,-3.107705624622038,0.6685725974522191,9.462892971055616
36.24554522,-2.34728712312329,0.6375236228834251,9.141321198982888
36.74534522,-2.3791268889624506,0.26730804835363725,9.707605623817718
37.24534522,-1.4000545279460943,0.6428659283640402,9.272943473510955
37.74554522,-2.797664690631749,1.1539199139714917,10.478263433630264
38.24554522,-2.4062399244799337,2.370125290941809,9.220254138006293
38.74534522,-2.2389188220072427,1.2161721466435602,8.98019800925999
39.24554522,-1.5557345620460705,1.2901824660396914,10.02846216005036
39.74554522,-1.9726182243075399,1.029045465735323,9.261434520037612
40.24534522,-0.42414671974645707,1.1276116032962764,9.601769255448094
40.74534522,-1.9018746136571416,1.3102019969694954,9.390972968234085
41.245545220000004,-1.1800666967309335,1.11733211144916,9.388762705844416
41.745545220000004,-1.960085900893782,1.121687377144758,10.256063076759206
42.245545220000004,-2.389111535654212,1.605509821892863,9.13931550851592
42.745545220000004,-2.6359836312604217,1.058818447547474,9.181901730106297
43.245545220000004,-2.917634878338225,1.1673874389199446,9.542178184069423
43.745545220000004,-1.8203610595400483,0.8412351413873883,9.324803140496277
44.245545220000004,-1.7738301914091776,0.9113108671733433,9.611394690691007
44.745545220000004,-1.9494238483690611,0.5505102367080253,9.665470392982337
45.245545220000004,-0.8028127184448899,1.0317950519633556,9.27801847567331
45.745545220000004,-2.407142276021391,0.9120293606258307,9.550631245412633
46.245545220000004,0.5525401370864753,0.4701378258691529,9.275220682979219
46.745545220000004,-0.41900881838469345,2.2580047753115506,9.32637962480903
47.245545220000004,-1.2893827020394775,1.0047184624755523,9.699067576606689
47.745545220000004,-1.182600841326274,0.38960189604116635,9.30337922845616
48.245545220000004,-1.6510115177362694,0.828214864389587,9.73879704942613
48.745545220000004,-0.9515558867175737,0.5765967215980027,9.484546693249142
49.245545220000004,-1.062502280477569,0.687404999083029,9.893807968750014
49.745545220000004,-1.1735447653722846,0.8971869427937759,9.251574350960022
50.245545220000004,-1.1376193057713113,1.0134337007489216,9.805584139940652
50.745545220000004,-1.1494786885384558,0.661978241873672,9.435861817572174
51.245545220000004,-0.5207864024607026,1.0782615680434937,9.353407648177358
51.745545220000004,-0.38463762802439383,1.7761286643158258,9.711127516828832
52.245545220000004,0.2838478352816686,3.466745048698486,8.658689737106554
52.745545220000004,-0.07965184611703857,2.381343289246705,9.414062518234639
53.245545220000004,-0.2752538040027009,1.1136090733218822,10.015998999988112
53.74534522,-0.5705181768906252,0.8266392621617241,9.431117043457022
54.245545220000004,-0.7576974242364778,0.7448657965914671,10.089760511631441
54.745545220000004,-0.4593539748548469,1.2993300474163916,9.074074068629429
55.245545220000004,-0.6720903715339497,1.2083408410088294,9.583649771484616
55.745545220000004,-0.7769696176941925,1.0359390479102262,9.782100043451804
56.245545220000004,-0.7120492424467705,1.2660954965455686,9.071854953953306
56.745545220000004,-1.0617616499511255,0.8645706753107103,9.727981214228254
57.24534522,-0.8248092433367905,0.8268398293913851,9.554160813093452
57.745545220000004,-1.0393831271567109,0.935851252502291,9.887643982333966
58.24534522,-0.9607564224615366,1.1756678821944153,9.743956913531603
58.74534522,-0.9498153095940732,0.8491727954603996,8.976099025836218
59.245545220000004,-0.8199407276587379,0.8102222234580552,9.712247925945773
59.745545220000004,-0.6647225179845827,0.7711381278874964,9.566437248822725
60.24534522,-0.7479201117575492,0.24928684269155188,9.901306611125781
60.74534522,-1.0099789629656417,0.44195506693895886,9.574432706800579
61.245545220000004,-0.7657587348130308,0.865508081324377,9.657867915475709
61.745545220000004,-0.6597602684867243,-0.06823193824422283,9.918065288815827
62.245545220000004,-0.7643466811449408,0.6410244579916626,9.307164563523957
62.74534522,-1.4030075322719784,0.15191648665299942,9.621306906492823
63.24534522,-0.5847659397074885,0.9277224322553397,10.048371365242987
63.745545220000004,0.2611151371780609,1.2030061382582502,9.237490498028347
64.24554522,0.520230974426396,2.9002634350952707,9.333408808776099
64.74554522,1.3102925942410133,3.268851267876026,8.976693014461334
65.24554522,0.9032151010102774,3.4872786169464014,9.010037071069132
65.74514522,0.606986847131307,3.1135949274848422,8.93452436504495
66.24534522,0.29029592900643075,2.092860806098801,9.596494657859495
66.74554522,0.10492763149834351,1.4100970744875552,9.577927810928863
67.24554522,-0.288011847766501,1.2630008204649308,9.727249206013493
67.74554522,-0.8702565559567745,1.6251814085619563,9.373119037311675
68.24534522,-0.21045666645279515,1.117127381025721,9.649932148989638
68.74554522,0.03212117820888735,0.8575979853807765,9.613276878190343
69.24554522,-0.22633166764919488,0.5518556542641881,9.885753507005447
69.74554522,-0.5270603055021322,0.8234253834401298,9.537122324295837
70.24554522,-0.8085058995522614,1.1693022578317707,9.57527901441452
70.74554522,-0.1493822526738726,0.9533934305973277,9.475546817676172
71.24534522,-0.13792440532629285,0.8570322193728742,9.767397460747434
71.74554522,-0.4586066880154437,0.8961796590213911,9.611401235407234
72.24554522,-0.37762433134748785,1.160072567230699,9.350599994378372
72.74554522,-0.5835603550201951,0.705328573123882,9.55482239138024
73.24534522,-0.8023242738599313,0.1380199291290677,9.797951349620837
73.74534522,-0.82025202402197,-0.029418580733851257,9.703290341153638
74.24554522,-0.8550214179561557,0.30009608547816574,9.652912572159595
74.74554522,-0.6441750378186643,0.669730051108389,9.579309504167291
75.24554522,-0.3387470846051287,0.5250959245920571,9.547957313880051
75.74554522,-0.4681338556664016,0.5887462906845023,9.735413522921315
76.24554522,-0.754764004852851,0.7058071673564548,9.552542638913957
76.74534522,-0.5638830665075263,0.45421005132663583,9.728556775090755
77.24554522,0.2446499245464377,0.11355583273639715,9.637189681005703
77.74554522,-0.03338151665243463,0.15321742660387863,9.637643788107102
78.24554522,-0.7526795868647888,0.6777843204007818,9.755988959229448
78.74534522,-0.7395315656615438,0.8323728983083563,9.615319803747498
79.24554522,-3.065471538397446,2.094804093562563,8.989126272383693
79.74554522,2.0476895029973248,3.8618395124165477,8.053932427891045
80.24554522,2.3936021569759705,3.1892287185064605,9.101663923873748
80.75034914156863,2.9097958488813247,2.976585016330404,8.79328062917762
81.25054521999999,3.0088864302950546,3.0589500074888365,8.726464584106177
81.74554522,2.788487762649999,3.148270725591687,8.735699406819373
82.24554522,2.5964770157444206,3.1563894174365577,8.761011154716364
82.74554522,3.813291574542009,2.7725301182421247,8.440598143027369
83.24534522,4.09160049357638,2.9041357655216045,8.292895340880674
83.74554522,4.462242582515762,3.0361717611775543,8.008748972664018
84.24554522,4.292360487257526,3.0673788711737586,8.126404499550441
84.74554522,4.656292076185623,2.440104343942211,8.184642698010569
85.24554522,4.419312653543174,2.2235906907174448,8.354111869730618
85.74554522,4.490293045095452,2.3797688883461605,8.281379719608662
86.24514522,4.527003371030569,2.482865594133577,8.256537593616356
86.74514522,4.804482687035779,2.593860758290812,8.007381667854622
87.24474522,4.731051483420838,2.8815141477869246,8.008423916593221
87.74554522,4.9185865111509806,2.9070495337943862,7.900929013786668
88.24554522,4.886362093019667,2.9478324172285317,7.853195644704865
88.74554522,5.039036930217378,2.9152065271065197,7.828696975760067
89.24554522,5.090820341913533,2.961785314629417,7.770467863602488
89.74554522,5.134524863630065,3.1064250868437226,7.621722193783944
90.24554522,5.164181176588645,3.136964321731042,7.617926740574107
90.74534522,5.156430011484439,3.140249374374991,7.632661644524545
91.24554522,5.129247657105095,3.2201583996877705,7.598664930287639
91.74554522,5.266915872321547,3.180211179125211,7.502498841633974
92.24554522,5.097654924304646,3.20687468642405,7.675912224884325
92.74554522,5.155603778926275,3.170489144379212,7.6069205196504655
93.24554522,5.20380937521248,3.222406911240958,7.5626244584201485
93.74534522,5.093998303275785,3.2812713747732203,7.607473697555427
94.24554522,5.260117029702879,3.1870930770638677,7.517838298560133
94.74554522,5.125136369655714,3.220628670554662,7.63687286629157
95.24554522,5.183003590470155,3.22394352858913,7.559419906831398
95.74554522,5.1696864656969534,3.2620846384732776,7.566768246569547
96.24554522,5.1587003263872955,3.2515638079828846,7.573794250821738
96.74554522,5.1700241155907785,3.251326465062471,7.546657634381263
97.24554522,5.1709215233054655,3.2614845369731023,7.555325083335496
97.74554522,5.228395673180219,3.3694476378642713,7.477494146207068
98.24554522,5.243315081809094,3.3863998395716806,7.454210364337967
98.74554522,5.276707973605141,3.3908268794104868,7.450033302412135
99.24554522,5.236863637048189,3.301479724404398,7.510313477818432
99.74554522,5.242919641928004,3.318504744190893,7.470085154593772
100.2455452,5.380209636571764,3.513914281960451,7.300649820720086
100.7455452,5.323319918975665,3.5468250981536635,7.310510774513183
101.2455452,5.070980843269267,3.3831939553269255,7.6186829381220695
101.7455452,5.330259146534916,3.2494490653054062,7.447317026345121
102.2455452,5.502897437150409,3.388066485257584,7.274159210123109
102.7455452,5.5377097035440475,3.531367602382952,7.203874808430441
103.2455452,5.48751143137256,3.6878075473085916,7.138564189099834
103.7455452,5.460296011720867,3.735833305726066,7.1407919998648675
104.2455452,5.497479797269852,3.6902485081639713,7.136389292028331
104.7455452,5.609453246317855,3.6084695888033025,7.088313269100236
105.24534519999999,5.613082574286665,3.613806451653516,7.092975671207787
105.7455452,5.488884774577545,3.6919202095304655,7.150676545309891
106.2455452,5.438085520565938,3.6899959010578685,7.206868915679966
106.7455452,5.659101253547817,3.6141445593101316,7.0597625113217575
107.2455452,5.743330161651535,3.664926230061967,6.953702287808762
107.7455452,5.732195403708024,3.789738352065399,6.903194903309992
108.2455452,5.756189027333236,3.839066400713943,6.80981534864483
108.7455452,5.350144257372178,3.6784439372122937,7.196906611712283
109.2455452,6.377959761125538,3.688323658127295,6.523342129759113
109.7455452,6.488358759735475,3.476201982344567,6.510674317197662
110.2455452,6.7658769473258635,4.321974545937578,6.397067061983714
110.7455452,6.649935863426375,3.557140728150028,5.927214814190505
111.2455452,7.088874021757038,2.6479448348077117,5.099765413253951
111.7455452,6.049806005330241,3.9424153129921096,7.4017422216450015
112.24534519999999,5.648610407345571,2.976541245633505,7.743564064291896
112.7455452,6.3050236151195564,3.4905340919820484,6.171853581159464
113.2455452,6.3441701029222735,3.687988201650648,5.732444644013601
113.7455452,6.199747973286333,3.8585407006718024,6.56912775253277
114.2455452,6.229694317915669,2.8733239374842134,8.253958296295481
114.7455452,5.454141454854608,3.4880447974912476,7.175640521286653
115.2455452,5.36304140870145,3.6116113440696442,7.231616325441755
115.7455452,5.20571909480394,4.2824780146675465,7.581768666383872
116.2455452,4.4957130373219245,3.808959477023167,7.586016907953552
116.7455452,4.196810680412176,3.5972279901177244,7.623825471941781
117.2455452,5.238108842529773,3.2547228773272745,7.2403563492060234
117.7455452,4.35848972261925,2.8379068528706117,8.033242928969367
118.2455452,5.114146878742487,3.8048779405968376,7.886916453328144
118.7455452,4.9266293047962915,3.7728387596464823,7.195263099943039
119.2455452,5.47300745606484,4.7138108535570415,5.570345881519612
119.7455452,5.41361202002182,4.567068608853675,6.6377203448676765
120.2455452,4.82822000582302,3.431108170390211,7.8779692894484326
120.7455452,4.128536410738048,3.5013329333992917,7.965010852615814
121.24534519999999,4.2455007778840725,3.591510804170486,7.710912076680448
121.7455452,4.375229741246275,3.8836729383649424,7.463307660593865
122.24534519999999,4.568010237864672,3.4134068162667286,7.7348751271904845
122.74534519999999,4.985804272870116,4.58255267295878,6.582134037514014
123.2455452,4.644481410348584,4.084022092336716,6.9091679979946194
123.7455452,3.9132007320965756,4.2060492777159535,7.509354940112781
124.24534519999999,3.3545850516152553,3.5964343628733517,8.314595328312969
124.74534519999999,3.064308786501994,3.4503365275636706,8.734523855335075
125.2455452,2.559059370560996,3.1386406958907656,8.78792549947797
125.7455452,1.19202426964332,0.4805293326947904,9.820420623325186
126.24534519999999,-1.0173890453288943,-1.4128406155180806,8.872039453728277
126.7455452,-1.2400912686741632,-1.5689192271321,9.565044514160196
127.2455452,-2.9309600691449083,-1.1449161384295643,9.38715278625946
127.74534519999999,-0.38808036466997065,-0.5746071766748394,9.300888448323514
128.2455452,-1.6961313757662637,-0.517012817710772,10.079369712613607
128.7455452,-0.32695365447839436,-0.07087626361172779,9.207982369612303
129.2455452,-1.1756050847286355,-0.15175517114486697,9.95331984502525
129.7455452,-0.21051039672797014,-0.07425976403410639,9.310164142783169
130.2455452,-1.6112297438630956,-0.2584210397335831,9.558992152356097
130.7455452,-0.4907553968629621,-0.3241898845366841,9.742623806772752
131.2455452,-1.2760405537702058,-0.39094580972395626,9.688943273021938
131.7455452,-0.2590332221249707,0.04748634081938077,9.609419571456208
132.2455452,-1.0148897276949578,-0.01243333569462981,9.518124837488628
132.7455452,-0.6849319826803218,-0.11358192503439746,9.74711836600303
133.2455452,-1.4547203965145044,-0.2408514338819952,9.41873357684814
133.7455452,-0.6255089418553685,-0.14646260803102013,9.607778914831956
134.2455452,-1.3256769020171975,-0.21508383694031824,9.773485698633843
134.7453452,-0.4917101212485344,0.07786984841900396,9.558889002849641
135.2455452,-1.0730454315665534,-0.01657497936845398,9.697015055080879
135.7455452,-0.31206267472530774,0.3943292956025043,9.408426765445746
136.2455452,-1.0058833991993998,0.6850716314730952,10.222141396823979
136.7455452,0.08298935465126041,1.0685793372042978,9.358835834578702
137.2453452,-0.803603517705062,0.9319834841059085,9.732147732791585
137.7455452,0.14591444109590268,0.6174518904526686,9.725415998494796
138.2455452,-0.9212980384338819,0.42169917169708165,9.40601446211751
138.7455452,0.0042732164360021925,0.43038158533773485,9.735971079030307
139.2455452,-1.1022649999884413,0.4505725479338187,9.566917424141566
139.7455452,-0.5055589315392783,0.6234520754807065,9.7596561100001
140.2455452,-1.2625372216823636,0.6174924191994727,9.762825495868492
140.7455452,-0.29609361427248715,0.832301628998607,9.711818221204418
141.2453452,-1.3331035394071271,0.6197983223400878,9.195910307976867
141.7455452,-0.8974079002473734,0.2668617230578356,9.905775673608586
142.2453452,-1.556812170474306,-0.1462692874242384,9.828995891340494
142.7455452,-0.5730857513539953,0.5389083923037056,9.28290892734665
143.2453452,-1.3820795193768256,0.2247602638938316,10.09505059298443
143.7455452,-0.5337257881544438,0.7955155065780527,9.307963219588657
144.2455452,-1.7043151874719715,0.2028315734677453,9.755570207414811
144.7455452,-0.6600718890544846,0.5253602606218082,9.600932917089317
145.2455452,-1.4751039694547592,0.2665507474975209,9.840516910789864
145.7455452,-0.7270299867237984,0.4445807454274431,9.576461413174096
146.2455452,-0.5403643404838783,0.9657603587515274,9.510509787471015
146.7455452,-0.16030790159070243,0.42130199317769523,9.812931769910357
147.2455452,-1.0556892380875815,0.45763336748436273,9.455270193249932
147.7455452,-0.09112299151953997,0.5796921370811364,9.462317893590823
148.2455452,-1.6417973290930545,0.2638646876833637,9.50841788997863
148.7455452,-0.4178244390833072,-0.15237019584769237,9.647156892104242
149.2455452,-1.3800546936737046,-0.05067907524819771,9.870204454930727
149.7455452,-0.5621320549628855,0.7047435879701784,9.521960841080743
150.2455452,-1.0852430229611318,0.39946802721380414,10.065147769414866
150.7455452,-1.166507247972787,1.7233166501005035,9.184642311765172
151.2455452,-0.7123828769628119,2.513394221476322,9.007442326763167
151.7455452,-1.0367405525257927,1.0286934765092197,9.784766541229981
152.2455452,-0.756468017024933,0.0057961218577811955,9.801324954631673
152.7453452,-1.191099359727089,0.29767459355193465,9.403980468285694
153.2455452,-0.7733254231085344,0.4857811021433189,9.695018319499907
153.7455452,-1.6250650240918794,0.22300217657804605,9.649901120526994
154.2455452,-0.38350784890171397,-0.09170131105907321,9.58687644820273
154.7455452,-1.6004808788903226,-0.00596155621529894,10.006686131446099
155.2453452,-0.2883964880996483,0.217874346777137,9.578974343022987
155.7455452,-1.5594594425638144,0.266463776666591,9.460550707964407
156.2455452,-0.08178624028840911,0.6913124720189135,9.46341246168505
156.7455452,-1.4391790041336927,0.4551786396498803,9.562301254868414
157.2455452,-0.9382544563010381,0.38612267922804056,9.587777577031579
157.7455452,-1.3570437613362616,1.2419114178068955,8.938754142177071
158.2455452,-1.082911154194566,0.641740035225678,9.827508584666358
158.7453452,-1.0277694640334374,0.20326480465878913,10.080117320381639
159.2455452,-0.6903309469266239,0.5870749587539749,9.359890201996233
159.7451452,-0.7554403006664805,0.40864199278022667,9.642775797037146
160.2453452,-1.1527259098071492,0.4857126301274642,9.337430450036406
160.7453452,-0.8715719755628676,0.592324640175484,9.762088773947134
161.2455452,-1.5455247491943715,0.6174672487985393,9.838246127463925
161.7455452,-0.6855248216399386,0.6628673324378305,9.557943486423923
162.2455452,-1.7106614786037937,0.4332394722493109,9.504887776785239
162.7455452,-0.026643583711840182,0.590109998211392,9.660288184847468
163.2455452,-1.612007828178696,1.161222029515341,9.745966792100642
163.7455452,-0.24255170643327773,2.391949911520978,9.197435938747542
164.2455452,-0.1285342683617577,2.6913524602654086,9.089310503948386
164.7455452,-0.6101581333495497,1.9372998343364183,9.342914475385225
165.2455452,-1.1592036923396196,1.3333022026816743,9.349139619288772
165.7455452,-1.1924662343941177,1.6496569067092184,9.616772043517003
166.2455452,-0.45462262165602496,1.280452024195528,9.046050102049822
166.7455452,-1.2289859547171142,0.25592316649088176,10.331598765828035
167.2455452,-1.2369980486493817,0.20757405984609126,9.533981315062912
167.7455452,-1.1926790648441103,0.5471355587130913,9.609912448083618
168.2455452,-0.833527964045653,0.24853584235117054,9.906310700028266
168.7455452,-0.9138052666962707,0.6768178775610459,9.057580820179854
169.2455452,-0.3910024826371145,0.5208965818321615,9.490491258141786
169.7455452,-0.925135749565019,1.0252118000978228,9.334992945185558
170.2455452,-0.7316922103857025,0.5807874109838554,9.984354604560906
170.7455452,-1.265030053655083,0.5948884039532448,9.519352403741205
171.2455452,-0.7988395765473238,0.10664850449458195,9.92544223196458
171.7455452,-1.4142817500846407,0.667301409230906,9.162549924377535
172.2455452,-0.5023509330136255,0.27048362839321327,9.903782588735254
172.7453452,-1.5483759722347643,0.4924861798331944,9.267822579029152
173.2455452,-0.928694826498312,0.3277517775512356,9.444017328984145
173.7455452,-2.384228098029393,-0.09892768430804487,9.713598047917081
174.2453452,-1.6892545342560792,-0.24876107274915832,9.167631148167258
174.7455452,-2.101860800736596,0.22477928685925933,9.928185421863493
175.2455452,-0.29158066813050276,-0.03256833617582904,9.000575663908553
175.7455452,-1.2137358247813625,0.004863692695623504,10.057888806566227
176.2455452,0.1191868701775528,0.14235241374923135,9.671744696418155
176.7453452,-0.8000336856438534,0.6916563525152719,9.677520365122634
177.2455452,-0.2897670084773891,0.2662073922723442,9.843512246856365
177.7453452,-1.0257342011379735,0.2623297821870121,9.11195105433459
178.2455452,-0.11214098946976993,0.052088711393719726,10.182258683322107
178.7455452,-1.6737683677228086,0.47410211627527565,8.846956393254803
179.2455452,-0.41249997186103854,0.38444288563598866,9.89862877821517
179.7455452,-0.8130644860540772,0.4421826275453792,9.756899580562148
180.2455452,-0.44236404217276715,0.3264057165523204,9.638351319575884
180.7455452,-1.5949540849001442,0.05524217287742927,9.59471304125104
181.2453452,0.12385945471445765,-0.33791227276020275,9.756530904596934
181.7455452,-1.0585254075547355,-0.17164730625579439,9.819358297628256
182.2455452,-0.4019036831315539,-0.09678926408158013,9.764633412201327
182.7455452,-1.4798054651371708,0.18954638077308922,9.321493630526863
183.2455452,0.4325850499453168,0.18500591284716808,9.59988374155937
183.7455452,-0.14890881542041234,0.1295504348306159,9.660769240192437
184.2455452,0.8354063543863864,-0.061188560767253326,9.964874151266786
184.7455452,-0.47646277748567145,1.420184638256378,9.356256355892192
185.2455452,0.40596688214511256,3.0641226953245924,8.930663616683928
185.7455452,-0.9912136422946469,2.6389567507673903,9.137107937829846
186.2455452,0.13105541846296365,1.4890729232401787,9.788830775383756
186.7455452,-1.5640907188845923,0.466207622935342,9.658476830387315
187.2455452,-0.4474478027372876,0.4506615855456269,9.507206786668018
187.7455452,-1.4969841553701542,0.5859002035806405,9.768703289163371
188.2455452,-0.332263397114648,0.8621338685926142,9.189243052065533
188.7455452,-1.0959152138605912,0.40304442740109786,9.940067358183239
189.2455452,-0.5921860592365831,0.5771050783662591,9.444042732306956
189.7455452,-1.4587466398752686,0.23990860522804194,9.546689094417307
190.2455452,0.0555596015400949,0.1870031622879983,9.558749065680454
190.7455452,-1.4764537981739942,-0.43050605547969845,10.139025241801978
191.2455452,0.2799593791264902,0.10758065533335735,9.210363516418383
191.7455452,-1.896753418913075,-0.028596035261941558,9.61210026101325
192.2453452,-0.7737329387842423,-0.01407080506352227,9.798320499434585
192.7455452,-1.2944159038641851,-0.12727141464296107,9.684235712779637
193.2455452,-0.8392416399166862,-0.06398828472595441,9.376819728857182
193.7455452,-2.380035329132239,-0.14421518129224786,9.138826728146464
194.2455452,-0.5607394849393472,-0.18319395592152887,10.539112397379728
194.7455452,-1.4150338320714346,-0.12641470831192922,9.348286322982526
195.2451452,-0.2842170247952256,-0.24191760474218743,9.441975554175873
195.7455452,-1.2870708148690682,-0.32277881063517044,9.370851973543205
196.2455452,-0.6845456102946414,-0.06995765393302139,9.573326472492043
196.7455452,-1.2503732043317473,0.4650641087940425,9.3853249507656
197.2455452,-1.7287875229976015,-0.45814631147200724,10.011138114395555
197.7455452,-1.6324722007227643,-0.4572630763387602,9.579265839917774
198.2455452,-1.1247878923344605,0.056631844799766844,9.176911781862525
198.7455452,-1.15289803498672,-0.22011128102601224,9.86544838088274
199.2455452,-1.6333008622686385,0.17127583918939596,9.07166197820351
199.7455452,-1.022898666248386,0.005961609959201666,9.752844699702624
200.2455452,-2.2410063120191355,0.22340899281039964,9.912250337431521
200.7455452,-0.3270467126985212,0.17201681432084837,9.328567536091054
201.2455452,-1.4099225340858212,0.5305584400224591,9.54097038989295
201.7455452,-0.10000619795945007,0.7202076468811547,9.573222998222505
202.2453452,-1.3120171835901977,1.0992284464682076,9.814880815712257
202.7455452,0.05576118067811482,0.23323780481892242,9.626922262720031
203.2455452,-1.4367856025072465,-0.04920480411119362,9.880065382463648
203.7455452,0.03672586386086206,-0.08485784489081385,9.4812543370007
204.2455452,-1.2985480208464637,0.1397106946125109,9.44723274054259
204.7455452,-0.514221056075139,-0.027303640793482478,10.348814867981524
205.2455452,-2.1799172400427285,0.018572023113162715,9.556941548036537
205.7455452,-1.4267518933303744,0.22119041198523948,9.189807794775856
206.2455452,-1.8047729774261765,0.24259828465518488,9.419904008553281
206.7455452,-1.9342046170444656,0.05270628571178161,9.315119334801079
207.2455452,-0.9823997147136295,-0.6908660374637599,9.618022192575074
207.7455452,-1.5508196903840739,-0.2280735839037035,9.498336256649328
208.2455452,-1.1261860252459417,-0.2385965429179393,9.56617172069823
208.7455452,-1.8192224226947968,-0.005879584684650929,9.740852887326236
209.2453452,-0.7262110737907964,-0.11788407017853919,9.345045924807183
209.7455452,-1.2177741072441888,-0.3699467904246724,9.727068253182626
210.2455452,-0.5335520873541237,-0.162754295235165,9.7546075035689
210.7455452,-1.7146496377023472,0.06700677356019596,9.475945388589473
211.2455452,-0.7458197067164919,0.17636381157287903,9.652339831905344
211.7453452,-1.0195665928089936,0.4922786566363068,9.68946736960526
212.2455452,-0.4905235840767898,0.3402519390390579,9.875071357199586
212.7455452,-1.087646216315246,-0.1287214306454364,9.34286904590716
213.2455452,-1.296617491256483,-0.36882046739198715,9.429707711832657
213.7451452,-0.7524780259577807,0.18212317647993065,9.77274771563145
214.2455452,-1.0312437629974374,0.4761197242485508,9.502973249427209
214.7453452,-0.4460432541962561,-0.07215552464151404,9.838464481003914
215.2455452,-0.7105789639888226,0.20917088445827203,9.581686178497684
215.7455452,-0.1416764239879004,0.09082971594808228,9.624473573751736
216.2455452,-1.0784015470479567,-0.09635115936909815,9.521811883337195
216.7455452,0.21684965631895137,-0.31694331106009505,9.654122443693991
217.2453452,-1.8947368624132634,-0.7132440218000656,10.065927326554418
217.7455452,0.001201114316380758,-0.402556784331623,9.510066054061882
218.2455452,-1.7049163420522344,-0.36266271190842453,9.825647290387234
218.7455452,-0.6149733784662688,-0.5406222823142988,9.879245837116096
219.2455452,-2.087711610002605,-0.2531074015129665,9.150647913439373
219.7453452,-0.6562842444679217,-0.36801682127857044,9.77320201663443
220.2455452,-1.9202171183771513,-0.6206261576477692,9.374942686682514
220.7455452,-0.2677802226643206,-0.46163611383498304,9.57240584985736
221.2455452,-1.9310451689754735,-0.5196211681617771,9.521473385326129
221.7455452,-1.0490389091887509,-0.5506824342956462,9.653297199867774
222.2455452,-1.253719937249242,0.8298257598319624,9.21838750803816
222.7453452,-0.15536820000710275,-0.10438355133800924,9.258072595167771
223.2455452,-1.441088572433756,-0.46189464700475796,9.77616692356125
223.7455452,-1.195865218047928,0.2844564625574909,9.452173483879406
224.2455452,-2.0949464120531616,-0.34544742355620933,9.925283518720637
224.7455452,-0.16633080249654297,0.10539176356387003,9.010330828427172
225.2455452,-1.2957884625263105,-0.23791969344239242,9.557899495448218
225.7455452,-0.6191472993378323,-0.18854078374553368,9.533087217007706
226.2455452,-1.6565194705380821,-0.14193716254028949,10.108467147905898
226.7455452,-0.23648937285401062,0.20185886461233413,9.689669846321427
227.2453452,-1.3552836330639875,0.16869030155856354,9.378140201889227
227.7455452,-0.6445217240223823,0.00254554537163262,9.315385442141396
228.2455452,-1.7038668741469127,-0.22804169565135302,9.799085435624113
228.7453452,-0.4058779598221974,-0.16531528319440672,9.324229717163126
229.2455452,-1.7527853300350307,0.11565794558892221,9.515771839516583
229.7455452,-0.35351440550994195,-0.1522129105019226,9.80997646469226
230.2455452,-1.3842480902361234,-0.11348411005682087,9.330234051824652
230.7455452,-1.0369897343187335,-0.24581895003733514,9.694898482692322
231.2455452,-1.640442879816092,-0.19948692406477697,9.055949818331477
231.7455452,-0.6835804730917369,-0.6891671068844505,10.472095191111048
232.2453452,-1.2559837290199907,0.38753136991549253,9.396185566451047
232.7455452,-0.8764152344893865,0.10112247664790386,9.777339920714015
233.2455452,-1.923617436761259,-0.10667294365821738,9.69938489997449
233.7455452,-0.8140574479836877,-0.13588326788070326,9.960122985059012
234.2453452,-0.9418474956187484,0.0547621650312391,9.670413378462788
234.7455452,-0.480206571633733,0.09358151464502593,9.320895417231263
235.2455452,-1.3009108874609208,0.05021938022829004,9.959989224421479
235.7455452,-0.4118510224305541,0.1985236714122744,8.954465057477504
236.2455452,-2.112551288018651,-0.23331019450163168,10.25475141322091
236.7455452,-0.43136427685608403,-0.02578094675580207,9.273841292653062
237.2455452,-1.2218021223591267,-0.0564283480183855,10.035038025548332
237.7455452,-0.48662888695451195,0.11527723918697776,9.6449848620833
238.2455452,-2.076815293477021,0.2548458799116224,9.643818533952114
238.7455452,-0.08182699166665146,-0.0738958995556065,9.74728616011051
239.2455452,-0.7243578932169588,0.29449920922032796,9.480289518595981
239.7453452,-0.8205380098694427,0.15314965711800563,10.317081158034
240.2455452,-1.8914727694948568,0.21407532041468053,9.49159456582117
240.7455452,-0.21294877804530887,0.2975202007146747,9.314341140452337
241.2455452,-2.416101297753535,0.701206168784094,9.572041328969092
241.7455452,-0.2052681492932771,-0.4857165874309484,10.148718679615918
242.2455452,-0.7346587637142987,0.022373950805716393,9.606373041076417
242.7455452,-0.5177669180189772,0.3593246924033049,9.033089139726941
243.2453452,-1.3287430957532362,0.15534283107221353,9.70872689432894
243.7455452,-0.8382740886019902,0.1673875987636682,9.71984889042434
244.2455452,-1.4845892727469856,0.008697766828539634,9.536064095715279
244.7455452,-0.7040673345924098,0.07181342480546711,9.725808466075
245.2455452,-1.3099649330070187,-0.004389398117453479,9.827858184221292
245.7455452,-0.48574159522820537,0.05028040624151212,9.200883955702242
246.2453452,-1.326466987997152,-0.17882023259622723,9.83460083257179
246.7453452,-1.2432766818145486,-0.10155785171002113,9.406868967118623
247.2453452,-0.8615838258336866,-0.022219997555586533,9.645585239754624
247.7455452,-0.6784321458005984,0.31223818171375683,9.851019500155973
248.2455452,-0.899820200285051,0.554359618191486,9.310194360406113
248.7455452,-1.6486471870592114,0.3375289503981893,9.63070612883749
249.2455452,-1.34030018369166,0.2514228331474558,9.481917622622769
249.7455452,-1.6703107464940679,0.2030676105343437,9.707806285040403
250.2455452,-1.1887403829672656,0.4652751291697029,9.347798569544377
250.7453452,-0.958208947540602,0.4807431067813573,9.90955804072069
251.2455452,-1.282783418290321,0.32388986051518687,9.830825253107932
251.7455452,-1.526599381833065,0.5207756800965114,9.3232936214816
252.2455452,-1.4540135601266706,0.5533126187064888,9.783316383715272
252.7453452,-1.4851765727711987,0.4699375494580179,9.449357321611105
253.2455452,-1.224503307306997,0.3380060539771667,9.28320071872921
253.7455452,-1.8764966727961276,0.2753760656692606,9.750279380757034
254.2455452,-1.3166316431068363,0.2970158060074162,9.321793839805567
254.7453452,-2.358902651794212,0.025652772434867636,9.655622156918572
255.2455452,-1.17362880201334,-0.005846234151717902,9.314788742249583
255.7455452,-1.8217948474911332,-0.13850325067575986,9.556717313898009
256.24554520000004,-1.1708621827619374,0.20601695081265936,9.599142676235351
256.74554520000004,-1.7560400878242672,-0.10771628952963798,9.685139153871326
257.24554520000004,-0.7936756835757269,0.23731385348973327,9.23725200222502
257.74554520000004,-1.7844159639316206,-0.06081866785050579,9.474439886271982
258.24554520000004,-0.6819317223958699,0.11208563611630978,9.532206132177606
258.74534520000003,-1.8880752369739773,-0.33268087472179886,9.513057608461565
259.2451452,-0.8025819166415029,-0.0731952797739353,9.587549311267678
259.74554520000004,-1.6733674076196372,-0.0676462411180025,9.71828919828549
260.24534520000003,-0.8487012771273175,0.13121884050590238,9.505503631804276
260.74554520000004,-1.6790384587539864,0.46853578957867476,9.288634955768497
261.24554520000004,-1.113928150330346,-0.09371375206149792,10.054660781675125
261.74554520000004,-1.9673108731393945,-0.19106480034098564,9.379637805128834
262.24534520000003,-0.9636252630967193,-0.3314792706774909,8.732910206885368
262.74554520000004,-1.3865554733253944,-0.7477591753625784,10.419746079327403
263.24534520000003,-1.2635219487491913,-0.8310379399687645,9.027020691184479
263.74554520000004,-1.3639194575386506,-0.6333043122663198,9.425766404069474
264.24534520000003,-1.1017276000263359,-0.2546832245252151,9.153909987182669
264.74554520000004,-1.6779359846822113,-0.5096281737914458,9.788663403849627
265.24554520000004,-0.8803200908265228,-0.18442786904489636,9.849789378270856
265.74554520000004,-1.4557612332525236,-0.04369651578074146,9.223909782507729
266.24554520000004,-1.2773425279325554,-0.38758644928390124,9.499176374107696
266.74554520000004,-1.2907142796580735,-0.2799281755518896,9.444178313143233
267.24554520000004,-1.2207811707783491,-0.11478588461010177,9.784357477995803
267.74554520000004,-1.3565389893938802,-0.10298441404243476,9.73466841820568
268.24554520000004,-1.3529885979514196,-0.002300730438308677,9.370016410679902
268.74554520000004,-1.8748538953643175,-0.02288543224043032,9.67992853665393
269.24554520000004,-0.9596099855052622,-0.17616924726509275,9.781183503011158
269.74554520000004,-1.2746644246399188,-0.057244591142717294,9.241565275437258
270.24554520000004,-0.912027276772887,-0.3381106012322181,9.548276905198843
270.74554520000004,-1.1546908115595116,0.16877042260682018,9.359742543198957
271.24534520000003,-1.3816311712469354,-0.12996287116034322,9.45292474190689
271.74554520000004,-1.2922511658156777,-0.4590935716243251,9.637691198323783
272.24554520000004,-0.9230002768670211,-0.24297655964846004,9.826556099305039
272.74554520000004,-1.6040083668900809,0.1634751041895708,9.560831413517883
273.24554520000004,-1.3249694061669512,0.10462706889854559,9.427186536944923
273.7451452,-1.7487172285513883,-0.2672055023245951,10.082347281726424
274.24554520000004,-1.019241036073928,0.0753815832636222,9.276730695111588
274.74554520000004,-1.3481195209861678,0.08676538200854539,9.344013060169807
275.24554520000004,-1.4949887518927687,-0.017374449677449177,9.778870424210652
275.74554520000004,-1.3272627843009075,-0.1335574189151071,9.679137281775885
276.24554520000004,-2.02084584837791,-0.1416820569683449,9.722127631579001
276.74554520000004,-1.701207226149673,0.18739175103684955,9.193723456137604
277.24534520000003,-2.0652163011529647,0.22517070542463852,9.782211697613453
277.74534520000003,-1.3889840032281686,0.018503224610645977,9.161845410635973
278.24554520000004,-1.3370037369523624,-0.3609477665851047,9.428558497227712
278.74554520000004,-0.880570609011187,-0.00838886107407016,9.566657851019778
279.24554520000004,-0.3214304617105272,-1.0347270452713884,9.794460771623159
279.74534520000003,-0.3802041319204534,-0.675585374155822,9.489510940399867
280.24554520000004,-1.7035602581666203,-0.2758851774593935,9.511214605326245
280.74534520000003,-1.0516494201686912,0.02578407419300026,9.473341072656648
281.24554520000004,-1.3564910737287277,-0.4222014912625843,9.63928135916673
281.74554520000004,-0.0740009466146394,0.048690180376524186,9.468620864971818
282.24534520000003,-1.1659324679536291,-0.3631576791466238,9.61925361981783
282.74554520000004,-0.6297344082829884,-0.2345667769092789,10.011818445311768
283.24554520000004,-1.8384926192430846,-0.3024207878322081,9.929129040572295
283.74554520000004,-0.8525277739900338,0.14517936702888207,9.452394432687804
284.24554520000004,-0.7160544116673363,1.0827605149308783,9.563611862185986
284.74554520000004,0.04192053378428639,2.663671269238435,9.467544361201194
285.24554520000004,-1.0149364481218262,2.6897945393975875,9.29674009640899
285.74554520000004,-0.7311693444907749,2.9130341726758657,9.00182576576329
286.24554520000004,-0.6496072665823222,2.4450019538001113,9.29496615030401
286.74534520000003,-2.210074098131098,1.8141399174885806,9.56551549955518
287.24554520000004,-3.841669012442598,1.4949641635024284,8.445438423847984
287.74554520000004,-2.0531306320650584,0.4039539086816575,9.776718870983315
288.24554520000004,-1.91718710236628,0.28917585021584336,9.34479189510664
288.74554520000004,-1.3760770781427356,0.5875129021161958,9.679756363023525
289.24534520000003,-0.6342491877171897,1.9352416378357973,9.175341834724176
289.74534520000003,-0.8492867941204092,1.5190900550898723,9.651522244360656
290.24554520000004,-0.3217618860875974,1.5710284883092274,9.452509911218778
290.74554520000004,-0.4934828418180697,1.5178464441127812,9.649889887839395
291.24554520000004,-0.6545413898989016,2.1164439193292477,9.345576993158165
291.74554520000004,-1.0186789518232067,2.227073521792001,9.29743267141256
292.24554520000004,-3.7178315413522594,2.088818394648394,8.971331918309799
292.74554520000004,-2.7255299543226217,1.34184598064896,8.814416698562662
293.24554520000004,-3.223118803979968,-0.06450195360294528,9.718799814110564
293.7451452,-1.7727744229310147,-0.25096857393265926,9.111212592579314
294.24554520000004,-1.1516491596219267,0.0033426320463180647,9.866559791916826
294.74554520000004,0.5566494186827602,1.7258144680610412,9.068400070528837
295.24534520000003,-1.0799228746830976,2.1303857218360864,9.107280823745668
295.74554520000004,-0.2858482055764575,1.0289406608077023,9.622032563000259
296.24554520000004,-1.0909408057770233,0.2089999451418365,9.810158526607735
296.74554520000004,-0.11987541813356394,-0.23450334514791935,9.789820464917364
297.24534520000003,-1.584367835498024,-0.050406169523851505,9.84569350918163
297.74554520000004,-0.5091138073731725,-0.0649093580172127,9.497946325717127
298.24534520000003,-2.0444704487230143,0.11424152085133259,9.554098560350337
298.74554520000004,-0.7914375589617569,0.17923787646449862,9.134043452325123
299.2451452,-1.8322822218385253,-0.11988143585996694,9.878333700562116
299.74534520000003,-0.6906980311436667,-0.17651584372360085,9.523582024056573
300.24554520000004,-2.162023552040564,-0.12490948016219747,9.632467945267411
300.74554520000004,-1.288872158951474,-0.1306109724136697,9.564667101277102
301.24554520000004,-2.0872090514986414,-0.02033444164941744,9.093047216352181
301.74554520000004,-1.1157625637628394,-0.4185209431194456,10.155881490327982
302.24554520000004,-1.4076875948151184,-0.2231507532224754,9.41734415932072
302.74534520000003,-0.6471757006142451,-0.5571213120189391,9.800331311974643
303.24554520000004,-1.480118311659707,-0.4080764660329749,9.243508237188898
303.74534520000003,-1.2234594246578947,-0.7926859233174197,9.698491305501722
304.24534520000003,-1.9834160133661884,-0.8111353545390516,9.434969634866754
304.74554520000004,-1.3341735691703576,-0.7004370004004064,9.688953230532377
305.24554520000004,-2.2027165076665924,-0.17403966403648066,9.353820498021994
305.74554520000004,-0.40441515484399054,-0.5397798034955421,9.819148564412705
306.24554520000004,-1.784945594522486,-0.71976102957423,9.244268921275815
306.74554520000004,-0.7709660014964912,-1.0471473605690569,9.579187538530553
307.24554520000004,-2.2260455128187564,-0.8617804705334556,9.638641164449218
307.74554520000004,-0.766054252592993,-0.7311147354992269,9.764136180685938
308.24554520000004,-2.234627164753037,-0.5165923125408614,9.60204811096919
308.74554520000004,-0.8490526607865121,-0.41435091090135046,9.3981116486851
309.24554520000004,-1.9156615805130728,-0.4729609266653474,9.558248700136673
309.74554520000004,-0.4191975735521105,-0.3163556592769407,9.380348910063809
310.24554520000004,-2.1011459233041414,-0.25234498367983654,9.660767101830718
310.74554520000004,0.10265060007266338,-0.6624391421439636,9.538252898615749
311.24554520000004,-1.788062503267316,-0.07349591204635714,10.028665729623112
311.74554520000004,0.5129670853375834,1.3375070242763232,9.174562379014953
312.24554520000004,-2.185709378942863,2.0806054231905056,9.527890662744294
312.74554520000004,-0.8167095635750108,1.2890472981485879,9.277783941264664
313.24554520000004,-1.5235130177594014,0.015614223310723546,9.978074039350396
313.74534520000003,-0.5081045538152394,0.19947428088032576,9.301441619663164
314.24554520000004,-1.5266668497575402,-0.07369420558415579,9.849111486032369
314.74554520000004,-0.3722069066285577,-0.053806778665039134,9.519101609718362
315.24554520000004,-1.637732638515184,-0.14060865427676103,9.957502843802464
315.74554520000004,-0.5779182332247214,-0.46708718420408557,9.384839233564076
316.24554520000004,-1.0437382886496052,-0.19315626711168293,9.592941256282643
316.74554520000004,-0.768495868961462,-0.5429870623727306,9.776857535651887
317.24554520000004,-0.6389428050809407,0.11515587351707528,9.278717787601973
317.7451452,-1.6627537891805781,-0.6920129550960258,11.039425885737385
318.24554520000004,-0.651345229688078,0.4832327853254393,9.03514313234006
318.74554520000004,-2.425105166326125,0.002706624729993882,10.36167873542859
319.24554520000004,-0.3000942103767751,-0.05796974958846216,9.087314379714725
319.74554520000004,-2.151026577641691,-0.023313910823395352,8.663003163004394
320.24534520000003,-1.661415318758934,-0.5771756102468206,9.725953560885
320.74554520000004,-0.19196942376064466,-0.06687660938200604,9.907639498707516
321.24554520000004,-1.4638213462941891,0.1336524265093917,9.487145542624532
321.74554520000004,-1.5866455136129005,-0.09075778760612974,9.645841830018036
322.24534520000003,0.3669106434440994,-0.07578779184335599,9.493227686487531
322.74534520000003,-1.7208042820325287,-0.3413580129242205,10.193163669633929
323.24554520000004,-0.760073019163555,0.03715301613802757,9.202400394191505
323.74554520000004,-1.1539380196121716,-0.3432827936909089,9.213296982621465
324.24554520000004,-0.7103342874762363,-0.22314247089561998,10.19401775421631
324.74554520000004,0.985042505250988,0.12059858260898114,9.497018918238863
325.24554520000004,-0.9995024182629513,-0.0007658718362205729,9.428900171247056
325.74554520000004,-0.43007074603150314,-0.5157167578809363,9.606809718877463
326.24534520000003,-0.11177367036556078,-0.3148333851850296,9.626677526739433
326.74554520000004,-1.1824613398801642,-0.6898346239666381,10.13119860895971
327.24534520000003,-0.5287673875028654,-0.5780900482773784,9.541019679962305
327.7455452,-1.336636585286894,-0.0890959097255397,9.29451016351237
328.2455452,-0.9550925547122627,-0.2916616835180692,9.897057834991683
328.7455452,-0.1181988097796655,-0.2304558844737084,9.554408593346261
329.24534520000003,-1.665792864822469,-0.4663191745273925,10.002160516233989
329.7455452,-0.41629347495713576,-0.3869081213429944,9.428112756038926
330.2455452,-0.9443416310197824,-0.15761124277956828,9.045827838232166
330.75034912156866,-1.7125175548734775,-0.9795724973970498,10.149530138428403
331.25054520000003,-0.42283005769748977,-0.6665461222998875,9.601152772687163
331.7455452,-0.8903067291987276,-0.4208426865145542,9.200876286726082
332.2455452,-1.2974037684878976,-0.5813810459809311,9.662052992580806
332.7455452,-0.6311999437240939,-0.4637239317287136,10.067714432113501
333.2455452,-0.9453163277596092,-0.4802873473293387,9.172406403017279
333.7455452,-1.439481978849859,-0.7040462321443087,9.378223919409901
334.24534520000003,-0.45349377303838895,0.0822960889746118,9.852473989227285
334.7455452,-2.062752635686966,-0.3540188437630812,9.978901264823024
335.24534520000003,-1.3499427196534384,-0.08448454456771674,8.867089001221444
335.74534520000003,-0.6370292629800196,-0.13013231606579612,9.50842162237051
336.2455452,-2.0490116828499625,-0.3595337378754296,10.195205989130265
336.7455452,-0.5645563702651074,0.2372451595065982,8.823876100158204
337.2455452,-1.275846213241957,-0.04795429612801641,9.609679025787742
337.7455452,-1.1210638606947312,-0.32243740527481213,9.902307192823642
338.2455452,-0.6553787625415605,-0.24533600435793684,10.071778858692108
338.7455452,-1.0691404322234834,-0.28909786985258645,9.239763160104065
339.24534520000003,-1.3617060887697408,-0.6110860748672672,9.003010411134953
339.7455452,0.7287266816900025,-0.17042926435568986,10.50615817799575
340.2455452,-0.7677171506841074,1.211878818093739,9.033132170467304
340.7455452,-0.6060505417141757,2.934273521929815,9.02861465275487
341.2455452,0.05335700707601882,2.7134939168402004,9.448962064045318
341.74534520000003,-0.3216692747124286,2.63891550821645,8.623476610009272
342.2455452,-0.7984531359120127,1.1573380427483797,10.218809640738595
342.7455452,-0.662876475008424,0.7605871401116855,9.580303239892215
343.2455452,0.09321163598437537,0.22458223109083988,9.757209474698184
343.7455452,-0.2583103312586829,0.4341718245384659,9.581142659010474
344.2455452,-0.7946555620845114,0.5836673580505015,9.65897261003919
344.7455452,-0.923216762339,0.44766024093541207,9.524265683842273
345.2455452,-4.09345477770041,1.1150161702843397,8.596496666402283
345.7455452,1.3706176913160217,3.460816285769415,9.041181598015314
346.2455452,5.0162193519130325,3.57233282023713,7.83050716990796
346.7455452,5.082848737362475,3.569541161305543,6.736523796404728
347.2455452,5.484486280143931,2.8879046221521194,6.674648827390676
347.7455452,5.441225973544386,3.137037536917032,7.251037153340768
348.24514519999997,6.63602461958239,4.42884665383659,6.996635642694663
348.7455452,5.326714423440106,3.385079607857993,7.250582628796865
349.24534520000003,6.582135417157844,4.276298139893024,5.276260419006377
349.7455452,6.970809814330729,3.8317009297848212,6.096277711747049
350.2455452,6.254926592099384,3.7181630452860643,6.148469530925252
350.7455452,6.805824133457998,3.75071044963752,6.086505049316376
351.2455452,6.946543585602024,3.559180487642278,6.019748647495026
351.74534520000003,6.970174268875869,3.560121485378089,5.699289678501868
352.2455452,7.290130825140268,2.4227868148474228,5.696534805756512
352.7455452,7.368069009105795,2.4044860771265966,6.283961174294942
353.2455452,7.2531273128916816,2.8019444534494506,5.9008366717714935
353.7455452,7.039251840810196,3.595250558861238,6.451477276802909
354.2455452,7.605853647727165,0.7321987468530247,4.797004791829305
354.7455452,8.567463093299514,4.549373447569485,3.432153674213902
355.2455452,7.576684125311948,3.356734293020492,4.563004969319305
355.7455452,7.955393802055288,3.581429693509113,4.9126304052742595
356.2455452,7.939757189513034,2.381063691471509,4.868208893229911
356.7455452,5.65740782255661,3.9050554336174765,7.185421699122976
357.2455452,7.28514384933951,3.2237232296235327,7.01591189984876
357.7455452,7.3805791875593085,2.363481808272037,5.6163546940088125
358.2455452,7.12530820267463,3.8052602023555857,5.898663875452129
358.7455452,7.440160618085274,3.9423619742312623,4.71132622721125
359.2455452,8.273612658488986,3.2722572660846394,5.446332153335792
359.74534520000003,7.983882011424946,3.143620792815643,4.643838211950073
360.2455452,7.4591126561999115,2.8917767445372244,5.431035937560527
360.7455452,6.9634723111199435,4.23516107845688,5.794820071508142
361.2455452,8.097682505245762,3.4207214800071757,4.295014825798016
361.7455452,8.872079093357767,2.6329689886466543,4.344116049169477
362.2455452,7.364925872937716,4.025880759951274,4.527737112728483
362.7455452,8.14475956475114,3.5642656879823904,4.76365899891752
363.2455452,7.726682765397998,3.275814978107279,4.927711166364602
363.7455452,7.511099498416986,3.7278568729320245,4.614828222920114
364.24534520000003,7.831832761841727,4.42015883425844,4.355504640454069
364.7455452,8.062309421019414,2.9552358401983962,4.524761068369119
365.2455452,7.558508054539203,4.3443744569070954,4.726927329881275
365.7455452,5.0713208119183495,1.7733499417605367,8.063106413072909
366.2455452,1.6186130638873266,-0.5402655053596515,9.643191226054473
366.7455452,-0.8845771902051541,0.5387727906695422,9.203345455529295
367.2455452,-1.1077024390478478,0.4395043663185333,9.474234277446715
367.7455452,-0.3879788668091686,0.7114167728899041,9.843470700358456
368.2455452,-0.729929794648897,0.788519425432551,9.360162075176085
368.7455452,-0.6049869678125812,0.5137183163039168,9.558507742174562
369.2455452,-0.5634287547956995,0.45929228567579683,9.43142980341112
369.7455452,-0.5841001323668781,-0.04688888934890876,9.716274077726068
370.2455452,-0.4892217367234823,0.11442655349395045,9.671674289539244
370.7455452,-0.688617631548258,0.7335255220603658,9.26383691627671
371.2455452,-0.5563998229494956,0.5811771262996238,9.58375849965851
371.7455452,-1.149321366910781,-0.5406405345446493,10.250329372609013
372.2455452,0.1945098087016567,-0.38898881983277006,9.496253955170577
372.7455452,-0.885372932712591,-0.018579100284800684,9.758071191710405
373.2455452,0.8295648097689232,-0.5281785649742143,9.66075401866504
373.74534520000003,-1.0074330785426533,-0.33039658354235174,9.141337218855202
374.2455452,-0.7107188382445395,0.2064624360936251,9.669669469460716
374.7455452,-1.762862881804904,-0.31950780935254114,9.725887532536989
375.24534520000003,-0.2777422536661019,-0.5485058502702284,10.461657223155344
375.7455452,-0.640242649269424,-0.35478499194274576,9.152823620218154
376.2455452,-1.6997716282088464,-0.2199347210335761,9.662581183151703
376.7455452,-1.6695281845604646,0.05801998245809816,9.980390831870894
377.2455452,-0.6067767040197639,-0.005831181023764456,9.373680053878577
377.7455452,-0.8669381416873637,0.05971966166768665,9.92486896261378
378.2455452,-1.4428960501726096,0.4688501673548411,9.983369776990582
378.7455452,-1.0660069394175684,0.3023102896397166,9.157783531422188
379.2455452,-1.1329269267054045,0.1932875272151179,9.819151686560591
379.7455452,-0.8903592160413971,0.26218509188038697,9.797993569936212
380.2455452,-1.2905850441256355,0.39640698111786454,9.504301465824172
380.7455452,0.008438363592608135,0.12695940271923908,9.482931521862184
381.24534520000003,-1.3059791139028787,0.4467180036455852,9.875221306168333
381.7455452,-0.008870204602009301,0.4944942277046254,9.322784033898348
382.2455452,-0.7299664185326944,0.20049562187769257,10.032568443489613
382.7455452,-0.043246313182668604,-0.23965254651612788,9.444202213529644
383.2455452,-1.110063584235247,-0.47236000901320674,10.382356455254383
383.7455452,-0.12859165838862519,0.19842980039143257,8.996272469704575
384.2455452,-0.6577885152387115,0.006406623558519338,9.712228232764962
384.7455452,0.3978221500758557,0.3641999139339337,9.40805959508756
385.2455452,-2.3153043359162395,1.0641305540714783,9.92788026713011
385.7455452,-0.7086572405966409,1.4236155903788914,8.979291424755948
386.2455452,-1.4738145535527674,0.5789933017815259,9.173473523838673
386.7455452,0.376609154019715,-0.11883363486701888,9.913249694442143
387.2455452,-0.554412579291341,0.16261455185054247,9.445165806010776
387.7455452,-0.42990109443014235,0.1289660949301968,9.621018966329423
388.24534520000003,-0.6451713983914393,0.4503528405826171,9.729596351750923
388.7455452,-1.0442751930933556,0.26655341030876795,10.055044490661473
389.2455452,-2.047740820886672,0.6140875593978647,8.665693483077037
389.74534520000003,-1.652395512647581,1.5170719907885664,9.644791741553567
390.2455452,-0.34794434216357284,0.6935310522181531,10.124527099397502
390.7455452,-0.7058416902538227,0.47519119897437817,9.612666518324255
391.2455452,-0.3954365336281346,0.6210136182441418,9.13877172257076
391.74534520000003,-1.813102178548251,0.34064923205246594,9.837743350318215
392.2455452,-1.1098854694978666,0.5307823009278767,9.55559779113404
392.7455452,-1.3521862981968684,0.3924478723221654,9.567870419856353
393.2455452,-0.707575013480758,0.4344981981042594,9.699994949937807
393.7455452,-0.7751616028527242,0.17328202039790824,9.866858078282874
394.2455452,-0.1237311318075371,0.37380581583168315,9.352610308511874
394.74514519999997,-1.0684562254403898,-0.052376808386316656,9.808390753670887
395.2455452,-0.6584702181552076,0.031490337941467626,9.178498213071007
395.74534520000003,-1.1646660564821614,0.8823151487958786,9.729996609248815
396.2455452,-0.025606157158531824,0.5153714212512486,9.314115913290388
396.7455452,-0.39032051179398436,0.2929057726110187,10.196247117184717
397.24534520000003,0.42848913748223666,0.49296603113054877,9.332517641241346
397.7455452,-1.3257922971219895,0.20472225720760615,10.043903495786092
398.24534520000003,-0.5273292779053115,0.5204002601353299,8.518227001074257
398.7455452,-1.8560523551469228,-0.1996115889693775,9.975711040423652
399.2455452,-0.35533682319367343,-0.32453223538360776,9.560510925608362
399.7455452,-1.6347439143162097,-0.47328522718464927,9.98454688590167
400.2455452,-0.314551786951043,-0.0013034420434252156,9.511526406417856
400.7455452,-1.7169043130237671,0.2455333670625146,10.0176763251675
401.2455452,-0.7254372794093585,0.6519142224938632,8.473004331869552
401.7455452,-1.1336264787226003,-0.33659818482701304,10.317516179647642
402.24534520000003,0.07838287415403455,-0.04102862272922041,9.303137634575767
402.7455452,-1.0425176758350783,-0.3766821604944731,9.957755780438609
403.2455452,-0.05333459083258949,-0.2634342334044461,9.472888620763298
403.7455452,-1.161600072452349,-0.4081787155208508,9.739985661351106
404.2455452,-0.5942241466495554,0.22376328218961716,9.165045686717809
404.7455452,-1.5054997120644649,0.6661008961847681,9.764208241161372
405.24534520000003,-0.509510746222422,0.4168196329485084,9.222279276700423
405.7455452,-0.68971452591854,0.34840049335785495,10.012371751424642
406.2455452,-0.32865264068667477,-0.04200328020380272,9.593972645338207
406.74514519999997,-0.6783206022470825,0.20046125115631186,9.336915902224865
407.2455452,-0.6952093937734548,-0.44144059666689417,10.082983547883508
407.7455452,-0.6190163030156648,0.1510081103721903,9.471721135729497
408.2455452,-0.882871411584229,-0.17977580121289474,9.793046529128667
408.74534520000003,-0.49779755145965543,0.010642901604762042,9.817690220461653
409.2455452,-0.9191948858470438,0.10645626545652821,9.542595481178443
409.7455452,-0.41899373078211755,0.16682564006760942,9.365157236003576
410.2455452,-1.460955156791913,-0.159423758157708,10.04617927594962
410.74534520000003,-0.3679845572878457,0.09119134219116865,9.420157142705547
411.2455452,-0.7149800669329308,0.3724443312171574,9.959649554272893
411.74534520000003,-0.3009589304398305,0.41503327554816755,9.172665433512222
412.2455452,-1.0142700328974699,0.017084295935482562,9.934805210878865
412.7455452,-0.5217763034737122,0.7149200894902097,9.4362748656553
413.2455452,-0.4709034498164235,-0.1922875056197162,9.623140676241793
413.7455452,-0.4741973966143798,-0.19660424802564117,9.4077942698884
414.24534520000003,-0.5511032004452209,-0.35762160164387297,9.780985342552658
414.7455452,-0.6098123297225196,-0.026425152190889638,9.764455907266615
415.24534520000003,-0.2797297337790197,0.3174761619790713,9.633121606685963
415.7455452,-0.7213193034380552,0.20130216362419717,9.83475919696662
416.2455452,0.036587881415938946,1.0459764435556627,9.287480693055597
416.7455452,-0.7809240729966122,0.4159255157684038,9.845716208139374
417.2455452,0.5740272846769146,-0.17260794833575172,9.39728900003296
417.7455452,-0.7948261978112106,-0.22996244357343504,9.684703264085268
418.2455452,0.18219550544387755,-0.050161755730534115,9.898392751302397
418.7455452,-0.5999023449199248,-0.2553362112067044,10.248679075062396
419.2455452,0.2384269404590691,0.42691530877221223,8.91197509110291
419.74534520000003,-0.30897916768336875,-0.15959153310613108,10.164161468975442
420.2455452,-0.3667067223729405,-0.1592380307313894,9.435607714682474
420.7455452,-0.16599558921191424,-0.0016435875574134496,9.735444216676933
421.2455452,-0.5550532698185915,-0.06366529110933536,9.605567157385156
421.7455452,-0.2727603405291473,0.030040270005372117,9.672980148546912
422.2455452,-0.5663449179964064,-0.22298650193714478,9.713124390148579
422.7455452,0.17781354185189716,-0.2401456881036701,9.661363738415615
423.2455452,-0.6752554057495419,-0.1509342417170979,9.696595564019168
423.7455452,0.14169618563434738,0.10584384227808318,9.136575976766231
424.2455452,-0.9648598728888573,-0.174796074089529,10.207154486123283
424.7455452,0.16970279070126384,-0.2761610970937988,9.57769131207949
425.2455452,-0.572528160717807,0.013454226819400655,9.487235853673814
425.7455452,0.2634826201873816,-0.33410697779828724,9.734959770368961
426.2455452,-0.45397021197111387,0.3661152113463014,9.321219191912482
426.7455452,0.3789834348249043,0.21121733157873263,9.763448948807259
427.2455452,-0.33116118163426095,-0.39765259856787194,9.745780253191967
427.7455452,0.41633809531909605,0.31681198322160503,9.354399753466748
428.2455452,-0.2816048578264003,-0.016212338447158255,9.630856423125213
428.7455452,0.025606528718418807,0.6167918220843345,10.199392754783485
429.2455452,0.4839324243930082,1.7500759704965096,9.232051300446269
429.7455452,0.041813779051024375,2.801123510518077,8.995523620305946
430.2455452,-0.10216581475372255,1.9984443321432277,9.374311656969143
430.7455452,-0.06215257375537455,0.9709293656093111,9.488505068282976
431.2455452,0.018859927206779772,0.6995439434257897,9.931680831612447
431.74534520000003,-0.40026492470564207,0.8458068452330633,9.422755094085366
432.24534520000003,-0.21855482280123106,1.1114191514060594,9.576501235271225
432.7455452,-0.07539130765051733,0.5842520524425645,9.920332390753396
433.2455452,0.6236958798875343,0.3822780000778374,9.413465652406092
433.7455452,-0.1907745674659957,0.2721303823110582,9.939333352742487
434.2455452,0.03853100889463097,1.477745280603368,9.29379460226061
434.7455452,-0.27119033336432263,0.8896523211955895,9.529932897302075
435.2455452,0.26178991129074985,0.4311864876659562,9.563528574292935
435.7455452,-0.40089068443432907,0.2528125741352722,9.667562242174343
436.2455452,-0.042739575746909314,0.4025589963490999,9.666100570400296
436.74534520000003,0.016022756911806546,0.4656876245328466,9.714640324402671
437.24534520000003,0.40065570077092216,0.25994683706253247,10.041321710010699
437.7455452,-0.2187829291420181,0.5075286468793795,9.29667598131681
438.2455452,-0.12862630695179386,0.23857022363933109,9.651262056669998
438.74534520000003,0.2416890790827266,0.47550613808401304,9.6218385268339
439.24534520000003,-0.23353724062484424,0.08702815920860912,9.919406706999336
439.7455452,0.4367276290168858,0.06566427752248977,9.503369544396817
440.2455452,-0.2239660236927702,0.004620573432191695,9.679576593235408
440.7455452,-1.3545357578062613,-0.06855039687370257,9.6083820481769
441.1405452,-1.0601025857026,0.6673477346577695,9.651370904856854
