"Time (s)","Acceleration x (m/s^2)","Acceleration y (m/s^2)","Acceleration z (m/s^2)"
4.916164000E-3,5.754738331E0,-4.785645306E-1,3.627519131E0
1.366324800E-2,5.479563713E0,-3.110669367E-2,3.297309637E0
2.366324800E-2,0.000000000E0,0.000000000E0,0.000000000E0
3.366324800E-2,0.000000000E0,0.000000000E0,0.000000000E0
4.366324800E-2,0.000000000E0,0.000000000E0,0.000000000E0
5.366324800E-2,2.031506538E0,4.331009090E-1,8.994620323E0
6.366324800E-2,1.019342422E0,1.251446247E0,1.024367332E1
7.366324800E-2,7.465606928E-1,1.517049551E0,1.130608654E1
8.366324800E-2,7.465606928E-1,1.517049551E0,1.130608654E1
9.366324800E-2,7.465606928E-1,1.517049551E0,1.130608654E1
1.036632480E-1,7.465606928E-1,1.517049551E0,1.130608654E1
1.136632480E-1,4.534399033E0,3.086741269E-1,1.023888779E1
1.236632480E-1,2.830709219E0,8.039883971E-1,8.590232849E0
1.336632480E-1,1.361516118E0,1.024128079E0,7.156932354E0
1.436632480E-1,1.210768223E0,1.198804140E0,6.204588890E0
1.536632480E-1,1.210768223E0,1.198804140E0,6.204588890E0
1.636632480E-1,1.210768223E0,1.198804140E0,6.204588890E0
1.736632480E-1,4.938786030E0,1.971685886E0,4.472185612E0
1.836632480E-1,5.819344521E0,1.560120344E0,4.809573650E0
1.936632480E-1,4.405186653E0,5.814558864E-1,4.733003139E0
2.036632480E-1,2.182254314E0,1.356730461E0,4.345366001E0
2.136632480E-1,7.704889178E-1,1.849651933E0,4.520041943E0
2.236632480E-1,7.704889178E-1,1.849651933E0,4.520041943E0
2.336632480E-1,1.031306505E0,1.397408366E0,5.776273727E0
2.436632480E-1,1.624726534E0,1.282552958E0,5.766702652E0
2.536632480E-1,3.278167009E0,1.335195065E0,6.285944939E0
2.636632480E-1,5.257031441E0,1.488335729E0,6.941578388E0
2.736632480E-1,5.819344521E0,1.478764415E0,7.374679565E0
2.836632480E-1,5.441278458E0,1.426122308E0,7.728816986E0
2.936632480E-1,3.905086517E0,1.935793519E0,8.054241180E0
3.036632480E-1,3.443271875E0,2.110469580E0,7.848458290E0
3.136632480E-1,3.443271875E0,2.478964329E0,7.740781307E0
3.236632480E-1,3.945764542E0,2.938386202E0,8.283951759E0
3.336632480E-1,4.283152580E0,3.146561861E0,8.896514893E0
3.436632480E-1,4.256831646E0,2.904886723E0,9.389435768E0
3.536632480E-1,3.713660717E0,2.778067112E0,9.501898766E0
3.636632480E-1,2.672782898E0,2.285145521E0,1.140658569E1
3.736632480E-1,1.895115495E0,2.689532757E0,1.237807178E1
3.836632480E-1,1.246660590E0,3.572484255E0,1.361755371E1
3.936632480E-1,9.212366939E-1,4.768895626E0,1.479960823E1
4.036632480E-1,9.212366939E-1,4.768895626E0,1.479960823E1
4.136632480E-1,3.900300860E-1,6.788437843E0,1.451725483E1
4.236632480E-1,2.727817893E-1,7.066005230E0,1.376590824E1
4.336632480E-1,2.727817893E-1,7.066005230E0,1.376590824E1
4.436632480E-1,2.727817893E-1,7.066005230E0,1.376590824E1
4.536632480E-1,2.727817893E-1,7.066005230E0,1.376590824E1
4.636632480E-1,2.727817893E-1,7.066005230E0,1.376590824E1
4.736632480E-1,-9.595218897E-1,-4.199403763E0,1.293320656E1
4.836632480E-1,1.385444283E0,-3.072384357E0,1.501256943E1
4.936632480E-1,4.814359188E0,-1.868794441E0,1.676890182E1
5.036632480E-1,4.814359188E0,-1.868794441E0,1.676890182E1
5.136632480E-1,4.814359188E0,-1.868794441E0,1.676890182E1
5.236632480E-1,6.498906136E0,-2.689532757E0,1.505803299E1
5.336632480E-1,5.053641319E0,-2.385644197E0,1.341655636E1
5.436632480E-1,5.053641319E0,-2.385644197E0,1.341655636E1
5.536632480E-1,2.801995277E0,-1.521835208E0,9.334401131E0
5.636632480E-1,1.284945726E0,-6.556333899E-1,7.609176159E0
5.736632480E-1,1.284945726E0,-6.556333899E-1,7.609176159E0
5.836632480E-1,3.589234054E-1,2.533999205E0,5.501099110E0
5.936632480E-1,9.140582681E-1,2.679961443E0,5.254638672E0
6.036632480E-1,1.378265858E0,1.947757602E0,4.953142643E0
6.136632480E-1,1.505085468E0,9.954141974E-1,4.919643402E0
6.236632480E-1,1.335195065E0,3.828516304E-1,5.190032482E0
6.336632480E-1,1.842473388E0,-6.939185411E-2,5.845665932E0
6.436632480E-1,2.340180635E0,-3.278166950E-1,7.874779224E0
6.536632480E-1,1.505085468E0,-9.092725813E-2,9.556933403E0
6.636632480E-1,1.069591761E0,-8.374879509E-2,1.035374355E1
6.736632480E-1,1.416550994E0,8.853443712E-2,1.045424175E1
6.836632480E-1,1.741974831E0,5.503492057E-2,1.042792130E1
6.936632480E-1,1.548156261E0,-2.057827413E-1,1.080359459E1
7.036632480E-1,1.442872047E0,-3.206382394E-1,1.112901783E1
7.136632480E-1,1.442872047E0,-3.206382394E-1,1.112901783E1
7.236632480E-1,1.442872047E0,-3.206382394E-1,1.112901783E1
7.336632480E-1,1.442872047E0,-3.206382394E-1,1.112901783E1
7.436632480E-1,1.442872047E0,-3.206382394E-1,1.112901783E1
7.536632480E-1,-9.667003751E-1,-2.775674164E-1,6.628118515E0
7.636632480E-1,-6.101697683E-1,3.493520916E-1,6.709474564E0
7.736632480E-1,2.009970993E-1,1.088734269E0,7.066005230E0
7.836632480E-1,2.009970993E-1,1.088734269E0,7.066005230E0
7.936632480E-1,2.009970993E-1,1.088734269E0,7.066005230E0
8.036632480E-1,4.498506486E-1,1.768295884E0,8.305487633E0
8.136632480E-1,3.828516230E-2,1.423729420E0,8.276773453E0
8.236632480E-1,-2.536391914E-1,9.714859724E-1,8.209774017E0
8.336632480E-1,-4.642075896E-1,6.125625968E-1,8.137989998E0
8.436632480E-1,-5.814558864E-1,3.589234054E-1,8.556734085E0
8.536632480E-1,-5.814558864E-1,3.589234054E-1,8.556734085E0
8.636632480E-1,-1.746760458E-1,1.720439434E0,1.065523911E1
8.736632480E-1,-4.666004181E-1,2.014756680E0,1.066720295E1
8.836632480E-1,-8.925228715E-1,2.096112728E0,1.055234814E1
8.936632480E-1,-1.270588875E0,2.098505497E0,1.058345413E1
9.036632480E-1,-1.521835208E0,2.084148407E0,1.071266651E1
9.136632480E-1,-1.313659668E0,1.959721804E0,1.067198944E1
9.236632480E-1,2.584248483E-1,1.732403636E0,1.037288570E1
9.336632480E-1,8.087740541E-1,1.481157184E0,1.047577763E1
9.436632480E-1,1.191625714E0,1.256231904E0,1.057149029E1
9.536632480E-1,1.524227977E0,1.232303619E0,1.065045357E1
9.636632480E-1,1.773081541E0,1.380658627E0,1.059302616E1
9.736632480E-1,1.974078655E0,1.552941918E0,1.036092186E1
9.836632480E-1,2.120040894E0,1.548156261E0,1.003310490E1
9.936632480E-1,3.069991350E0,1.069591761E0,9.671789169E0
1.003663248E0,3.658625841E0,8.159525394E-1,9.659825325E0
1.013663248E0,3.751945972E0,6.173482537E-1,1.003310490E1
1.023663248E0,3.213560820E0,3.254238665E-1,1.066002464E1
1.033663248E0,2.514856577E0,-2.632104978E-2,1.112423229E1
1.043663248E0,2.009970903E0,-3.038884699E-1,1.129890823E1
1.053663248E0,1.684547186E0,-4.402793646E-1,1.136112213E1
1.063663248E0,7.848458290E-1,-7.154539824E-1,1.242592812E1
1.073663248E0,7.393822074E-1,-1.045663476E0,1.311984634E1
1.083663248E0,1.213161111E0,-1.368694544E0,1.316530991E1
1.093663248E0,1.847259045E0,-1.330409408E0,1.290927792E1
1.103663248E0,2.088934183E0,-1.148554921E0,1.225843048E1
1.113663248E0,1.990828395E0,-9.044869542E-1,1.136590767E1
1.123663248E0,1.696511269E0,-4.259224236E-1,1.058824062E1
1.133663248E0,1.696511269E0,-4.259224236E-1,1.058824062E1
1.143663248E0,1.696511269E0,-4.259224236E-1,1.058824062E1
1.153663248E0,1.696511269E0,-4.259224236E-1,1.058824062E1
1.163663248E0,1.696511269E0,-4.259224236E-1,1.058824062E1
1.173663248E0,2.155933142E0,-2.368894368E-1,8.846264839E0
1.183663248E0,2.469393015E0,-9.762716293E-1,9.150154114E0
1.193663248E0,2.892922640E0,-1.464407444E0,9.183652878E0
1.203663248E0,2.892922640E0,-1.464407444E0,9.183652878E0
1.213663248E0,2.892922640E0,-1.464407444E0,9.183652878E0
1.223663248E0,3.395415306E0,-4.666004181E-1,8.549555779E0
1.233663248E0,3.074777126E0,-8.853443712E-2,8.413164139E0
1.243663248E0,2.639283419E0,2.033899277E-1,8.236095428E0
1.253663248E0,2.012363911E0,4.259224236E-1,7.554141045E0
1.263663248E0,1.813759565E0,7.345965505E-1,7.178467751E0
1.273663248E0,1.813759565E0,7.345965505E-1,7.178467751E0
1.283663248E0,2.486142635E0,8.638089895E-1,6.592226505E0
1.293663248E0,2.514856577E0,6.699903607E-1,6.293123722E0
1.303663248E0,2.457428932E0,6.101697683E-1,6.111268997E0
1.313663248E0,2.210968018E0,6.819544435E-1,6.142375946E0
1.323663248E0,1.847259045E0,8.207381964E-1,6.417550564E0
1.333663248E0,1.244267821E0,1.012163997E0,7.099504948E0
1.343663248E0,2.560320199E-1,1.366301775E0,8.420342445E0
1.353663248E0,4.187439680E-1,1.629512191E0,8.743373871E0
1.363663248E0,6.747759581E-1,1.758724689E0,8.891729355E0
1.373663248E0,1.052842021E0,1.797009826E0,8.872586250E0
1.383663248E0,1.289731383E0,1.746760488E0,8.726624489E0
1.393663248E0,1.368694544E0,1.646261930E0,8.609375954E0
1.403663248E0,1.409372568E0,1.579262972E0,8.532805443E0
1.413663248E0,1.292124271E0,1.837687731E0,9.025727272E0
1.423663248E0,1.033699393E0,2.033899307E0,9.657432556E0
1.433663248E0,6.628118753E-1,2.033899307E0,1.013121128E1
1.443663248E0,2.416750938E-1,1.952543259E0,1.038724327E1
1.453663248E0,-8.853443712E-2,1.741974831E0,1.059302616E1
1.463663248E0,-1.339980662E-1,1.395015597E0,1.079641533E1
1.473663248E0,1.028913707E-1,1.060020447E0,1.113380337E1
1.483663248E0,8.207381964E-1,2.273181528E-1,1.208854008E1
1.493663248E0,1.150947690E0,3.828516230E-2,1.223450184E1
1.503663248E0,1.454836130E0,1.292124242E-1,1.231585789E1
1.513663248E0,1.789831281E0,4.163511395E-1,1.236371422E1
1.523663248E0,2.146361828E0,7.393822074E-1,1.223689461E1
1.533663248E0,2.481357098E0,1.024128079E0,1.174875927E1
1.543663248E0,2.500499725E0,1.244267821E0,1.082991505E1
1.553663248E0,8.327022791E-1,9.786644578E-1,8.592626572E0
1.563663248E0,8.327022791E-1,9.786644578E-1,8.592626572E0
1.573663248E0,8.327022791E-1,9.786644578E-1,8.592626572E0
1.583663248E0,8.327022791E-1,9.786644578E-1,8.592626572E0
1.593663248E0,8.327022791E-1,9.786644578E-1,8.592626572E0
1.603663248E0,9.403793216E-1,-2.344966233E-1,1.309113312E1
1.613663248E0,1.234696507E0,-6.532405615E-1,1.300259781E1
1.623663248E0,1.234696507E0,-6.532405615E-1,1.300259781E1
1.633663248E0,1.234696507E0,-6.532405615E-1,1.300259781E1
1.643663248E0,1.234696507E0,-6.532405615E-1,1.300259781E1
1.653663248E0,6.580262184E-1,-1.469193101E0,9.592825890E0
1.663663248E0,3.828516304E-1,-1.332802176E0,8.939585686E0
1.673663248E0,2.321037948E-1,-9.643075466E-1,8.350951195E0
1.683663248E0,1.579262912E-1,-4.642075896E-1,7.927421570E0
1.693663248E0,1.579262912E-1,-4.642075896E-1,7.927421570E0
1.703663248E0,1.579262912E-1,-4.642075896E-1,7.927421570E0
1.713663248E0,1.083948612E0,3.158525825E-1,9.300901413E0
1.723663248E0,1.378265858E0,1.268195957E-1,9.533005714E0
1.733663248E0,1.605584025E0,-2.392822690E-2,9.492327690E0
1.743663248E0,1.720439434E0,-5.982056633E-2,9.305686951E0
1.753663248E0,1.718046665E0,1.674975827E-2,8.915657043E0
1.763663248E0,1.715653777E0,6.532405615E-1,8.037490845E0
1.773663248E0,1.694118381E0,9.427721500E-1,7.520641804E0
1.783663248E0,1.607976794E0,1.205982566E0,7.195217609E0
1.793663248E0,1.593619823E0,1.383051515E0,7.075576782E0
1.803663248E0,1.581655741E0,1.459621787E0,7.099504948E0
1.813663248E0,1.605584025E0,1.416550994E0,7.240681171E0
1.823663248E0,1.703689694E0,1.289731383E0,7.322037220E0
1.833663248E0,1.926222205E0,1.170090318E0,7.391428947E0
1.843663248E0,1.990828395E0,1.112662554E0,7.353144169E0
1.853663248E0,1.947757602E0,1.095912814E0,7.451249599E0
1.863663248E0,1.761117458E0,1.177268744E0,7.774280548E0
1.873663248E0,1.445264935E0,1.263410330E0,8.142775536E0
1.883663248E0,1.215553880E0,1.505085468E0,8.688339233E0
1.893663248E0,1.110269666E0,1.773081541E0,9.274580956E0
1.903663248E0,1.110269666E0,1.773081541E0,9.274580956E0
1.913663248E0,1.110269666E0,1.773081541E0,9.274580956E0
1.923663248E0,1.110269666E0,1.773081541E0,9.274580956E0
1.933663248E0,1.213161111E0,1.892722726E0,9.083154678E0
1.943663248E0,9.643075466E-1,1.971685886E0,9.229117393E0
1.953663248E0,7.537391186E-1,2.050648928E0,9.607182503E0
1.963663248E0,6.508477330E-1,2.088934183E0,1.020060253E1
1.973663248E0,6.508477330E-1,2.088934183E0,1.020060253E1
1.983663248E0,6.508477330E-1,2.088934183E0,1.020060253E1
1.993663248E0,6.508477330E-1,2.088934183E0,1.020060253E1
2.003663248E0,8.662018180E-1,2.258824587E0,1.071745300E1
2.013663248E0,8.542376757E-1,2.275574446E0,1.019581699E1
2.023663248E0,8.063812256E-1,2.266003132E0,9.896714211E0
2.033663248E0,8.757730722E-1,2.129612207E0,9.841679573E0
2.043663248E0,8.757730722E-1,2.129612207E0,9.841679573E0
2.053663248E0,2.737389088E0,1.921436548E0,1.012642574E1
2.063663248E0,3.352344513E0,2.017149448E0,1.012642574E1
2.073663248E0,3.448057413E0,1.895115495E0,1.043509960E1
2.083663248E0,3.065205812E0,1.531406522E0,1.061695385E1
2.093663248E0,2.600998163E0,1.136590719E0,1.039442158E1
2.103663248E0,2.321038008E0,7.992027402E-1,9.985248566E0
2.113663248E0,2.287538528E0,5.455635786E-1,1.049491978E1
2.123663248E0,2.395215511E0,4.331009090E-1,1.138265705E1
2.133663248E0,2.538784742E0,3.900300860E-1,1.201436234E1
2.143663248E0,2.768495798E0,2.967100143E-1,1.209811115E1
2.153663248E0,2.828316450E0,2.057827413E-1,1.191386414E1
2.163663248E0,2.612962246E0,1.076770201E-1,1.157169056E1
2.173663248E0,2.297109842E0,2.392822690E-2,1.116969585E1
2.183663248E0,2.742174864E0,7.657032460E-2,9.920642853E0
2.193663248E0,2.665604353E0,2.249253243E-1,9.681360245E0
2.203663248E0,2.299502611E0,3.062812984E-1,9.650253296E0
2.213663248E0,1.840080619E0,3.708875179E-1,1.001874828E1
2.223663248E0,1.136590719E0,3.421736360E-1,1.048534870E1
2.233663248E0,5.838487148E-1,2.488535494E-1,1.067677498E1
2.243663248E0,2.967100143E-1,1.507478207E-1,1.062652493E1
2.253663248E0,4.618147612E-1,9.571290575E-3,1.015992451E1
2.263663248E0,6.197410822E-1,-1.196411345E-2,9.736394882E0
2.273663248E0,8.063812256E-1,-8.853443712E-2,9.238688469E0
2.283663248E0,1.153340459E0,4.785645287E-3,8.724231720E0
2.293663248E0,1.552941918E0,2.943171859E-1,8.437092781E0
2.303663248E0,1.840080619E0,5.886343718E-1,8.257631302E0
2.313663248E0,1.902294040E0,7.944171429E-1,8.140382767E0
2.323663248E0,1.344766378E0,9.762716293E-1,7.889136314E0
2.333663248E0,9.451649189E-1,1.158126116E0,7.611568928E0
2.343663248E0,9.547362328E-1,1.392622828E0,7.343572617E0
2.353663248E0,8.135597110E-1,1.619940877E0,6.984649181E0
2.363663248E0,7.250252366E-1,1.789831281E0,6.702296257E0
2.373663248E0,1.452443361E0,2.084148407E0,6.671189308E0
2.383663248E0,1.844866276E0,2.143969059E0,6.831508636E0
2.393663248E0,1.844866276E0,2.143969059E0,6.831508636E0
2.403663248E0,1.844866276E0,2.143969059E0,6.831508636E0
2.413663248E0,1.844866276E0,2.143969059E0,6.831508636E0
2.423663248E0,1.844866276E0,2.143969059E0,6.831508636E0
2.433663248E0,1.311266780E0,1.785045743E0,8.906085968E0
2.443663248E0,1.287338614E0,1.995614052E0,8.819944382E0
2.453663248E0,1.256231904E0,2.074577332E0,8.872586250E0
2.463663248E0,1.256231904E0,2.074577332E0,8.872586250E0
2.473663248E0,1.256231904E0,2.074577332E0,8.872586250E0
2.483663248E0,1.093519926E0,1.734796405E0,9.174081802E0
2.493663248E0,1.093519926E0,1.734796405E0,9.174081802E0
2.503663248E0,1.387837172E0,1.887937069E0,8.403593063E0
2.513663248E0,1.282552958E0,2.007578135E0,7.697710514E0
2.523663248E0,9.547362328E-1,2.191825628E0,7.046862602E0
2.533663248E0,1.292124242E-1,2.811566591E0,6.515655994E0
2.543663248E0,4.785645287E-3,3.115455151E0,7.192824841E0
2.553663248E0,2.871387079E-2,2.952743053E0,7.908278942E0
2.563663248E0,3.828516230E-2,2.531606436E0,8.293522835E0
2.573663248E0,6.460621208E-2,2.191825628E0,8.408378601E0
2.583663248E0,-2.632104978E-2,2.074577332E0,8.425128937E0
2.593663248E0,-5.503492057E-2,2.081755638E0,8.597412109E0
2.603663248E0,-5.503492057E-2,2.081755638E0,8.597412109E0
2.603663248E0,1.268195987E0,2.507678032E0,9.753145218E0
2.623663248E0,2.555534601E0,3.089133978E0,1.073659515E1
2.633663248E0,1.842473388E0,2.883351326E0,1.093519974E1
2.643663248E0,3.326023519E-1,2.256431818E0,1.086102200E1
2.653663248E0,-9.260223508E-1,1.703689694E0,1.069591713E1
2.663663248E0,-2.100898266E0,1.318445325E0,1.152861977E1
2.673663248E0,-1.639083505E0,5.551348329E-1,1.423490238E1
2.683663248E0,-2.703889608E-1,2.871387303E-1,1.467757416E1
2.693663248E0,9.188438654E-1,-3.828516304E-1,1.455554008E1
2.703663248E0,1.390229940E0,-1.007378340E0,1.404108334E1
2.713663248E0,1.584048629E0,-1.244267821E0,1.339502144E1
2.723663248E0,1.861616015E0,-1.069591761E0,1.293320656E1
2.733663248E0,1.885544300E0,-7.824530005E-1,1.234217930E1
2.743663248E0,1.560120344E0,-4.977070987E-1,9.968499184E0
2.753663248E0,9.379864931E-1,-3.780659735E-1,8.745766640E0
2.763663248E0,6.221338734E-2,-3.086741269E-1,8.324629784E0
2.773663248E0,-1.172483116E-1,-1.292124242E-1,8.338987350E0
2.783663248E0,3.086741269E-1,1.722832322E-1,8.401200294E0
2.793663248E0,9.810572863E-1,5.383850932E-1,9.219545364E0
2.803663248E0,1.710868239E0,8.566305041E-1,1.027717304E1
2.813663248E0,1.710868239E0,8.566305041E-1,1.027717304E1
2.823663248E0,1.710868239E0,8.566305041E-1,1.027717304E1
2.833663248E0,1.710868239E0,8.566305041E-1,1.027717304E1
2.843663248E0,1.710868239E0,8.566305041E-1,1.027717304E1
2.843663248E0,2.495713949E0,-1.722832322E-1,8.327022552E0
2.863663248E0,1.686939955E0,9.571290761E-2,7.542177200E0
2.873663248E0,1.232303619E0,3.373879790E-1,6.886543751E0
2.883663248E0,1.232303619E0,3.373879790E-1,6.886543751E0
2.893663248E0,1.406979680E0,2.608176768E-1,6.448657036E0
2.903663248E0,2.524427891E0,4.163511395E-1,6.214160442E0
2.913663248E0,4.412364960E0,1.110269666E0,5.697310925E0
2.923663248E0,5.864808083E0,1.794616938E0,5.572884083E0
2.933663248E0,6.075376511E0,1.674975872E0,5.721239090E0
2.943663248E0,5.539384365E0,1.155733347E0,5.668596745E0
2.953663248E0,4.491328239E0,8.039883971E-1,6.147161484E0
2.963663248E0,4.098905087E0,9.930213690E-1,6.608976364E0
2.973663248E0,4.082155228E0,1.196411371E0,7.302894592E0
2.983663248E0,4.108476639E0,1.198804140E0,7.853243828E0
2.993663248E0,4.287938118E0,1.131805062E0,8.075776100E0
3.003663248E0,4.599005222E0,1.167697430E0,7.917850018E0
3.013663248E0,4.680361271E0,1.160519004E0,6.742974281E0
3.023663248E0,4.034298897E0,1.562513232E0,5.560919762E0
3.033663248E0,3.634697676E0,1.914258122E0,6.829115868E0
3.043663248E0,3.208775282E0,2.531606436E0,8.654839516E0
3.053663248E0,2.907279491E0,3.211168051E0,1.072702408E1
3.063663248E0,1.538584948E0,2.983849764E0,1.175593758E1
3.073663248E0,7.872386575E-1,1.952543259E0,1.083709335E1
3.083663248E0,1.828116536E0,1.993221283E0,1.084427261E1
3.093663248E0,2.318645239E0,2.103291035E0,9.631111145E0
3.103663248E0,1.509871125E0,2.574677229E0,9.753145218E0
3.113663248E0,9.595218897E-1,3.400201082E0,1.017188931E1
3.123663248E0,1.038485050E0,4.309473515E0,1.069113159E1
3.133663248E0,1.148554921E0,5.058426857E0,1.100698376E1
3.143663248E0,1.787438512E0,5.493920803E0,1.071984577E1
3.153663248E0,2.316252232E0,5.314459324E0,9.901499748E0
3.163663248E0,3.675375462E0,4.256831646E0,9.671789169E0
3.173663248E0,3.675375462E0,4.256831646E0,9.671789169E0
3.183663248E0,3.675375462E0,4.256831646E0,9.671789169E0
3.193663248E0,3.675375462E0,4.256831646E0,9.671789169E0
3.203663248E0,2.060220242E0,3.031706333E0,1.295713425E1
3.213663248E0,6.860222340E0,1.923829436E0,1.162672520E1
3.223663248E0,9.645467758E0,7.680960894E-1,1.263649654E1
3.233663248E0,9.645467758E0,7.680960894E-1,1.263649654E1
3.243663248E0,9.645467758E0,7.680960894E-1,1.263649654E1
3.253663248E0,4.393222332E0,-2.919243574E-1,1.144726372E1
3.263663248E0,2.675175667E0,1.253839016E0,1.212921810E1
3.273663248E0,1.899901152E0,3.098705292E0,1.229671574E1
3.283663248E0,1.227517962E0,4.677968502E0,1.117926693E1
3.293663248E0,8.470591903E-1,5.130211830E0,9.552147865E0
3.303663248E0,8.470591903E-1,5.130211830E0,9.552147865E0
3.313663248E0,3.507878065E0,1.797009826E0,6.812366009E0
3.323663248E0,4.323830605E0,7.345965505E-1,7.482356548E0
3.333663248E0,4.438685894E0,-7.178468257E-2,8.200202942E0
3.343663248E0,4.058227062E0,-5.958128572E-1,8.580661774E0
3.353663248E0,3.670589924E0,-1.162911773E0,9.341579437E0
3.363663248E0,3.297309637E0,-1.167697430E0,9.521040916E0
3.373663248E0,1.753939033E0,7.944171429E-1,7.690532207E0
3.383663248E0,1.753939033E0,7.944171429E-1,7.690532207E0
3.393663248E0,-1.739582062E0,1.797009826E0,6.611369133E0
3.403663248E0,-2.112862349E0,2.785245657E0,6.592226505E0
3.413663248E0,-1.749153376E0,3.395415306E0,7.056434155E0
3.423663248E0,-1.538584948E0,4.010370731E0,7.116254330E0
3.433663248E0,-1.124626622E-1,3.780659676E0,6.585047722E0
3.443663248E0,8.685946465E-1,3.457628727E0,5.477170944E0
3.453663248E0,1.708475351E0,3.632304668E0,5.070391178E0
3.463663248E0,2.340180635E0,2.840280533E0,4.460221291E0
3.473663248E0,2.816352367E0,2.323430777E0,4.771288395E0
3.483663248E0,2.667997360E0,2.574677229E0,7.314858913E0
3.493663248E0,1.844866276E0,2.694318295E0,7.898707390E0
3.503663248E0,1.184447169E0,2.979064226E0,7.322037220E0
3.513663248E0,-2.871387079E-2,3.572484255E0,6.379265308E0
3.523663248E0,7.537391186E-1,3.038884640E0,5.824130535E0
3.533663248E0,1.435693622E0,3.005385160E0,5.276174068E0
3.543663248E0,1.584048629E0,3.414557934E0,4.905286312E0
3.553663248E0,5.407779217E-1,3.694518089E0,5.015356064E0
3.563663248E0,9.810572863E-2,3.407379389E0,6.061019897E0
3.573663248E0,7.489534616E-1,3.239881754E0,8.434700012E0
3.583663248E0,7.489534616E-1,3.239881754E0,8.434700012E0
3.593663248E0,7.489534616E-1,3.239881754E0,8.434700012E0
3.603663248E0,7.489534616E-1,3.239881754E0,8.434700012E0
3.613663248E0,2.213361025E0,1.775474429E0,1.066720295E1
3.623663248E0,2.852244616E0,2.359323025E0,1.016710377E1
3.633663248E0,2.175075769E0,2.478964329E0,1.023410225E1
3.643663248E0,1.272981644E0,2.533999205E0,1.027956581E1
3.653663248E0,1.272981644E0,2.533999205E0,1.027956581E1
3.663663248E0,1.272981644E0,2.533999205E0,1.027956581E1
3.673663248E0,5.742774606E-1,2.421536446E0,1.321795273E1
3.683663248E0,7.944171429E-1,2.615355253E0,1.256471157E1
3.693663248E0,8.757730722E-1,3.156133175E0,1.205982590E1
3.703663248E0,6.508477330E-1,3.522234917E0,1.158126163E1
3.713663248E0,1.866401732E-1,3.639483213E0,1.129172993E1
3.723663248E0,1.866401732E-1,3.639483213E0,1.129172993E1
3.733663248E0,1.086341500E0,2.483749866E0,1.232782269E1
3.743663248E0,2.409572363E0,1.773081541E0,1.198086262E1
3.753663248E0,2.555534601E0,9.164510965E-1,1.379462242E1
3.763663248E0,2.967100143E0,1.316052526E-1,1.453879070E1
3.773663248E0,3.321237803E0,-6.532405615E-1,1.445504189E1
3.783663248E0,3.680161238E0,-1.060020447E0,1.401236916E1
3.793663248E0,4.240081787E0,-8.446664214E-1,1.282313633E1
3.803663248E0,3.988835335E0,-3.661018610E-1,1.238525009E1
3.813663248E0,2.273181438E0,1.914258152E-1,1.112901783E1
3.823663248E0,3.421736360E-1,1.339980721E0,9.128618240E0
3.833663248E0,6.795616150E-1,2.421536446E0,8.709874153E0
3.843663248E0,1.052842021E0,2.175075769E0,8.458627701E0
3.853663248E0,2.404786825E0,5.168496966E-1,8.547162056E0
3.863663248E0,3.615555048E0,5.862415433E-1,8.642875671E0
3.873663248E0,4.216153622E0,1.048056364E0,8.874979019E0
3.883663248E0,4.661218643E0,4.618147612E-1,8.937192917E0
3.893663248E0,4.632504463E0,2.201396823E-1,9.597611427E0
3.903663248E0,4.268795490E0,6.460621357E-1,1.021974564E1
3.913663248E0,3.912265062E0,1.344766378E0,1.055474091E1
3.923663248E0,3.912265062E0,1.344766378E0,1.055474091E1
3.933663248E0,3.912265062E0,1.344766378E0,1.055474091E1
3.943663248E0,3.912265062E0,1.344766378E0,1.055474091E1
3.953663248E0,3.912265062E0,1.344766378E0,1.055474091E1
3.963663248E0,3.912265062E0,1.344766378E0,1.055474091E1
3.973663248E0,3.921836376E0,1.648654819E0,5.245067120E0
3.983663248E0,4.725824833E0,1.947757602E0,4.161118507E0
3.993663248E0,4.725824833E0,1.947757602E0,4.161118507E0
4.003663248E0,4.725824833E0,1.947757602E0,4.161118507E0
4.013663248E0,4.725824833E0,1.947757602E0,4.161118507E0
4.023663248E0,-2.677568436E0,4.680361271E0,7.513463020E0
4.033663248E0,-2.076970100E0,4.845465660E0,6.482156754E0
4.043663248E0,-1.380658627E0,4.850251675E0,5.608776093E0
4.053663248E0,-8.638089895E-1,4.491328239E0,5.240281582E0
4.063663248E0,-8.638089895E-1,4.491328239E0,5.240281582E0
4.073663248E0,4.900500774E0,4.046263218E0,6.120840549E0
4.083663248E0,4.759324074E0,4.740181446E0,7.688138962E0
4.093663248E0,2.199003935E0,3.706482172E0,8.860622406E0
4.103663248E0,4.402793646E-1,1.792224169E0,9.841679573E0
4.113663248E0,1.780260086E0,6.101697683E-1,1.175593758E1
4.123663248E0,4.187439442E0,2.081755698E-1,1.329691505E1
4.133663248E0,5.469992638E0,1.148554921E0,1.304088306E1
4.143663248E0,5.840879917E0,1.964507341E0,1.147358418E1
4.153663248E0,5.850451469E0,2.433500528E0,9.616754532E0
4.163663248E0,5.094319344E0,2.761317253E0,8.061419487E0
4.173663248E0,5.070391178E0,3.203989506E0,7.240681171E0
4.183663248E0,5.998806477E0,3.381058455E0,8.085348129E0
4.193663248E0,5.630311489E0,2.624926329E0,8.575876236E0
4.203663248E0,1.952543259E0,1.773081541E0,7.341179848E0
4.213663248E0,2.995813847E0,2.333002090E0,7.401000500E0
4.223663248E0,4.472185612E0,2.567498684E0,7.645068169E0
4.233663248E0,4.472185612E0,2.567498684E0,7.645068169E0
4.243663248E0,4.472185612E0,2.567498684E0,7.645068169E0
4.253663248E0,3.598805189E0,4.170690060E0,3.917050600E0
4.263663248E0,4.051048756E0,5.702096462E0,4.072584152E0
4.273663248E0,4.051048756E0,5.702096462E0,4.072584152E0
4.283663248E0,4.051048756E0,5.702096462E0,4.072584152E0
4.293663248E0,4.051048756E0,5.702096462E0,4.072584152E0
4.303663248E0,4.051048756E0,5.702096462E0,4.072584152E0
4.313663248E0,5.467599869E0,4.110869408E0,1.616112328E1
4.323663248E0,5.443671703E0,3.938585997E0,1.449093437E1
4.333663248E0,6.410371780E0,4.398007870E0,1.197607708E1
4.343663248E0,6.410371780E0,4.398007870E0,1.197607708E1
4.353663248E0,2.545963287E0,8.207381248E0,5.075176716E0
4.363663248E0,2.545963287E0,8.207381248E0,5.075176716E0
4.373663248E0,9.284151793E-1,5.584847927E0,6.364908218E0
4.383663248E0,9.284151793E-1,5.584847927E0,6.364908218E0
4.393663248E0,3.821337700E0,4.699503899E0,6.247660160E0
4.403663248E0,3.007778168E0,3.732803345E0,7.889136314E0
4.413663248E0,3.007778168E0,3.732803345E0,7.889136314E0
4.423663248E0,-2.368894368E-1,3.565305710E0,1.044706345E1
4.433663248E0,-3.996013701E-1,2.902493954E0,6.876972198E0
4.443663248E0,3.177668571E0,3.605983734E0,4.907679081E0
4.453663248E0,4.096512318E0,2.967100143E0,4.532006264E0
4.463663248E0,3.577269793E0,2.995813847E0,4.273581028E0
4.473663248E0,3.144168854E0,3.555734396E0,4.802394867E0
4.483663248E0,4.211368084E0,2.742174864E0,9.372686386E0
4.493663248E0,4.948357105E0,2.227717876E0,1.164108181E1
4.503663248E0,4.857429981E0,2.591426849E0,1.202632618E1
4.513663248E0,5.510670662E0,2.979064226E0,1.097109222E1
4.523663248E0,3.266202927E0,3.139383316E0,8.606983185E0
4.533663248E0,5.032105923E0,4.029513359E0,4.259224415E0
4.543663248E0,5.584847927E0,4.271188259E0,1.828116536E0
4.553663248E0,1.421336651E0,5.773880959E0,4.936393261E0
4.563663248E0,1.203589797E0,5.644668579E0,1.890329838E0
4.573663248E0,-2.048256159E0,5.577669621E0,-1.514656782E0
4.583663248E0,-5.338387489E0,6.068198204E0,-2.993421078E0
4.593663248E0,-9.080761909E0,6.625725746E0,-1.596012712E0
4.603663248E0,-9.080761909E0,6.625725746E0,-1.596012712E0
4.613663248E0,-4.350151539E0,4.900500774E0,1.116969585E1
4.623663248E0,-4.350151539E0,4.900500774E0,1.116969585E1
4.633663248E0,-4.350151539E0,4.900500774E0,1.116969585E1
4.643663248E0,-4.350151539E0,4.900500774E0,1.116969585E1
4.653663248E0,-4.350151539E0,4.900500774E0,1.116969585E1
4.663663248E0,-4.350151539E0,4.900500774E0,1.116969585E1
4.673663248E0,7.776673436E-1,6.922435760E0,7.948956966E0
4.683663248E0,6.915257573E-1,6.632904530E0,9.355937004E0
4.693663248E0,6.915257573E-1,6.632904530E0,9.355937004E0
4.703663248E0,6.915257573E-1,6.632904530E0,9.355937004E0
4.713663248E0,6.915257573E-1,6.632904530E0,9.355937004E0
4.723663248E0,-9.475577474E-1,8.784051895E0,8.894122124E0
4.733663248E0,-2.249253243E-1,8.410771370E0,8.721838951E0
4.743663248E0,2.112862349E0,5.840879917E0,9.760323524E0
4.753663248E0,5.094319344E0,2.677568436E0,1.198804188E1
4.763663248E0,5.094319344E0,2.677568436E0,1.198804188E1
4.773663248E0,5.094319344E0,2.677568436E0,1.198804188E1
4.783663248E0,5.094319344E0,2.677568436E0,1.198804188E1
4.793663248E0,1.240917778E1,-4.910071850E0,1.741017723E1
4.803663248E0,1.214836025E1,-3.809373617E0,1.476371574E1
4.813663248E0,8.580661774E0,-1.782652855E0,1.107159042E1
4.823663248E0,4.752145767E0,1.014556766E0,7.700103283E0
4.833663248E0,4.752145767E0,1.014556766E0,7.700103283E0
4.843663248E0,4.115654945E0,2.158325911E0,3.730410576E0
4.853663248E0,3.416950703E0,1.741974831E0,4.630111694E0
4.863663248E0,2.352144718E0,2.775674343E0,4.130012035E0
4.873663248E0,7.369893789E-1,3.833301783E0,4.441078663E0
4.883663248E0,-1.052841991E-1,4.484149456E0,4.292723656E0
4.893663248E0,1.579262912E-1,4.354937077E0,5.201996326E0
4.903663248E0,2.943171740E0,2.136790514E0,8.858229637E0
4.913663248E0,4.689932346E0,4.737788737E-1,1.089930725E1
4.923663248E0,4.577469826E0,-1.722832322E-1,1.212682533E1
4.933663248E0,3.022135019E0,1.227517962E0,1.218664551E1
4.943663248E0,2.696711063E0,1.808973908E0,1.356251907E1
4.953663248E0,1.818545222E0,9.499505758E-1,1.339023590E1
4.963663248E0,2.799602509E0,5.431707501E-1,1.340459251E1
4.973663248E0,3.694518089E0,-8.590233326E-1,1.097348499E1
4.983663248E0,4.642076015E0,-7.657032609E-1,9.760323524E0
4.993663248E0,4.725824833E0,-4.929214716E-1,9.221938133E0
5.003663248E0,4.180261135E0,-3.948157430E-1,8.743373871E0
5.013663248E0,4.019941807E0,-2.679961324E-1,9.198010445E0
5.023663248E0,3.455235958E0,6.699903309E-2,9.846465111E0
5.033663248E0,2.737389088E0,2.943171859E-1,9.590433121E0
5.043663248E0,2.737389088E0,2.943171859E-1,9.590433121E0
5.053663248E0,2.737389088E0,2.943171859E-1,9.590433121E0
5.063663248E0,2.737389088E0,2.943171859E-1,9.590433121E0
5.073663248E0,2.737389088E0,2.943171859E-1,9.590433121E0
5.083663248E0,2.737389088E0,2.943171859E-1,9.590433121E0
5.093663248E0,1.818545222E0,2.321037948E-1,7.917850018E0
5.103663248E0,7.848458290E-1,6.891329288E-1,9.154939651E0
5.113663248E0,7.848458290E-1,6.891329288E-1,9.154939651E0
5.123663248E0,7.848458290E-1,6.891329288E-1,9.154939651E0
5.133663248E0,7.848458290E-1,6.891329288E-1,9.154939651E0
5.143663248E0,2.823530734E-1,1.931007862E0,3.830909014E0
5.153663248E0,1.574477315E0,1.596012712E0,4.857429981E0
5.163663248E0,1.119840980E0,1.028913736E0,8.152346611E0
5.173663248E0,3.038884699E-1,1.177268744E0,1.057149029E1
5.183663248E0,3.038884699E-1,1.177268744E0,1.057149029E1
5.193663248E0,-3.196810961E0,7.178468108E-1,7.245467186E0
5.203663248E0,-1.239482164E0,1.184447169E0,3.857230186E0
5.213663248E0,-1.191625714E0,8.638089895E-1,2.806781054E0
5.223663248E0,-1.083948612E0,3.110669367E-2,4.127619267E0
5.233663248E0,2.667997360E0,3.852444589E-1,7.343572617E0
5.243663248E0,5.441278458E0,-6.460621208E-2,9.341579437E0
5.253663248E0,5.551348686E0,-3.500699520E0,1.225125217E1
5.263663248E0,4.465006828E0,-4.584648132E0,1.558206081E1
5.273663248E0,3.646661758E0,-5.424529076E0,1.696989822E1
5.283663248E0,4.783252239E0,-5.175675392E0,1.961875343E1
5.293663248E0,4.606183529E0,-5.816951752E0,1.804427528E1
5.303663248E0,7.161718369E0,-5.436492920E0,1.305763340E1
5.313663248E0,7.231110096E0,-4.383651257E0,1.082991505E1
5.323663248E0,3.969692707E0,-3.175275564E0,1.338544941E1
5.333663248E0,3.553341627E0,-2.541177750E0,1.377308750E1
5.343663248E0,2.526820660E0,-1.715653777E0,1.354098320E1
5.353663248E0,1.210768223E0,-1.036092162E0,1.274895859E1
5.363663248E0,5.240281820E-1,-4.139583111E-1,1.103809071E1
5.373663248E0,2.392822690E-2,1.483550072E-1,8.805587769E0
5.383663248E0,-4.115654826E-1,3.565305769E-1,6.352943897E0
5.393663248E0,5.742774606E-1,6.412764788E-1,4.823930264E0
5.403663248E0,1.464407444E0,8.015955687E-1,5.848058701E0
5.413663248E0,1.686939955E0,4.331009090E-1,7.022934437E0
5.423663248E0,1.629512191E0,-2.560320199E-1,8.616554260E0
5.433663248E0,1.131805062E0,-6.149554253E-1,9.647860527E0
5.443663248E0,2.488535494E-1,-6.053841114E-1,9.504291534E0
5.453663248E0,-9.667003751E-1,-2.584248483E-1,9.200403214E0
5.463663248E0,-2.117648125E0,4.331009090E-1,9.241081238E0
5.473663248E0,-1.806581140E0,3.254238665E-1,8.525627136E0
5.483663248E0,-1.148554921E0,6.723831892E-1,8.776873589E0
5.493663248E0,-1.148554921E0,6.723831892E-1,8.776873589E0
5.503663248E0,-1.148554921E0,6.723831892E-1,8.776873589E0
5.513663248E0,1.962114573E-1,-9.571290575E-3,9.198010445E0
5.523663248E0,3.445664644E-1,-1.076770201E-1,8.676374435E0
5.533663248E0,3.445664644E-1,-1.076770201E-1,8.676374435E0
5.543663248E0,3.445664644E-1,-1.076770201E-1,8.676374435E0
5.553663248E0,3.445664644E-1,-1.076770201E-1,8.676374435E0
5.563663248E0,3.445664644E-1,-1.076770201E-1,8.676374435E0
5.573663248E0,-1.411765337E0,1.914258122E0,6.833901405E0
5.583663248E0,-1.854437590E0,1.825723648E0,6.599404812E0
5.593663248E0,-2.074577332E0,1.954936147E0,6.685546398E0
5.603663248E0,-2.074577332E0,1.954936147E0,6.685546398E0
5.613663248E0,-9.667003751E-1,1.548156261E0,8.003992081E0
5.623663248E0,-1.359123230E0,1.294517040E0,8.166703224E0
5.633663248E0,-2.017149448E0,1.172483087E0,8.193024635E0
5.643663248E0,-2.495713949E0,1.155733347E0,7.958528042E0
5.653663248E0,-2.428714991E0,9.547362328E-1,7.527820110E0
5.663663248E0,-1.849651933E0,6.293123364E-1,7.360322475E0
5.673663248E0,-1.849651933E0,6.293123364E-1,7.360322475E0
5.683663248E0,1.122233868E0,-2.751746178E-1,1.034895802E1
5.693663248E0,9.116654396E-1,-8.231309652E-1,1.188754272E1
5.703663248E0,-1.674975902E-1,-1.088734269E0,1.271067429E1
5.713663248E0,-1.739582062E0,-8.015955687E-1,1.208136177E1
5.723663248E0,-2.510071039E0,-9.810572863E-2,1.076530933E1
5.733663248E0,-2.586641312E0,3.469592929E-1,9.961320877E0
5.743663248E0,-1.251446247E0,-6.915257573E-1,9.757930756E0
5.753663248E0,-3.828516230E-2,-8.757730722E-1,1.102373409E1
5.763663248E0,2.703889608E-1,-7.657032609E-1,1.194018459E1
5.773663248E0,-7.441678643E-1,-7.130611539E-1,1.204068375E1
5.783663248E0,-2.297109842E0,-9.523434043E-1,1.202393341E1
5.793663248E0,-3.223132133E0,-1.203589797E0,1.238764286E1
5.803663248E0,-3.223132133E0,-1.301695466E0,1.300499153E1
5.813663248E0,-1.323230863E0,-2.153540373E0,1.313181114E1
5.823663248E0,-8.997012973E-1,-2.603390932E0,1.339502144E1
5.833663248E0,-8.997012973E-1,-2.603390932E0,1.339502144E1
5.843663248E0,-7.776673436E-1,-2.139183521E0,1.432104397E1
5.853663248E0,-1.842473388E0,-1.586441398E0,1.403629780E1
5.863663248E0,-2.742174864E0,-1.655833244E0,1.362951756E1
5.873663248E0,-3.043670416E0,-1.557727575E0,1.312223911E1
5.883663248E0,-3.562912941E0,-1.866401672E0,1.204307652E1
5.893663248E0,-3.340380430E0,-2.225325108E0,1.149272728E1
5.903663248E0,-2.914458036E0,-2.462214470E0,1.089930725E1
5.913663248E0,-2.340180635E0,-2.557927370E0,1.043749237E1
5.923663248E0,-1.670190215E0,-2.352144718E0,1.030827999E1
5.933663248E0,-1.390229940E0,-1.959721804E0,1.053799057E1
5.943663248E0,-1.629512191E0,-1.483550072E0,1.109312534E1
5.953663248E0,-1.954936147E0,-2.464607358E-1,1.996810532E1
5.963663248E0,-2.428714991E0,3.110669553E-1,2.305245399E1
5.973663248E0,-2.373680115E0,1.914258152E-1,2.201157570E1
5.983663248E0,-2.663211584E0,-5.455635786E-1,1.637169266E1
5.993663248E0,-2.400001049E0,-5.527420044E-1,1.007378292E1
6.003663248E0,-1.311266780E0,2.009970993E-1,5.484349728E0
6.013663248E0,-4.307080805E-1,8.183453679E-1,3.450450182E0
6.023663248E0,1.107876897E0,4.881358147E-1,1.239482164E0
6.033663248E0,1.371087432E0,8.805587292E-1,1.421336651E0
6.043663248E0,1.588834286E0,1.194018483E0,1.603191137E0
6.053663248E0,1.378265858E0,1.337587833E0,1.497906923E0
6.063663248E0,1.014556766E0,1.459621787E0,1.351944804E0
6.073663248E0,6.556333899E-1,1.560120344E0,1.253839016E0
6.083663248E0,3.924229145E-1,1.576870084E0,1.194018483E0
6.093663248E0,3.924229145E-1,1.576870084E0,1.194018483E0
6.103663248E0,3.924229145E-1,1.576870084E0,1.194018483E0
6.113663248E0,3.924229145E-1,1.576870084E0,1.194018483E0
6.123663248E0,3.924229145E-1,1.576870084E0,1.194018483E0
6.133663248E0,3.589234129E-2,3.541377485E-1,4.594219685E0
6.143663248E0,2.536391914E-1,3.493520916E-1,6.668796539E0
6.153663248E0,4.570291340E-1,7.848458290E-1,9.705288887E0
6.163663248E0,4.570291340E-1,7.848458290E-1,9.705288887E0
6.173663248E0,4.570291340E-1,7.848458290E-1,9.705288887E0
6.183663248E0,-1.012163997E0,5.670989752E-1,8.920442581E0
6.193663248E0,-1.296909928E0,9.547362328E-1,1.019820976E1
6.203663248E0,-1.536192179E0,1.387837172E0,1.160519028E1
6.213663248E0,-2.081755638E0,1.828116536E0,1.247856998E1
6.223663248E0,-2.277967215E0,2.254039049E0,1.274417305E1
6.233663248E0,-2.277967215E0,2.254039049E0,1.274417305E1
6.243663248E0,-2.277967215E0,2.254039049E0,1.274417305E1
6.253663248E0,-5.670989752E-1,2.419143677E0,8.647661209E0
6.263663248E0,-7.992027402E-1,2.579462767E0,7.936992645E0
6.273663248E0,-7.968099117E-1,2.572284460E0,7.817351341E0
6.283663248E0,3.302095234E-1,2.069791555E0,7.664210796E0
6.293663248E0,1.689332843E0,1.280160069E0,7.975277901E0
6.303663248E0,4.141975880E0,-6.173482537E-1,1.051645565E1
6.313663248E0,4.646861553E0,-8.183453679E-1,1.269631672E1
6.323663248E0,4.137190342E0,-4.809573591E-1,1.438804245E1
6.333663248E0,2.885744095E0,-4.785645287E-3,1.462493229E1
6.343663248E0,1.371087432E0,4.689932466E-1,1.404108334E1
6.353663248E0,4.713860750E-1,1.842473447E-1,1.328973675E1
6.363663248E0,2.273181528E-1,-6.460621208E-2,1.320598793E1
6.373663248E0,6.628118753E-1,-3.828516304E-1,1.302891922E1
6.383663248E0,9.882357717E-1,-6.436693072E-1,1.326580906E1
6.393663248E0,9.619147182E-1,-1.473978758E0,1.314377499E1
6.403663248E0,7.417750359E-2,-2.246860504E0,1.231346512E1
6.413663248E0,2.392822690E-2,-2.916850805E0,1.192343521E1
6.423663248E0,-1.770688742E-1,-3.306880951E0,1.173679543E1
6.433663248E0,8.733802438E-1,-2.914458036E0,1.124626637E1
6.443663248E0,2.947957516E0,-1.265803218E0,9.183652878E0
6.453663248E0,2.385644197E0,-1.220339537E0,8.200202942E0
6.463663248E0,1.445264935E0,-1.440479279E0,7.755138397E0
6.473663248E0,5.527420044E-1,-1.332802176E0,7.841279984E0
6.483663248E0,-3.182454109E-1,-9.667003751E-1,8.185846329E0
6.493663248E0,-3.182454109E-1,-9.667003751E-1,8.185846329E0
6.503663248E0,-1.208375454E0,-7.704889178E-1,8.973084450E0
6.513663248E0,-1.208375454E0,-7.704889178E-1,8.973084450E0
6.523663248E0,-1.208375454E0,-7.704889178E-1,8.973084450E0
6.533663248E0,-1.208375454E0,-7.704889178E-1,8.973084450E0
6.543663248E0,-1.208375454E0,-7.704889178E-1,8.973084450E0
6.553663248E0,-1.014556766E0,-1.103091240E0,7.018148899E0
6.563663248E0,-1.167697430E0,-7.417750359E-1,7.080362320E0
6.573663248E0,-5.814558864E-1,-3.613162339E-1,6.817151546E0
6.583663248E0,-5.814558864E-1,-3.613162339E-1,6.817151546E0
6.593663248E0,-5.814558864E-1,-3.613162339E-1,6.817151546E0
6.603663248E0,-5.814558864E-1,-3.613162339E-1,6.817151546E0
6.613663248E0,-2.392822644E-3,-1.842473447E-1,6.642475605E0
6.623663248E0,-5.742774606E-1,-2.703889608E-1,6.616154671E0
6.633663248E0,-5.694918036E-1,-1.124626622E-1,6.489335060E0
6.643663248E0,-6.460621357E-1,-7.178467698E-3,6.920042992E0
6.653663248E0,-6.460621357E-1,-7.178467698E-3,6.920042992E0
6.663663248E0,-5.000999570E-1,-1.866401732E-1,8.932407379E0
6.673663248E0,-8.279166222E-1,-2.392822653E-1,9.315258980E0
6.683663248E0,-1.095912814E0,-6.939185411E-2,9.669396400E0
6.693663248E0,-1.368694544E0,3.110669553E-1,9.798608780E0
6.703663248E0,-1.730010748E0,6.173482537E-1,9.693324089E0
6.713663248E0,-2.024327993E0,4.905286431E-1,9.492327690E0
6.723663248E0,-4.043870270E-1,-4.402793646E-1,8.712266922E0
6.733663248E0,4.785645306E-1,-7.585247755E-1,8.506484032E0
6.743663248E0,1.148554921E0,-8.446664214E-1,8.784051895E0
6.753663248E0,1.395015597E0,-5.670989752E-1,9.509077072E0
6.763663248E0,7.657032609E-1,-7.657032460E-2,1.034895802E1
6.773663248E0,4.546362907E-2,4.426721931E-1,1.110748291E1
6.783663248E0,9.571290575E-3,7.393822074E-1,1.182293701E1
6.793663248E0,2.124826431E0,-8.135596663E-2,1.292124271E1
6.803663248E0,3.412165165E0,-1.184447169E0,1.264367485E1
6.813663248E0,3.381058455E0,-2.562713146E0,1.200239849E1
6.823663248E0,3.610769272E0,-3.402593851E0,1.183250809E1
6.833663248E0,3.672982693E0,-3.335594654E0,1.224407387E1
6.843663248E0,3.110669374E0,-2.799602509E0,1.338066387E1
6.853663248E0,2.127219439E0,-2.112862349E0,1.545524120E1
6.863663248E0,3.443271875E0,-2.213361025E0,1.662772369E1
6.873663248E0,4.532006264E0,-3.594019651E0,1.538345718E1
6.883663248E0,5.297709465E0,-5.316852093E0,1.397886944E1
6.893663248E0,5.501099110E0,-7.104290485E0,1.437607861E1
6.903663248E0,5.297709465E0,-8.142775536E0,1.552702618E1
6.913663248E0,4.256831646E0,-7.494320393E0,1.550309753E1
6.923663248E0,4.216153622E0,-6.388836384E0,1.557727528E1
6.933663248E0,1.902294040E0,-4.340580463E0,1.662293816E1
6.943663248E0,1.079162955E0,-3.194418192E0,1.675215149E1
6.953663248E0,2.656033039E-1,-2.309073925E0,1.643869209E1
6.963663248E0,-7.657032609E-1,-1.406979680E0,1.400997639E1
6.973663248E0,-1.423729420E0,6.101697683E-1,8.250452042E0
6.983663248E0,-1.091127157E0,2.481357098E0,5.608776093E0
6.993663248E0,-1.598405480E0,2.203789711E0,7.211967468E0
7.003663248E0,-1.598405480E0,2.203789711E0,7.211967468E0
7.013663248E0,-1.598405480E0,2.203789711E0,7.211967468E0
7.023663248E0,-1.598405480E0,2.203789711E0,7.211967468E0
7.033663248E0,-4.618147612E-1,2.342573404E0,3.029313564E0
7.043663248E0,-5.455635786E-1,1.911865234E0,1.820937991E0
7.053663248E0,-6.245267391E-1,1.500299811E0,1.234696507E0
7.063663248E0,-5.814558864E-1,1.095912814E0,9.188438654E-1
7.073663248E0,-5.814558864E-1,1.095912814E0,9.188438654E-1
7.083663248E0,-5.814558864E-1,1.095912814E0,9.188438654E-1
7.093663248E0,-5.814558864E-1,1.095912814E0,9.188438654E-1
7.103663248E0,6.388836384E0,-8.039883971E-1,5.781059742E0
7.113663248E0,5.795416355E0,-1.854437590E0,7.137789726E0
7.123663248E0,7.274180889E0,-2.103291035E0,9.509077072E0
7.133663248E0,7.747959614E0,-1.756331801E0,9.772287369E0
7.143663248E0,7.747959614E0,-1.756331801E0,9.772287369E0
7.153663248E0,7.747959614E0,-1.756331801E0,9.772287369E0
7.163663248E0,4.118047714E0,-8.350951076E-1,7.267002583E0
7.173663248E0,4.618147850E0,-5.048855543E-1,8.999405861E0
7.183663248E0,4.991427898E0,1.339980662E-1,1.047338486E1
7.193663248E0,4.931607246E0,8.781659007E-1,1.074377346E1
7.203663248E0,4.249652863E0,1.313659668E0,1.035374355E1
7.213663248E0,4.249652863E0,1.313659668E0,1.035374355E1
7.223663248E0,3.395415306E0,1.146162033E0,9.667003632E0
7.233663248E0,2.285145521E0,5.982056856E-1,9.796216011E0
7.243663248E0,1.823330879E0,3.397808075E-1,1.026760197E1
7.253663248E0,1.696511269E0,6.269195080E-1,1.111944675E1
7.263663248E0,1.308874011E0,1.318445325E0,1.172004509E1
7.273663248E0,1.268195987E0,1.945364833E0,1.124626637E1
7.283663248E0,1.268195987E0,1.945364833E0,1.124626637E1
7.293663248E0,2.940778971E0,2.469393015E0,6.963113785E0
7.303663248E0,3.122633457E0,2.354537487E0,5.702096462E0
7.313663248E0,3.608376503E0,2.285145521E0,5.046463013E0
7.323663248E0,3.984049797E0,2.249253273E0,4.838287354E0
7.333663248E0,4.350151539E0,2.342573404E0,4.766502857E0
7.343663248E0,4.675575256E0,2.361716032E0,4.785645485E0
7.353663248E0,5.888736725E0,1.481157184E0,4.610969067E0
7.363663248E0,6.192625046E0,1.165304661E0,4.709074974E0
7.373663248E0,6.199803352E0,9.379864931E-1,4.871787071E0
7.383663248E0,6.446264267E0,9.427721500E-1,5.285745144E0
7.393663248E0,7.034898758E0,1.002592683E0,6.183053493E0
7.403663248E0,7.767102242E0,1.052842021E0,7.271788120E0
7.413663248E0,8.008777618E0,1.043270707E0,8.291130066E0
7.423663248E0,6.501298904E0,7.657032460E-2,1.041356373E1
7.433663248E0,5.268995285E0,-8.350951076E-1,9.934999466E0
7.443663248E0,4.785645485E0,-1.741974831E0,9.286544800E0
7.453663248E0,4.895715237E0,-2.165504456E0,1.221775246E1
7.463663248E0,4.800002098E0,-1.897508383E0,1.476850128E1
7.473663248E0,4.488935471E0,-1.775474429E0,1.480200100E1
7.483663248E0,4.448257446E0,-1.500299811E0,1.248096275E1
7.493663248E0,4.907679081E0,1.799402595E0,4.632504463E0
7.503663248E0,4.922036171E0,2.490928411E0,5.967699528E0
7.513663248E0,3.570091486E0,1.028913736E0,4.881358147E0
7.523663248E0,3.656233072E0,7.345965505E-1,4.197010994E0
7.533663248E0,4.615755081E0,3.732803464E-1,6.807580471E0
7.543663248E0,5.115854740E0,-2.488535494E-1,8.733802795E0
7.553663248E0,4.584648132E0,-9.284151793E-1,9.281759262E0
7.563663248E0,9.523434043E-1,-1.019342422E0,8.066205025E0
7.573663248E0,1.143769264E0,1.483550072E-1,6.606583118E0
7.583663248E0,3.120240688E0,1.174875975E0,4.204189301E0
7.593663248E0,2.813959360E0,7.274180651E-1,2.361716032E0
7.603663248E0,2.754138947E0,1.986042857E-1,2.852244616E0
7.613663248E0,3.409772158E0,1.579262912E-1,5.481956482E0
7.623663248E0,3.409772158E0,1.579262912E-1,5.481956482E0
7.633663248E0,3.409772158E0,1.579262912E-1,5.481956482E0
7.643663248E0,3.409772158E0,1.579262912E-1,5.481956482E0
7.653663248E0,3.409772158E0,1.579262912E-1,5.481956482E0
7.663663248E0,3.409772158E0,1.579262912E-1,5.481956482E0
7.673663248E0,3.835694790E0,-2.225325108E-1,7.188039303E0
7.683663248E0,3.500699520E0,3.014956415E-1,6.637690067E0
7.693663248E0,3.500699520E0,3.014956415E-1,6.637690067E0
7.703663248E0,3.500699520E0,3.014956415E-1,6.637690067E0
7.713663248E0,3.500699520E0,3.014956415E-1,6.637690067E0
7.723663248E0,3.500699520E0,3.014956415E-1,6.637690067E0
7.733663248E0,5.120640397E-1,2.220539331E0,1.686461449E1
7.743663248E0,-1.354337573E0,1.380658627E0,2.227717972E1
7.753663248E0,-1.540977836E0,9.092726111E-1,2.351666069E1
7.763663248E0,-1.540977836E0,9.092726111E-1,2.351666069E1
7.773663248E0,-1.540977836E0,9.092726111E-1,2.351666069E1
7.783663248E0,1.081555843E0,2.890529871E0,5.070391178E0
7.793663248E0,-1.292124271E0,3.708875179E0,4.376472473E0
7.803663248E0,-3.122633457E0,5.257031441E0,4.448257446E0
7.813663248E0,-2.002792597E0,7.159325123E0,4.625326157E0
7.823663248E0,2.297109842E0,8.843872070E0,4.331008911E0
7.833663248E0,2.297109842E0,8.843872070E0,4.331008911E0
7.843663248E0,-5.285745144E0,6.403193474E0,4.730610371E0
7.853663248E0,-3.450450182E0,6.278766632E0,7.369893551E0
7.863663248E0,-1.127019525E0,4.108476639E0,7.611568928E0
7.873663248E0,3.996013701E-1,2.289931297E0,7.338787079E0
7.883663248E0,5.527420044E-1,2.445464849E0,8.999405861E0
7.893663248E0,-2.270788670E0,2.766103029E0,1.049970531E1
7.903663248E0,-2.270788670E0,2.766103029E0,1.049970531E1
7.913663248E0,-1.861616015E0,2.478964329E0,1.079641533E1
7.923663248E0,-8.063812256E-1,2.670390129E0,1.059302616E1
7.933663248E0,-1.572084427E0,2.483749866E0,1.116730309E1
7.943663248E0,-3.156133175E0,1.545763373E0,1.173440266E1
7.953663248E0,-4.185046673E0,6.580262184E-1,1.265324593E1
7.963663248E0,-4.728217602E0,-2.775674164E-1,1.400519085E1
7.973663248E0,-4.728217602E0,-2.775674164E-1,1.400519085E1
7.983663248E0,-2.514856577E0,-2.007578135E0,1.378265858E1
7.993663248E0,-1.873580098E0,-1.703689694E0,1.422533035E1
8.003663248E0,-2.392822742E0,-1.318445325E0,1.446700573E1
8.013663248E0,-3.527020693E0,-8.877372146E-1,1.465125275E1
8.023663248E0,-4.512863636E0,-5.958128572E-1,1.446461296E1
8.033663248E0,-6.032305717E0,-3.110669553E-1,1.388076401E1
8.043663248E0,-5.201996326E0,5.024927482E-2,9.748359680E0
8.053663248E0,-3.321237803E0,-2.584248483E-1,8.116454124E0
8.063663248E0,-1.385444283E0,-9.643075466E-1,7.537391186E0
8.073663248E0,-2.751746178E-1,-1.043270707E0,7.369893551E0
8.083663248E0,-4.522434771E-1,2.727817893E-1,8.575876236E0
8.093663248E0,-1.579262972E0,9.140582681E-1,8.884550095E0
8.103663248E0,-2.179861546E0,1.399801254E0,8.807980537E0
8.113663248E0,-1.036092162E0,1.292124271E0,9.793823242E0
8.123663248E0,6.364908218E-1,5.886343718E-1,1.005942631E1
8.133663248E0,1.730010748E0,2.033899277E-1,9.564111710E0
8.143663248E0,2.096112728E0,2.991028428E-1,8.676374435E0
8.153663248E0,1.775474429E0,7.417750359E-1,7.764709473E0
8.163663248E0,1.438086390E0,1.380658627E0,6.776473522E0
8.173663248E0,1.150947690E0,1.921436548E0,5.680561066E0
8.183663248E0,1.150947690E0,1.921436548E0,5.680561066E0
8.193663248E0,1.150947690E0,1.921436548E0,5.680561066E0
8.203663248E0,1.150947690E0,1.921436548E0,5.680561066E0
8.213663248E0,1.150947690E0,1.921436548E0,5.680561066E0
8.223663248E0,1.150947690E0,1.921436548E0,5.680561066E0
8.233663248E0,-1.103091240E0,2.431107759E0,1.061695385E1
8.243663248E0,-8.207381964E-1,2.608176708E0,1.023649502E1
8.253663248E0,-8.207381964E-1,2.608176708E0,1.023649502E1
8.263663248E0,-8.207381964E-1,2.608176708E0,1.023649502E1
8.273663248E0,-8.207381964E-1,2.608176708E0,1.023649502E1
8.283663248E0,1.485942841E0,1.957328916E0,4.869394302E0
8.293663248E0,1.323230863E0,1.899901152E0,5.572884083E0
8.303663248E0,7.537391186E-1,1.926222205E0,6.415157318E0
8.313663248E0,1.268195957E-1,1.811366796E0,7.066005230E0
8.323663248E0,1.268195957E-1,1.811366796E0,7.066005230E0
8.333663248E0,1.268195957E-1,1.811366796E0,7.066005230E0
8.343663248E0,-1.014556766E0,1.289731383E0,7.539783955E0
8.343663248E0,-1.014556766E0,1.289731383E0,7.539783955E0
8.363663248E0,-2.392822690E-2,8.685946465E-1,8.889336586E0
8.373663248E0,-1.986042857E-1,9.092726111E-1,9.597611427E0
8.383663248E0,-4.354937077E-1,1.198804140E0,1.030588722E1
8.393663248E0,-4.354937077E-1,1.198804140E0,1.030588722E1
8.403663248E0,4.570291340E-1,1.835294962E0,1.071745300E1
8.413663248E0,1.026520967E0,1.832902193E0,1.093519974E1
8.423663248E0,1.579262972E0,1.670190215E0,1.154536915E1
8.433663248E0,1.627119422E0,1.744367719E0,1.208854008E1
8.443663248E0,1.646261930E0,2.141576290E0,1.246660614E1
8.453663248E0,1.670190215E0,2.414358139E0,1.214118195E1
8.463663248E0,-5.982056633E-2,1.770688772E0,1.144726372E1
8.473663248E0,-9.906286001E-1,8.949156404E-1,1.197129154E1
8.483663248E0,-9.906286001E-1,8.949156404E-1,1.197129154E1
8.493663248E0,-2.720639229E0,-5.814558864E-1,1.408893967E1
8.503663248E0,-3.452843189E0,-8.877372146E-1,1.442393494E1
8.513663248E0,-3.653840065E0,-1.160519004E0,1.427079391E1
8.523663248E0,-3.041277647E0,-1.469193101E0,1.363908863E1
8.533663248E0,-2.675175667E0,-1.538584948E0,1.214836025E1
8.543663248E0,-3.330809116E0,-1.495514154E0,1.196172047E1
8.553663248E0,-3.469592810E0,-1.428515077E0,1.213400364E1
8.563663248E0,-3.445664644E0,-1.509871125E0,1.198804188E1
8.573663248E0,-3.881158352E0,-1.512263894E0,1.171525955E1
8.583663248E0,-4.433900356E0,-1.261017561E0,1.197129154E1
8.593663248E0,-4.421936035E0,-1.205982566E0,1.238046455E1
8.603663248E0,-3.833301783E0,-1.277767301E0,1.284227943E1
8.613663248E0,-3.541377544E0,-1.045663476E0,1.220818138E1
8.623663248E0,-3.285345554E0,-7.728816867E-1,1.126301575E1
8.633663248E0,-3.012563705E0,-3.230310678E-1,1.016231823E1
8.643663248E0,-3.230310678E0,1.148554832E-1,9.107083321E0
8.653663248E0,-3.771088600E0,6.747759581E-1,7.972885132E0
8.663663248E0,-4.185046673E0,1.383051515E0,6.707081795E0
8.673663248E0,-4.914857864E0,2.409572363E0,5.577669621E0
8.683663248E0,-5.111069202E0,2.301895380E0,5.874379635E0
8.693663248E0,-4.934000492E0,1.957328916E0,6.731009960E0
8.703663248E0,-4.328616142E0,1.347159147E0,7.747959614E0
8.713663248E0,-3.574877024E0,6.604190469E-1,8.470592499E0
8.723663248E0,-2.981456995E0,2.464607358E-1,8.640482903E0
8.733663248E0,-2.569891453E0,7.417750359E-2,8.255238533E0
8.743663248E0,-2.703889608E0,5.623133183E-1,6.482156754E0
8.753663248E0,-3.335594654E0,1.095912814E0,5.989234924E0
8.763663248E0,-4.063013077E0,8.662018180E-1,5.979663849E0
8.773663248E0,-3.940979004E0,3.397808075E-1,6.199803352E0
8.783663248E0,-3.232703447E0,6.221338734E-2,6.597012043E0
8.793663248E0,-2.852244616E0,-2.033899277E-1,6.807580471E0
8.803663248E0,-2.502892494E0,-4.259224236E-1,6.546762943E0
8.813663248E0,-2.502892494E0,-4.259224236E-1,6.546762943E0
8.823663248E0,-2.502892494E0,-4.259224236E-1,6.546762943E0
8.833663248E0,-2.502892494E0,-4.259224236E-1,6.546762943E0
8.843663248E0,-2.502892494E0,-4.259224236E-1,6.546762943E0
8.853663248E0,-2.196611166E0,-2.344966233E-1,7.618747234E0
8.863663248E0,-1.507478237E0,-1.555334777E-1,8.745766640E0
8.873663248E0,-1.344766378E0,2.560320199E-1,9.477970123E0
8.883663248E0,-1.344766378E0,2.560320199E-1,9.477970123E0
8.893663248E0,-1.344766378E0,2.560320199E-1,9.477970123E0
8.903663248E0,-1.344766378E0,2.560320199E-1,9.477970123E0
8.913663248E0,5.000999570E-1,1.387837082E-1,9.463613510E0
8.923663248E0,3.373879790E-1,4.594219327E-1,1.096391296E1
8.933663248E0,-9.690931439E-1,2.943171859E-1,1.146879864E1
8.943663248E0,-2.210968018E0,-3.828516230E-2,1.199522018E1
8.953663248E0,-2.210968018E0,-3.828516230E-2,1.199522018E1
8.963663248E0,-2.210968018E0,-3.828516230E-2,1.199522018E1
8.973663248E0,1.378265858E0,-5.886343718E-1,1.449093437E1
8.983663248E0,2.991028309E0,-3.349951655E-2,1.410568905E1
8.993663248E0,2.036292076E0,1.004985496E-1,1.243789196E1
9.003663248E0,-6.532405615E-1,-3.158525825E-1,1.058824062E1
9.013663248E0,-2.670390129E0,-3.373879790E-1,9.714859962E0
9.023663248E0,-2.670390129E0,-3.373879790E-1,9.714859962E0
9.033663248E0,-2.670390129E0,-3.373879790E-1,9.714859962E0
9.043663248E0,-2.670390129E0,-3.373879790E-1,9.714859962E0
9.053663248E0,-1.076770186E0,-2.318645239E0,1.849412537E1
9.063663248E0,-1.076770186E0,-2.318645239E0,1.849412537E1
9.073663248E0,-3.242274761E0,-2.321038008E0,1.547199154E1
9.083663248E0,-5.156532764E0,-1.684547186E0,1.175833035E1
9.093663248E0,-5.156532764E0,-1.684547186E0,1.175833035E1
9.103663248E0,-6.752545357E0,1.751546144E0,4.869394302E0
9.113663248E0,-5.709274769E0,2.584248543E0,5.845665932E0
9.123663248E0,-4.132404804E0,2.275574446E0,6.886543751E0
9.133663248E0,-2.483749866E0,1.899901152E0,7.884350777E0
9.143663248E0,-1.641476393E0,1.804188251E0,8.410771370E0
9.153663248E0,-2.366501570E0,1.646261930E0,8.250452042E0
9.163663248E0,-3.984049797E0,1.820937991E0,8.791230202E0
9.173663248E0,-3.620340586E0,1.775474429E0,8.939585686E0
9.183663248E0,-2.646461725E0,1.555334687E0,9.056833267E0
9.193663248E0,-1.392622828E0,1.117448211E0,8.999405861E0
9.203663248E0,-2.560320199E-1,9.523434043E-1,8.791230202E0
9.213663248E0,2.632105052E-1,8.614161611E-1,8.305487633E0
9.223663248E0,3.684946895E-1,3.589234054E-1,7.116254330E0
9.233663248E0,5.551348329E-1,-3.517449200E-1,5.891129494E0
9.243663248E0,6.532405615E-1,-2.751746178E-1,6.379265308E0
9.253663248E0,5.694918036E-1,-1.962114573E-1,6.891329288E0
9.263663248E0,4.953143001E-1,-1.292124242E-1,7.556533813E0
9.273663248E0,3.230310678E-1,-7.178467698E-3,8.377271652E0
9.283663248E0,1.914258152E-1,-1.579262912E-1,8.410771370E0
9.293663248E0,7.226324677E-1,-2.751746178E-1,7.680960655E0
9.303663248E0,7.800601721E-1,4.426721931E-1,5.453242779E0
9.313663248E0,8.614161611E-2,1.263410330E0,4.888536453E0
9.323663248E0,-1.363908887E0,1.414158225E0,4.369294167E0
9.333663248E0,-1.268195987E0,2.366501570E0,5.024927616E0
9.343663248E0,-7.680960894E-1,3.156133175E0,5.900700569E0
9.353663248E0,-3.110669553E-1,2.940778971E0,6.082555294E0
9.363663248E0,5.144568682E-1,2.514856577E0,5.879165173E0
9.373663248E0,1.756331801E0,1.205982566E0,5.154139996E0
9.383663248E0,1.648654819E0,1.160519004E0,5.462814331E0
9.393663248E0,3.852444589E-1,1.048056364E0,6.604190350E0
9.403663248E0,-2.488535494E-1,9.403793216E-1,8.417949677E0
9.413663248E0,-3.230310678E-1,1.016949654E0,1.021256733E1
9.423663248E0,-3.852444589E-1,8.877372146E-1,1.177986622E1
9.433663248E0,3.684946895E-1,4.689932466E-1,1.307677555E1
9.443663248E0,1.828116536E0,-3.349951655E-2,1.254078388E1
9.453663248E0,5.886343718E-1,-1.579262912E-1,1.169372463E1
9.463663248E0,-4.737788737E-1,2.344966233E-1,1.134676456E1
9.473663248E0,-1.775474429E0,4.689932466E-1,1.165543938E1
9.483663248E0,-2.088934183E0,8.183453679E-1,1.244746304E1
9.493663248E0,-3.278166950E-1,1.172483087E0,1.343091393E1
9.503663248E0,2.237289190E0,1.466800332E0,1.504606915E1
9.513663248E0,4.019941807E0,1.459621787E0,1.638844299E1
9.523663248E0,4.019941807E0,1.459621787E0,1.638844299E1
9.533663248E0,4.019941807E0,1.459621787E0,1.638844299E1
9.543663248E0,4.019941807E0,1.459621787E0,1.638844299E1
9.553663248E0,-8.458627701E0,3.637090325E-1,1.149033451E1
9.563663248E0,-8.673981667E0,-7.896314561E-2,1.257667542E1
9.573663248E0,-7.295716286E0,-7.896314859E-1,1.471585941E1
9.583663248E0,-7.295716286E0,-7.896314859E-1,1.471585941E1
9.593663248E0,-7.295716286E0,-7.896314859E-1,1.471585941E1
9.603663248E0,-7.295716286E0,-7.896314859E-1,1.471585941E1
9.613663248E0,-2.129612207E0,-1.100698411E-1,1.241874981E1
9.623663248E0,-2.129612207E0,-1.100698411E-1,1.241874981E1
9.633663248E0,-2.746960402E0,2.392822690E-2,8.571090698E0
9.643663248E0,-2.325823545E0,-3.852444589E-1,8.915657043E0
9.653663248E0,-2.325823545E0,-3.852444589E-1,8.915657043E0
9.663663248E0,-2.325823545E0,-3.852444589E-1,8.915657043E0
9.673663248E0,-2.325823545E0,-3.852444589E-1,8.915657043E0
9.683663248E0,-1.895115495E0,-2.349751949E0,9.497113228E0
9.693663248E0,-2.402393818E0,-2.096112728E0,9.016156197E0
9.703663248E0,-2.304288149E0,-2.060220242E0,8.398807526E0
9.713663248E0,-1.718046665E0,-2.141576290E0,7.841279984E0
9.723663248E0,-1.718046665E0,-2.141576290E0,7.841279984E0
9.733663248E0,-5.647061467E-1,-1.859223247E0,5.998806477E0
9.743663248E0,-6.628118753E-1,-9.355936646E-1,5.587240696E0
9.753663248E0,-7.441678643E-1,1.507478207E-1,5.663811207E0
9.763663248E0,-8.973084688E-1,1.110269666E0,6.522834301E0
9.773663248E0,-1.280160069E0,1.579262972E0,7.563712597E0
9.783663248E0,-1.933400750E0,1.521835208E0,7.874779224E0
9.793663248E0,-2.600998163E0,1.483550072E0,8.819944382E0
9.803663248E0,-2.811566591E0,1.500299811E0,8.908478737E0
9.813663248E0,-2.950350285E0,1.517049551E0,8.425128937E0
9.823663248E0,-2.562713146E0,1.696511269E0,7.719245911E0
9.833663248E0,-2.031506538E0,1.866401672E0,6.675975323E0
9.843663248E0,-1.691725612E0,1.794616938E0,5.515456200E0
9.853663248E0,-1.076770186E0,1.701296926E0,4.666004181E0
9.863663248E0,-3.326023519E-1,2.409572363E0,4.232903481E0
9.873663248E0,-3.326023519E-1,2.409572363E0,4.232903481E0
9.883663248E0,1.196411327E-1,2.146361828E0,2.959921598E0
9.893663248E0,4.570291340E-1,2.167897224E0,2.909672260E0
9.903663248E0,2.679961324E-1,2.335394859E0,3.400201082E0
9.913663248E0,2.536391914E-1,2.586641312E0,3.871587038E0
9.923663248E0,3.996013701E-1,2.787638426E0,4.036691666E0
9.933663248E0,1.189232826E0,3.290131092E0,5.362315655E0
9.943663248E0,1.988435626E0,4.287938118E0,6.077769279E0
9.953663248E0,1.981257200E0,5.211567879E0,6.235695839E0
9.963663248E0,1.308874011E0,5.630311489E0,5.824130535E0
9.973663248E0,-8.446664214E-1,5.670989513E0,5.405386448E0
9.983663248E0,-4.137190342E0,4.950749874E0,5.548955917E0
9.993663248E0,-6.771687984E0,4.177868366E0,6.357729912E0
1.000366325E1,-1.094237804E1,2.210968018E0,1.011685371E1
1.001366325E1,-9.406186104E0,4.211367965E-1,1.216032505E1
1.002366325E1,-5.611168861E0,-1.770688742E-1,1.454118347E1
1.003366325E1,-1.969292998E0,1.292124242E-1,1.597687721E1
1.004366325E1,7.274180651E-1,9.619147182E-1,1.561795330E1
1.005366325E1,2.017149448E0,2.201396942E0,1.482353592E1
1.006366325E1,1.320838094E0,3.273381472E0,1.376830196E1
1.007366325E1,-7.042077065E0,1.962114573E0,8.702695847E0
1.008366325E1,-1.098544884E1,1.770688742E-1,7.420143127E0
1.009366325E1,-1.164347458E1,-8.662018180E-1,9.700503349E0
1.010366325E1,-1.059781170E1,-1.636690736E0,1.461296749E1
1.011366325E1,-1.059781170E1,-1.636690736E0,1.461296749E1
1.012366325E1,-6.297909260E0,-4.491328239E0,2.109991074E1
1.013366325E1,-5.319244862E0,-5.666203976E0,2.053520393E1
1.014366325E1,-4.740181446E0,-6.376872540E0,1.446461296E1
1.015366325E1,-4.543970108E0,-5.326423168E0,1.172243786E1
1.016366325E1,-4.778466702E0,-4.197010994E0,9.339186668E0
1.017366325E1,-4.725824833E0,-2.282752752E0,8.257631302E0
1.018366325E1,-4.725824833E0,-2.282752752E0,8.257631302E0
1.019366325E1,-3.160918713E0,-4.857429862E-1,8.915657043E0
1.020366325E1,-1.945364833E0,-5.168496966E-1,1.028435135E1
1.021366325E1,-1.945364833E0,-5.168496966E-1,1.028435135E1
1.022366325E1,-1.945364833E0,-5.168496966E-1,1.028435135E1
1.023366325E1,-1.945364833E0,-5.168496966E-1,1.028435135E1
1.024366325E1,-1.945364833E0,-5.168496966E-1,1.028435135E1
1.025366325E1,-1.945364833E0,-5.168496966E-1,1.028435135E1
1.026366325E1,-2.184647083E0,-2.009970993E-1,5.321637630E0
1.027366325E1,-2.648854733E0,-3.014956415E-1,5.991627693E0
1.028366325E1,-2.648854733E0,-3.014956415E-1,5.991627693E0
1.029366325E1,-2.648854733E0,-3.014956415E-1,5.991627693E0
1.030366325E1,-5.335994363E-1,4.331009090E-1,6.178267956E0
1.031366325E1,-8.757730722E-1,2.943171859E-1,5.084748268E0
1.032366325E1,-1.737189293E0,1.842473447E-1,4.893322468E0
1.033366325E1,-2.213361025E0,2.105683982E-1,5.087141037E0
1.034366325E1,-2.246860504E0,2.775674164E-1,5.505885124E0
1.035366325E1,-2.246860504E0,2.775674164E-1,5.505885124E0
1.036366325E1,-2.246860504E0,2.775674164E-1,5.505885124E0
1.037366325E1,-5.335994363E-1,1.720439434E0,5.170889854E0
1.038366325E1,-7.848458290E-1,1.397408366E0,4.553541660E0
1.039366325E1,-1.354337573E0,1.081555843E0,4.316651821E0
1.040366325E1,-1.897508383E0,1.390229940E0,4.342973232E0
1.041366325E1,-2.734996319E0,1.619940877E0,4.082155228E0
1.042366325E1,-2.289931297E0,2.799602509E0,4.584648132E0
1.043366325E1,-1.689332843E0,3.550948858E0,5.661418438E0
1.044366325E1,-1.136590719E0,3.407379389E0,6.123233318E0
1.045366325E1,-1.036092162E0,2.562713146E0,6.288337708E0
1.046366325E1,-1.363908887E0,1.710868239E0,6.283552170E0
1.047366325E1,-2.538784742E0,1.115055323E0,6.063412666E0
1.048366325E1,-4.194618225E0,6.723831892E-1,6.001199245E0
1.049366325E1,-5.247459888E0,9.068797827E-1,9.934999466E0
1.050366325E1,-4.029513359E0,9.355936646E-1,1.256231880E1
1.051366325E1,-1.651047587E0,9.858429432E-1,1.485225010E1
1.052366325E1,-5.503492057E-2,1.172483087E0,1.601516151E1
1.053366325E1,7.369893789E-1,1.007378340E0,1.567777443E1
1.054366325E1,9.116654396E-1,1.938186288E-1,1.412722492E1
1.055366325E1,-1.483550072E-1,-1.296909928E0,1.224646664E1
1.056366325E1,-2.892922640E0,-1.378265858E0,1.322034550E1
1.057366325E1,-3.548556089E0,5.670989752E-1,1.603909111E1
1.058366325E1,-3.806980848E0,2.273181438E0,1.816391754E1
1.059366325E1,-4.491328239E0,2.581855536E0,1.860419655E1
1.060366325E1,-5.623133183E0,1.572084427E0,1.749871254E1
1.061366325E1,-7.278966427E0,-2.871387079E-2,1.557966805E1
1.062366325E1,-8.592626572E0,-1.447657704E0,1.350030518E1
1.063366325E1,-1.008574772E1,-2.861815929E0,1.345005608E1
1.064366325E1,-9.255437851E0,-2.711068153E0,1.455554008E1
1.065366325E1,-7.673782349E0,-2.450250387E0,1.505564022E1
1.066366325E1,-6.240481377E0,-2.088934183E0,1.500539112E1
1.067366325E1,-4.945964336E0,-1.765903115E0,1.410808277E1
1.068366325E1,-3.763910055E0,-1.557727575E0,1.220818138E1
1.069366325E1,-2.895315409E0,-1.294517040E0,9.473184586E0
1.070366325E1,-3.376272678E0,-1.000199914E0,4.242474556E0
1.071366325E1,-3.584448338E0,-9.475577474E-1,3.996013880E0
1.072366325E1,-3.000599623E0,-1.021735311E0,5.139782906E0
1.073366325E1,-2.538784742E0,-1.301695466E0,6.654439926E0
1.074366325E1,-2.713460922E0,-1.428515077E0,7.927421570E0
1.075366325E1,-3.433700562E0,-9.427721500E-1,8.626125336E0
1.076366325E1,-4.642076015E0,-5.503492057E-2,8.327022552E0
1.077366325E1,-5.826523304E0,1.471585870E0,6.005984783E0
1.078366325E1,-5.826523304E0,1.471585870E0,6.005984783E0
1.079366325E1,-5.826523304E0,1.471585870E0,6.005984783E0
1.080366325E1,-5.826523304E0,1.471585870E0,6.005984783E0
1.081366325E1,-4.469792843E0,1.239482164E0,5.520241737E0
1.082366325E1,-3.900300980E0,1.564906001E0,7.362715244E0
1.083366325E1,-2.866601467E0,1.744367719E0,8.846264839E0
1.084366325E1,-2.866601467E0,1.744367719E0,8.846264839E0
1.085366325E1,-2.866601467E0,1.744367719E0,8.846264839E0
1.086366325E1,-2.866601467E0,1.744367719E0,8.846264839E0
1.087366325E1,-2.574677229E0,-1.189232826E0,9.382257462E0
1.088366325E1,-4.721039295E0,-1.813759565E0,7.879564762E0
1.089366325E1,-7.082755089E0,-2.670390129E0,6.233303070E0
1.090366325E1,-8.891729355E0,-4.161118507E0,4.706682205E0
1.091366325E1,-8.891729355E0,-4.161118507E0,4.706682205E0
1.092366325E1,7.752745152E-1,-2.057827473E0,2.775674343E0
1.093366325E1,2.811566591E0,-1.797009826E0,1.359123230E0
1.094366325E1,3.706482172E0,-1.332802176E0,-6.699903607E-1
1.095366325E1,3.864408493E0,2.392822653E-1,-1.756331801E0
1.096366325E1,3.323630571E0,1.641476393E0,-1.825723648E0
1.097366325E1,2.127219439E0,2.297109842E0,-1.524227977E0
1.098366325E1,2.421536446E0,3.833301783E0,-1.213161111E0
1.099366325E1,1.727617979E0,5.020142078E0,7.369893789E-1
1.100366325E1,4.785645306E-1,5.450850010E0,2.895315409E0
1.101366325E1,-1.217946768E0,4.692325115E0,4.409972191E0
1.102366325E1,-3.304488182E0,3.321237803E0,5.388636589E0
1.103366325E1,-5.383851051E0,2.065006018E0,7.099504948E0
1.104366325E1,-6.893722057E0,1.153340459E0,9.549755096E0
1.105366325E1,-8.796015739E0,1.244267821E0,1.461057472E1
1.106366325E1,-9.839286804E0,9.140582681E-1,1.349073410E1
1.107366325E1,-9.987641335E0,1.184447169E0,1.183250809E1
1.108366325E1,-1.001635551E1,2.438286304E0,1.135872936E1
1.109366325E1,-8.953942299E0,3.945764542E0,1.133958626E1
1.110366325E1,-6.946363926E0,5.448457241E0,1.165543938E1
1.111366325E1,-5.826523304E0,6.056233883E0,1.207179070E1
1.112366325E1,-9.975677490E0,3.349951655E-2,7.841279984E0
1.113366325E1,-1.364866066E1,-2.536391973E0,6.506084919E0
1.114366325E1,-1.660858154E1,-3.163311481E0,7.970492363E0
1.115366325E1,-1.822852325E1,-3.483949661E0,1.138026428E1
1.116366325E1,-1.761835289E1,-4.302295208E0,1.542892075E1
1.117366325E1,-1.459382534E1,-5.804987907E0,1.818784523E1
1.118366325E1,-1.070788097E1,-7.805387497E0,1.823330879E1
1.119366325E1,-6.329015732E0,-1.054516983E1,1.215075302E1
1.120366325E1,-5.553741455E0,-1.015035343E1,9.868000984E0
1.121366325E1,-6.077769279E0,-9.444471359E0,8.427521706E0
1.122366325E1,-6.805187702E0,-8.592626572E0,7.173682213E0
1.123366325E1,-6.905686378E0,-7.915457249E0,6.884150982E0
1.124366325E1,-6.410371780E0,-7.350750923E0,8.303094864E0
1.125366325E1,-5.587240696E0,-6.697510719E0,1.067198944E1
1.126366325E1,-5.587240696E0,-6.697510719E0,1.067198944E1
1.126366325E1,-4.244867325E0,-5.575276852E0,1.436172104E1
1.128366325E1,-3.239881754E0,-5.773880959E0,1.328734398E1
1.129366325E1,-2.823530674E0,-5.800201893E0,1.124148083E1
1.130366325E1,-3.093919754E0,-4.902893543E0,9.686145782E0
1.131366325E1,-4.091726780E0,-3.761517286E0,8.650053978E0
1.132366325E1,-5.175675392E0,-2.737389088E0,7.958528042E0
1.133366325E1,-5.175675392E0,-2.737389088E0,7.958528042E0
1.134366325E1,-5.175675392E0,-2.737389088E0,7.958528042E0
1.135366325E1,-5.175675392E0,-2.737389088E0,7.958528042E0
1.136366325E1,-5.175675392E0,-2.737389088E0,7.958528042E0
1.137366325E1,-5.352744102E0,-7.178468257E-2,4.859822750E0
1.138366325E1,-5.680561066E0,6.436693072E-1,3.737588882E0
1.139366325E1,-5.680561066E0,6.436693072E-1,3.737588882E0
1.140366325E1,-5.680561066E0,6.436693072E-1,3.737588882E0
1.141366325E1,-5.680561066E0,6.436693072E-1,3.737588882E0
1.142366325E1,-5.680561066E0,6.436693072E-1,3.737588882E0
1.143366325E1,-4.393222332E0,2.495713949E0,3.223132133E0
1.144366325E1,-3.974478483E0,2.316252232E0,3.067598581E0
1.145366325E1,-3.897907972E0,2.220539331E0,2.833101988E0
1.146366325E1,-3.897907972E0,2.220539331E0,2.833101988E0
1.147366325E1,-3.897907972E0,2.220539331E0,2.833101988E0
1.148366325E1,-3.897907972E0,2.220539331E0,2.833101988E0
1.149366325E1,-3.615555048E0,1.890329868E-1,5.536991596E0
1.150366325E1,-3.615555048E0,1.890329868E-1,5.536991596E0
1.151366325E1,-4.223331928E0,-5.407779217E-1,9.322437286E0
1.152366325E1,-4.328616142E0,-4.785645287E-3,1.026760197E1
1.153366325E1,-4.328616142E0,-4.785645287E-3,1.026760197E1
1.154366325E1,-4.328616142E0,-4.785645287E-3,1.026760197E1
1.155366325E1,-4.328616142E0,-4.785645287E-3,1.026760197E1
1.156366325E1,-5.895915031E0,-3.091526747E0,9.080761909E0
1.157366325E1,-4.862215519E0,-4.139583111E0,1.115533924E1
1.158366325E1,-3.117847919E0,-4.754538536E0,1.319880962E1
1.159366325E1,-1.416550994E0,-4.960321426E0,1.453879070E1
1.160366325E1,-1.416550994E0,-4.960321426E0,1.453879070E1
1.161366325E1,-1.416550994E0,-4.960321426E0,1.453879070E1
1.162366325E1,-6.046662807E0,-1.837687731E0,8.736195564E0
1.163366325E1,-6.046662807E0,-1.837687731E0,8.736195564E0
1.164366325E1,-1.331845093E1,-3.507878065E0,7.848458290E0
1.165366325E1,-1.502931881E1,-3.639483213E0,1.085862923E1
1.166366325E1,-1.370608807E1,-3.050848961E0,1.500539112E1
1.167366325E1,-1.370608807E1,-3.050848961E0,1.500539112E1
1.168366325E1,-1.370608807E1,-3.050848961E0,1.500539112E1
1.169366325E1,-3.235096216E0,-3.854837179E0,1.747478294E1
1.170366325E1,-7.070790768E0,-3.644268990E0,1.758246040E1
1.171366325E1,-9.085547447E0,-3.340380430E0,1.499581909E1
1.172366325E1,-1.017428207E1,-2.861815929E0,1.026042366E1
1.173366325E1,-1.124865913E1,-1.875972986E0,5.666203976E0
1.174366325E1,-1.124865913E1,-1.875972986E0,5.666203976E0
1.175366325E1,-9.489934921E0,3.022135019E0,6.580262184E-1
1.176366325E1,-6.352943897E0,1.875972986E0,-1.339980662E-1
1.177366325E1,-3.041277647E0,1.220339537E-1,4.809573591E-1
1.178366325E1,-3.924229145E-1,-5.814558864E-1,1.395015597E0
1.179366325E1,9.451649189E-1,-7.704889178E-1,1.263410330E0
1.180366325E1,4.594219327E-1,-1.505085468E0,1.165304661E0
1.181366325E1,-2.467000246E0,-1.399801254E0,1.593619823E0
1.182366325E1,-3.055634499E0,-1.311266780E0,2.390429735E0
1.183366325E1,-3.878765583E0,-1.440479279E0,4.917250633E0
1.184366325E1,-4.596612453E0,-9.188438654E-1,8.568697929E0
1.185366325E1,-4.481756687E0,-2.919243574E-1,1.133958626E1
1.186366325E1,-2.806781054E0,-3.206382394E-1,1.193061352E1
1.187366325E1,-1.308874011E0,-1.672582984E0,1.042792130E1
1.188366325E1,-8.303094506E-1,-1.830509305E0,7.106683254E0
1.189366325E1,-1.550549030E0,-1.347159147E0,5.510670662E0
1.190366325E1,-2.268395901E0,-9.284151793E-1,4.275974274E0
1.191366325E1,-3.304488182E0,-5.694918036E-1,4.295116425E0
1.192366325E1,-4.041477680E0,-5.742774606E-1,5.060820103E0
1.193366325E1,-4.319045067E0,-1.624726534E0,5.709274769E0
1.194366325E1,-2.251646042E0,4.761717021E-1,7.262216568E0
1.195366325E1,-2.734996319E0,2.328216314E0,6.530013084E0
1.196366325E1,-2.734996319E0,2.328216314E0,6.530013084E0
1.197366325E1,-2.734996319E0,2.328216314E0,6.530013084E0
1.198366325E1,-2.734996319E0,2.328216314E0,6.530013084E0
1.199366325E1,-6.781259537E0,9.906286001E-1,1.055474091E1
1.200366325E1,-6.781259537E0,9.906286001E-1,1.055474091E1
1.201366325E1,-5.982056618E0,1.172483116E-1,1.018624592E1
1.202366325E1,-5.982056618E0,1.172483116E-1,1.018624592E1
1.203366325E1,-5.982056618E0,1.172483116E-1,1.018624592E1
1.204366325E1,-5.982056618E0,1.172483116E-1,1.018624592E1
1.205366325E1,-5.982056618E0,1.172483116E-1,1.018624592E1
1.206366325E1,-5.982056618E0,1.172483116E-1,1.018624592E1
1.207366325E1,-3.247060299E0,4.063013077E0,9.018548965E0
1.208366325E1,-3.330809116E0,4.673182487E0,8.956335068E0
1.209366325E1,-3.330809116E0,4.673182487E0,8.956335068E0
1.210366325E1,-3.330809116E0,4.673182487E0,8.956335068E0
1.211366325E1,-3.330809116E0,4.673182487E0,8.956335068E0
1.212366325E1,-8.281558990E0,3.663411379E0,6.448657036E0
1.213366325E1,-6.278766632E0,4.543970108E0,6.786045074E0
1.214366325E1,-5.515456200E0,5.589633465E0,7.508677483E0
1.215366325E1,-6.886543751E0,4.984249592E0,6.709474564E0
1.216366325E1,-6.886543751E0,4.984249592E0,6.709474564E0
1.217366325E1,-6.362515450E0,2.244467735E0,4.500899315E0
1.218366325E1,-5.592026711E0,1.304088354E0,4.642076015E0
1.219366325E1,-5.603990555E0,5.742774606E-1,5.563312531E0
1.220366325E1,-6.005984783E0,1.674975827E-2,6.661618233E0
1.221366325E1,-6.972685337E0,-2.967100143E-1,7.168896675E0
1.222366325E1,-8.102097511E0,-2.536391914E-1,7.133004189E0
1.223366325E1,-8.669196129E0,6.819544435E-1,5.027320385E0
1.224366325E1,-8.829515457E0,-2.656033039E-1,4.137190342E0
1.225366325E1,-8.518448830E0,-1.428515077E0,4.424329281E0
1.226366325E1,-7.566105366E0,-2.543570518E0,5.505885124E0
1.227366325E1,-6.376872540E0,-3.778266907E0,5.989234924E0
1.228366325E1,-5.283352375E0,-4.716253281E0,5.860022545E0
1.229366325E1,-3.833301783E0,-4.979464054E0,5.414957523E0
1.230366325E1,-1.469193101E0,-3.527020693E0,5.694917679E0
1.231366325E1,-2.002792597E0,-3.139383316E0,6.821937561E0
1.232366325E1,-2.921636343E0,-3.026920557E0,8.985049248E0
1.233366325E1,-3.682554007E0,-2.928814888E0,1.139462185E1
1.234366325E1,-3.955335855E0,-2.804388046E0,1.350748348E1
1.235366325E1,-3.328416348E0,-2.641676188E0,1.446461296E1
1.236366325E1,-2.529213428E0,-2.888136864E0,1.366062450E1
1.237366325E1,-3.146561861E0,-3.400201082E0,7.700103283E0
1.238366325E1,-3.491128206E0,-2.734996319E0,5.819344521E0
1.239366325E1,-3.713660717E0,-2.043470621E0,5.503491879E0
1.240366325E1,-3.661018610E0,-1.488335729E0,6.508477688E0
1.241366325E1,-3.208775282E0,-8.590233326E-1,8.269595146E0
1.242366325E1,-2.775674343E0,-7.250252366E-1,9.449256897E0
1.243366325E1,-2.213361025E0,-1.237089276E0,9.281759262E0
1.244366325E1,-1.739582062E0,-2.306680918E0,6.699903488E0
1.245366325E1,-2.366501570E0,-2.120040894E0,5.522634506E0
1.246366325E1,-3.335594654E0,-1.550549030E0,4.539184570E0
1.247366325E1,-4.606183529E0,-8.518448472E-1,4.223331928E0
1.248366325E1,-5.845665932E0,-2.057827413E-1,4.804787636E0
1.249366325E1,-6.518048763E0,1.555334777E-1,5.998806477E0
1.250366325E1,-6.393621922E0,2.057827413E-1,7.295716286E0
1.251366325E1,-4.828716278E0,-1.060020447E0,7.293323517E0
1.252366325E1,-4.354937077E0,-1.445264935E0,5.307280540E0
1.253366325E1,-4.103690624E0,-1.172483087E0,3.460021496E0
1.254366325E1,-4.103690624E0,-1.172483087E0,3.460021496E0
1.255366325E1,-6.790830612E0,8.901300430E-1,4.998606682E0
1.256366325E1,-7.719245911E0,1.619940877E0,6.661618233E0
1.257366325E1,-7.757531166E0,1.557727575E0,8.889336586E0
1.258366325E1,-7.757531166E0,1.557727575E0,8.889336586E0
1.259366325E1,-7.757531166E0,1.557727575E0,8.889336586E0
1.260366325E1,-7.757531166E0,1.557727575E0,8.889336586E0
1.261366325E1,-7.757531166E0,1.557727575E0,8.889336586E0
1.262366325E1,-6.733402729E0,-3.062813044E0,1.254078388E1
1.263366325E1,-6.216553211E0,-3.275774240E0,1.258864021E1
1.264366325E1,-5.630311489E0,-3.259024382E0,1.322513103E1
1.265366325E1,-5.630311489E0,-3.259024382E0,1.322513103E1
1.266366325E1,-5.630311489E0,-3.259024382E0,1.322513103E1
1.267366325E1,-5.048855782E0,-2.122433662E0,1.419661713E1
1.268366325E1,-5.852844238E0,-2.950350285E0,1.219621658E1
1.269366325E1,-6.541976929E0,-4.115654945E0,1.107159042E1
1.270366325E1,-6.943971157E0,-4.658825874E0,1.152383423E1
1.271366325E1,-7.137789726E0,-4.821537495E0,1.286620712E1
1.272366325E1,-7.137789726E0,-4.821537495E0,1.286620712E1
1.273366325E1,-5.472385406E0,-4.235296249E0,1.724028778E1
1.274366325E1,-5.472385406E0,-4.235296249E0,1.724028778E1
1.275366325E1,-2.318645239E0,-4.761716843E0,1.471107388E1
1.276366325E1,-2.110469580E0,-4.847858906E0,1.248096275E1
1.277366325E1,-2.452643156E0,-4.838287354E0,1.036331463E1
1.278366325E1,-2.359323025E0,-3.967299938E0,9.365508080E0
1.279366325E1,-2.359323025E0,-3.967299938E0,9.365508080E0
1.280366325E1,-3.656233072E0,-2.938386202E0,1.043270683E1
1.281366325E1,-3.828516245E0,-2.914458036E0,1.072702408E1
1.282366325E1,-3.821337700E0,-2.737389088E0,1.011206818E1
1.283366325E1,-3.663411379E0,-2.352144718E0,8.851051331E0
1.284366325E1,-3.955335855E0,-2.524427891E0,7.137789726E0
1.285366325E1,-3.895515203E0,-2.526820660E0,5.525027275E0
1.286366325E1,-3.275774240E0,-1.000199914E0,5.228317261E0
1.287366325E1,-3.328416348E0,-3.326023519E-1,5.702096462E0
1.288366325E1,-3.168097258E0,1.914258152E-1,6.077769279E0
1.289366325E1,-3.371487141E0,4.378865361E-1,6.233303070E0
1.290366325E1,-3.637090445E0,6.628118753E-1,6.204588890E0
1.291366325E1,-3.783052683E0,8.829515576E-1,6.053841114E0
1.292366325E1,-3.931407690E0,1.150947690E0,6.044270039E0
1.293366325E1,-3.972085476E0,1.631905079E0,5.556134224E0
1.294366325E1,-4.139583111E0,1.667797327E0,5.307280540E0
1.295366325E1,-3.962514400E0,1.761117458E0,5.158925533E0
1.296366325E1,-3.440878868E0,1.969292998E0,5.257031441E0
1.297366325E1,-3.058027267E0,2.175075769E0,5.367101192E0
1.298366325E1,-3.108276606E0,2.268395901E0,5.687739372E0
1.299366325E1,-3.357130051E0,2.323430777E0,6.218945980E0
1.300366325E1,-3.457628727E0,2.127219439E0,7.116254330E0
1.301366325E1,-3.050848961E0,2.033899307E0,7.441678524E0
1.302366325E1,-2.565105915E0,1.813759565E0,7.166503906E0
1.303366325E1,-2.124826431E0,1.694118381E0,6.403193474E0
1.304366325E1,-2.459821701E0,1.677368641E0,5.730810165E0
1.305366325E1,-3.311666489E0,1.631905079E0,5.350351334E0
1.306366325E1,-3.560520172E0,1.682154298E0,5.484349728E0
1.307366325E1,-3.560520172E0,1.682154298E0,5.484349728E0
1.308366325E1,-3.560520172E0,1.682154298E0,5.484349728E0
1.309366325E1,-3.560520172E0,1.682154298E0,5.484349728E0
1.310366325E1,-3.560520172E0,1.682154298E0,5.484349728E0
1.311366325E1,-3.560520172E0,1.682154298E0,5.484349728E0
1.312366325E1,-1.933400750E0,1.629512191E0,7.216753006E0
1.313366325E1,-1.928615093E0,1.323230863E0,6.843472958E0
1.314366325E1,-1.928615093E0,1.323230863E0,6.843472958E0
1.315366325E1,-1.928615093E0,1.323230863E0,6.843472958E0
1.316366325E1,-1.928615093E0,1.323230863E0,6.843472958E0
1.317366325E1,-3.577269793E0,-3.397808075E-1,1.274417305E1
1.318366325E1,-2.440679073E0,-6.556333899E-1,1.310070419E1
1.319366325E1,-1.091127157E0,-3.326023519E-1,1.267478180E1
1.320366325E1,-5.551348329E-1,3.637090325E-1,1.175833035E1
1.321366325E1,-5.551348329E-1,3.637090325E-1,1.175833035E1
1.322366325E1,-5.551348329E-1,3.637090325E-1,1.175833035E1
1.323366325E1,-5.407779217E0,8.063812256E-1,9.075976372E0
1.324366325E1,-4.555934429E0,8.614161611E-2,1.104766178E1
1.325366325E1,-3.385843992E0,-5.551348329E-1,1.298824120E1
1.326366325E1,-2.486142635E0,-1.251446247E0,1.418704510E1
1.327366325E1,-8.279166222E-1,-1.921436548E0,1.435693550E1
1.328366325E1,-8.279166222E-1,-1.921436548E0,1.435693550E1
1.329366325E1,-8.279166222E-1,-1.921436548E0,1.435693550E1
1.330366325E1,5.335994363E-1,-2.438286304E0,1.140897846E1
1.331366325E1,-4.331009090E-1,-2.467000246E0,1.201914787E1
1.332366325E1,-1.682154298E0,-2.555534601E0,1.341655636E1
1.333366325E1,-1.797009826E0,-2.902493954E0,1.457468319E1
1.334366325E1,-1.555334777E-1,-3.091526747E0,1.514417458E1
1.335366325E1,1.890329838E0,-3.000599623E0,1.317727470E1
1.336366325E1,1.387837172E0,-2.067398787E0,1.172004509E1
1.337366325E1,2.057827473E0,-1.332802176E0,1.090648556E1
1.338366325E1,2.170290232E0,-1.746760458E-1,1.023170948E1
1.339366325E1,1.098305583E0,1.268195957E-1,1.052602673E1
1.340366325E1,5.000999570E-1,3.230310678E-1,1.074377346E1
1.341366325E1,2.488535494E-1,5.910272002E-1,1.054756260E1
1.342366325E1,1.069591761E0,1.239482164E0,9.511469841E0
1.343366325E1,6.771687865E-1,1.564906001E0,8.894122124E0
1.344366325E1,2.512463629E-1,1.974078655E0,8.353343964E0
1.345366325E1,-9.810572863E-2,2.187039852E0,7.893921852E0
1.346366325E1,-9.810572863E-2,2.187039852E0,7.893921852E0
1.347366325E1,-5.335994363E-1,1.823330879E0,7.606783390E0
1.348366325E1,-4.187439680E-1,1.615155339E0,7.523034573E0
1.349366325E1,-4.187439680E-1,1.615155339E0,7.523034573E0
1.350366325E1,-4.187439680E-1,1.615155339E0,7.523034573E0
1.351366325E1,-4.187439680E-1,1.615155339E0,7.523034573E0
1.352366325E1,8.805587292E-1,2.560320139E0,6.869793892E0
1.353366325E1,1.246660590E0,2.392822742E0,7.592426300E0
1.354366325E1,1.299302697E0,1.780260086E0,7.515855789E0
1.355366325E1,9.930213690E-1,1.325623751E0,7.769495010E0
1.356366325E1,9.930213690E-1,1.325623751E0,7.769495010E0
1.357366325E1,-1.557727575E0,2.170290232E0,8.542376518E0
1.358366325E1,-1.686939955E0,1.536192179E0,8.157132149E0
1.359366325E1,-7.776673436E-1,9.762716293E-1,7.920242786E0
1.360366325E1,1.483550072E-1,9.140582681E-1,8.078168869E0
1.361366325E1,3.397808075E-1,1.220339537E0,7.869993687E0
1.362366325E1,-1.507478207E-1,1.794616938E0,7.123433113E0
1.363366325E1,-1.447657704E0,2.670390129E0,6.436692715E0
1.364366325E1,-1.447657704E0,2.670390129E0,6.436692715E0
1.365366325E1,-1.703689694E0,2.500499725E0,6.742974281E0
1.366366325E1,-1.342373490E0,2.711068153E0,7.558926582E0
1.367366325E1,-8.709874153E-1,2.603390932E0,8.233702660E0
1.368366325E1,-3.900300860E-1,2.065006018E0,8.599804878E0
1.369366325E1,2.847459018E-1,1.765903115E0,8.382058144E0
1.370366325E1,1.418943882E0,1.282552958E0,9.669396400E0
1.371366325E1,1.497906923E0,1.076770186E0,1.088016415E1
1.372366325E1,1.596012712E0,8.350951076E-1,1.134197903E1
1.373366325E1,1.490728498E0,9.212366939E-1,1.130848026E1
1.374366325E1,1.337587833E0,1.330409408E0,1.103091240E1
1.375366325E1,5.958128572E-1,1.564906001E0,1.064327526E1
1.376366325E1,-2.464607358E-1,9.403793216E-1,1.030110168E1
1.377366325E1,-1.052841991E-1,-4.570291340E-1,1.095912743E1
1.378366325E1,3.828516230E-2,-9.188438654E-1,1.180379391E1
1.379366325E1,7.178468257E-2,-1.153340459E0,1.248574829E1
1.380366325E1,1.292124242E-1,-1.210768223E0,1.300020504E1
1.381366325E1,5.718846321E-1,-1.268195987E0,1.337109280E1
1.382366325E1,1.313659668E0,-1.079162955E0,1.405065441E1
1.383366325E1,2.009970903E0,-7.657032609E-1,1.412483215E1
1.384366325E1,1.945364833E0,-6.963114142E-1,1.154297638E1
1.385366325E1,1.622333765E0,-2.512463629E-1,1.032024384E1
1.386366325E1,1.174875975E0,2.416750938E-1,9.736394882E0
1.387366325E1,2.536391914E-1,7.561319470E-1,9.954142570E0
1.388366325E1,-8.925228715E-1,1.234696507E0,1.033460140E1
1.389366325E1,-1.663011789E0,1.536192179E0,1.032981491E1
1.390366325E1,-1.586441398E0,1.605584025E0,1.018863869E1
1.391366325E1,-6.293123364E-1,7.633104324E-1,1.005464077E1
1.392366325E1,-3.637090325E-1,6.460621208E-2,9.870393753E0
1.393366325E1,-3.637090325E-1,6.460621208E-2,9.870393753E0
1.394366325E1,-3.637090325E-1,6.460621208E-2,9.870393753E0
1.395366325E1,-3.637090325E-1,6.460621208E-2,9.870393753E0
1.396366325E1,-3.637090325E-1,6.460621208E-2,9.870393753E0
1.397366325E1,-7.848458290E-1,-4.043870270E-1,1.170329571E1
1.398366325E1,-7.848458290E-1,-4.043870270E-1,1.170329571E1
1.399366325E1,-7.848458290E-1,-4.043870270E-1,1.170329571E1
1.400366325E1,-7.848458290E-1,-4.043870270E-1,1.170329571E1
1.401366325E1,-7.848458290E-1,-4.043870270E-1,1.170329571E1
1.402366325E1,-2.337787628E0,1.998006940E0,9.229117393E0
1.403366325E1,-2.433500528E0,2.244467735E0,9.004191399E0
1.404366325E1,-2.117648125E0,2.321038008E0,8.616554260E0
1.405366325E1,-2.117648125E0,2.321038008E0,8.616554260E0
1.406366325E1,-2.117648125E0,2.321038008E0,8.616554260E0
1.407366325E1,-1.040877819E0,2.450250387E0,7.690532207E0
1.408366325E1,-7.274180651E-1,2.378465652E0,8.015955925E0
1.408366325E1,-7.274180651E-1,2.378465652E0,8.015955925E0
1.410366325E1,-3.924229145E-1,2.189432621E0,8.271987915E0
1.411366325E1,-7.848458290E-1,2.239681959E0,8.202595711E0
1.412366325E1,-6.173482537E-1,2.031506538E0,7.477570534E0
1.413366325E1,-2.560320199E-1,1.959721804E0,7.357929707E0
1.414366325E1,6.939185411E-2,1.823330879E0,7.479963779E0
1.415366325E1,5.288137794E-1,1.521835208E0,7.523034573E0
1.416366325E1,1.234696507E0,1.217946768E0,7.630711555E0
1.417366325E1,1.481157184E0,1.383051515E0,7.779066563E0
1.418366325E1,1.220339537E0,1.978864312E0,7.640282631E0
1.419366325E1,1.569691658E0,2.005185366E0,6.987041950E0
1.420366325E1,2.270788670E0,1.493121386E0,7.597211838E0
1.421366325E1,2.974278450E0,1.067198873E0,9.042476654E0
1.422366325E1,3.577269793E0,6.675975323E-1,1.079402256E1
1.423366325E1,3.553341627E0,6.604190469E-1,1.190907860E1
1.424366325E1,2.919243574E0,9.547362328E-1,1.225125217E1
1.425366325E1,1.990828395E0,1.268195987E0,1.205264759E1
1.426366325E1,1.990828395E0,1.268195987E0,1.205264759E1
1.427366325E1,1.990828395E0,1.268195987E0,1.205264759E1
1.428366325E1,1.990828395E0,1.268195987E0,1.205264759E1
1.429366325E1,1.990828395E0,1.268195987E0,1.205264759E1
1.430366325E1,-3.924229145E-1,2.677568436E0,9.724431038E0
1.431366325E1,-3.924229145E-1,2.677568436E0,9.724431038E0
1.432366325E1,-9.690931439E-1,1.227517962E0,1.199761295E1
1.433366325E1,-9.690931439E-1,1.227517962E0,1.199761295E1
1.434366325E1,-9.690931439E-1,1.227517962E0,1.199761295E1
1.435366325E1,-2.311466694E0,1.500299811E0,1.350269794E1
1.436366325E1,-2.311466694E0,1.500299811E0,1.350269794E1
1.437366325E1,-2.132004976E0,7.513462901E-1,1.266042423E1
1.438366325E1,-1.983649969E0,7.824530005E-1,1.224168110E1
1.439366325E1,-2.610569477E0,1.148554921E0,1.168415260E1
1.440366325E1,-2.610569477E0,1.148554921E0,1.168415260E1
1.441366325E1,-4.108476639E0,2.957528830E0,9.760323524E0
1.442366325E1,-3.129812002E0,2.885744095E0,9.260223389E0
1.443366325E1,-2.038684845E0,2.708675146E0,9.035298347E0
1.444366325E1,-1.134197950E0,2.206182480E0,9.004191399E0
1.445366325E1,-6.843472719E-1,1.756331801E0,9.018548965E0
1.446366325E1,-7.465606928E-1,1.631905079E0,9.298508644E0
1.447366325E1,-7.465606928E-1,1.631905079E0,9.298508644E0
1.448366325E1,-2.469393015E0,1.945364833E0,1.041835022E1
1.449366325E1,-2.234896421E0,2.100898266E0,9.736394882E0
1.450366325E1,-2.124826431E0,2.715853691E0,8.437092781E0
1.451366325E1,-1.641476393E0,3.136990547E0,7.384250641E0
1.452366325E1,-1.536192179E0,3.371487141E0,6.587440968E0
1.453366325E1,-1.931007862E0,3.577269793E0,6.393621922E0
1.454366325E1,-1.931007862E0,3.577269793E0,6.393621922E0
1.455366325E1,-2.289931297E0,3.701696634E0,6.321837425E0
1.456366325E1,-2.529213428E0,3.811766386E0,6.903293133E0
1.457366325E1,-2.581855536E0,3.888336897E0,7.621140003E0
1.458366325E1,-2.400001049E0,3.883551121E0,7.903493404E0
1.459366325E1,-2.129612207E0,3.718446493E0,7.501499176E0
1.460366325E1,-2.227717876E0,3.495913982E0,6.963113785E0
1.461366325E1,-1.964507341E0,2.938386202E0,6.970292568E0
1.462366325E1,-1.964507341E0,2.938386202E0,6.970292568E0
1.463366325E1,-1.789831281E0,3.929014683E0,5.453242779E0
1.464366325E1,-2.182254314E0,4.340580463E0,4.855037212E0
1.465366325E1,-2.258824587E0,4.649254322E0,4.835894585E0
1.466366325E1,-1.998006940E0,4.814359188E0,5.113461971E0
1.467366325E1,-1.021735311E0,4.831109047E0,4.553541660E0
1.468366325E1,-7.489534616E-1,5.230710506E0,3.579662561E0
1.469366325E1,-1.607976794E0,5.108676434E0,3.711267948E0
1.470366325E1,-1.887937069E0,4.862215519E0,4.417150497E0
1.471366325E1,-1.421336651E0,4.534399033E0,5.572884083E0
1.472366325E1,-2.919243574E-1,4.074976921E0,6.673582554E0
1.473366325E1,8.279166222E-1,3.864408493E0,7.379465103E0
1.474366325E1,1.261017561E0,4.182653904E0,7.802994728E0
1.475366325E1,-2.799602449E-1,4.965106964E0,8.331808090E0
1.476366325E1,-1.636690736E0,5.862415314E0,8.717052460E0
1.477366325E1,-2.127219439E0,6.865008354E0,8.872586250E0
1.478366325E1,-1.926222205E0,7.089933395E0,8.695517540E0
1.479366325E1,-1.610369682E0,6.305087566E0,8.946763992E0
1.480366325E1,-5.527420044E-1,5.395814896E0,9.217152596E0
1.481366325E1,3.206382394E-1,4.625326157E0,1.020778179E1
1.482366325E1,6.077769399E-1,4.225724697E0,1.222493076E1
1.483366325E1,2.823530734E-1,4.996213913E0,1.372044468E1
1.484366325E1,2.823530734E-1,4.996213913E0,1.372044468E1
1.485366325E1,-1.036092162E0,7.113861561E0,1.531406498E1
1.486366325E1,-8.757730722E-1,8.078168869E0,1.437847137E1
1.487366325E1,-2.656033039E-1,8.817551613E0,1.299541950E1
1.488366325E1,8.901300430E-1,8.946763992E0,1.062652493E1
1.489366325E1,8.901300430E-1,8.946763992E0,1.062652493E1
1.490366325E1,8.901300430E-1,8.946763992E0,1.062652493E1
1.491366325E1,8.901300430E-1,8.946763992E0,1.062652493E1
1.492366325E1,8.901300430E-1,8.946763992E0,1.062652493E1
1.493366325E1,1.241874933E0,6.087340832E0,5.046463013E0
1.494366325E1,2.584248483E-1,6.034698486E0,5.123033047E0
1.495366325E1,7.178468257E-2,6.132804394E0,4.977071285E0
1.496366325E1,7.178468257E-2,6.132804394E0,4.977071285E0
1.497366325E1,1.177268744E0,6.159125328E0,4.079762459E0
1.498366325E1,1.268195987E0,5.974878311E0,4.180261135E0
1.499366325E1,1.110269666E0,5.467599869E0,4.398007870E0
1.500366325E1,6.867401004E-1,4.768895626E0,4.955535889E0
1.501366325E1,2.847459018E-1,3.711267948E0,5.788238049E0
1.502366325E1,5.790630579E-1,2.139183521E0,6.683153629E0
1.503366325E1,7.920243144E-1,4.905286431E-1,8.934800148E0
1.504366325E1,1.222732425E0,6.915257573E-1,9.367900848E0
1.505366325E1,2.191825628E0,1.225125194E0,8.963513374E0
1.506366325E1,2.301895380E0,1.895115495E0,7.886743546E0
1.507366325E1,1.773081541E0,2.526820660E0,6.838686943E0
1.508366325E1,1.371087432E0,2.928814888E0,6.037091732E0
1.509366325E1,1.045663476E0,2.873780012E0,5.659025669E0
1.510366325E1,-1.189232826E0,1.651047587E0,8.647661209E0
1.511366325E1,-1.832902193E0,1.275374413E0,1.079880905E1
1.512366325E1,-2.237289190E0,1.354337573E0,1.239960670E1
1.513366325E1,-2.488535643E0,1.808973908E0,1.293799210E1
1.514366325E1,-2.756531715E0,2.311466694E0,1.216511059E1
1.515366325E1,-2.926422119E0,2.691925526E0,1.050449181E1
1.516366325E1,-3.280559778E0,3.259024382E0,9.174081802E0
1.517366325E1,-3.364308596E0,4.481756687E0,7.755138397E0
1.518366325E1,-3.565305710E0,5.321637630E0,7.424928665E0
1.519366325E1,-3.838087559E0,5.726024628E0,7.006184578E0
1.520366325E1,-3.888336897E0,5.544169903E0,6.551548481E0
1.521366325E1,-3.598805189E0,5.161318302E0,6.379265308E0
1.522366325E1,-3.055634499E0,4.833501816E0,6.719046116E0
1.523366325E1,-1.191625714E0,4.113262177E0,7.594819069E0
1.524366325E1,-6.388836503E-1,3.804588079E0,7.582854748E0
1.525366325E1,-6.053841114E-1,3.687339783E0,7.525427341E0
1.526366325E1,-8.015955687E-1,3.711267948E0,7.467999458E0
1.527366325E1,-8.303094506E-1,3.548556089E0,7.635497093E0
1.528366325E1,-6.915257573E-1,3.139383316E0,8.073383331E0
1.529366325E1,-4.689932466E-1,2.773281336E0,8.664410591E0
1.530366325E1,-1.057627559E0,2.837887764E0,9.513862610E0
1.531366325E1,-1.473978758E0,2.663211584E0,9.839286804E0
1.532366325E1,-1.825723648E0,2.376072884E0,1.049731255E1
1.533366325E1,-1.825723648E0,2.376072884E0,1.049731255E1
1.534366325E1,-1.825723648E0,2.376072884E0,1.049731255E1
1.535366325E1,-1.093519926E0,1.904686809E0,1.327059460E1
1.536366325E1,-2.033899277E-1,2.644068956E0,1.434018612E1
1.537366325E1,-2.033899277E-1,2.644068956E0,1.434018612E1
1.538366325E1,-2.033899277E-1,2.644068956E0,1.434018612E1
1.539366325E1,-2.033899277E-1,2.644068956E0,1.434018612E1
1.540366325E1,-2.033899277E-1,2.644068956E0,1.434018612E1
1.541366325E1,-6.288337708E0,4.807180882E0,1.417747402E1
1.542366325E1,-4.658825874E0,4.039084435E0,1.521117401E1
1.543366325E1,-3.383451223E0,3.151347399E0,1.561316776E1
1.544366325E1,-3.383451223E0,3.151347399E0,1.561316776E1
1.545366325E1,-3.383451223E0,3.151347399E0,1.561316776E1
1.546366325E1,-3.383451223E0,3.151347399E0,1.561316776E1
1.547366325E1,-3.424129248E0,4.364508629E0,1.282074356E1
1.548366325E1,-3.000599623E0,4.534399033E0,1.149272728E1
1.549366325E1,-2.316252232E0,4.273581028E0,1.001396275E1
1.550366325E1,-1.663011789E0,3.826123476E0,8.886942863E0
1.551366325E1,-1.663011789E0,3.826123476E0,8.886942863E0
1.552366325E1,-1.663011789E0,3.826123476E0,8.886942863E0
1.553366325E1,-5.934200287E-1,1.921436548E0,8.039883614E0
1.554366325E1,2.352144718E0,1.617548108E0,6.247660160E0
1.555366325E1,3.732803345E0,1.572084427E0,4.122833252E0
1.556366325E1,3.787838221E0,1.014556766E0,2.924029350E0
1.557366325E1,2.658426046E0,1.012163997E0,3.014956474E0
1.558366325E1,-3.254238665E-1,2.325823545E0,6.061019897E0
1.559366325E1,-1.624726534E0,2.801995277E0,7.051648140E0
1.560366325E1,-2.957528830E0,3.242274761E0,7.633104324E0
1.561366325E1,-3.184846878E0,3.469592810E0,8.319844246E0
1.562366325E1,-2.950350285E0,3.744767427E0,8.858229637E0
1.563366325E1,-3.168097258E0,4.098905087E0,9.422935486E0
1.564366325E1,-3.668197155E0,4.524827480E0,9.927821159E0
1.565366325E1,-3.668197155E0,4.524827480E0,9.927821159E0
1.566366325E1,-4.311866283E0,5.324030399E0,9.623932838E0
1.567366325E1,-3.948157310E0,5.627918720E0,9.042476654E0
1.568366325E1,-3.378665686E0,5.501099110E0,8.161917686E0
1.569366325E1,-2.498106956E0,4.756931305E0,6.934400082E0
1.570366325E1,-1.914258122E0,4.022335052E0,5.603990555E0
1.571366325E1,-1.342373490E0,3.333201885E0,4.960321426E0
1.572366325E1,-1.342373490E0,3.333201885E0,4.960321426E0
1.573366325E1,2.297109842E0,1.356730461E0,5.103890896E0
1.574366325E1,2.823530674E0,1.485942841E0,4.821537495E0
1.575366325E1,1.344766378E0,1.552941918E0,5.084748268E0
1.576366325E1,-8.638089895E-1,2.526820660E0,5.486742496E0
1.577366325E1,-1.323230863E0,3.120240688E0,6.063412666E0
1.578366325E1,-1.569691658E0,2.500499725E0,6.714260101E0
1.579366325E1,-5.814558864E-1,1.490728498E0,8.606983185E0
1.580366325E1,1.722832322E-1,1.830509305E0,9.877572060E0
1.581366325E1,1.722832322E-1,1.830509305E0,9.877572060E0
1.582366325E1,1.722832322E-1,1.830509305E0,9.877572060E0
1.583366325E1,1.722832322E-1,1.830509305E0,9.877572060E0
1.583366325E1,9.475577474E-1,2.134397745E0,7.666603565E0
1.585366325E1,-4.737788737E-1,3.960121393E0,7.396214962E0
1.586366325E1,-4.737788737E-1,3.960121393E0,7.396214962E0
1.587366325E1,-4.737788737E-1,3.960121393E0,7.396214962E0
1.588366325E1,-4.737788737E-1,3.960121393E0,7.396214962E0
1.589366325E1,-4.737788737E-1,3.960121393E0,7.396214962E0
1.590366325E1,1.347159147E0,7.128218651E0,9.454042435E0
1.591366325E1,-2.679961324E-1,7.137789726E0,9.190832138E0
1.592366325E1,-1.878365755E0,6.233303070E0,8.776873589E0
1.593366325E1,-1.878365755E0,6.233303070E0,8.776873589E0
1.594366325E1,-1.878365755E0,6.233303070E0,8.776873589E0
1.595366325E1,-5.024927482E-2,1.818545222E0,1.156451225E1
1.596366325E1,1.462014675E0,1.825723648E0,1.270588779E1
1.597366325E1,2.368894339E0,1.849651933E0,1.328016567E1
1.598366325E1,2.569891453E0,1.722832322E0,1.310309696E1
1.599366325E1,2.249253273E0,1.452443361E0,1.217228889E1
1.600366325E1,2.249253273E0,1.452443361E0,1.217228889E1
1.601366325E1,-1.390229940E0,1.718046665E0,1.083470058E1
1.602366325E1,-1.390229940E0,1.718046665E0,1.083470058E1
1.603366325E1,-1.517049551E0,7.034898400E-1,1.154536915E1
1.604366325E1,-1.141376376E0,-7.585247755E-1,1.103809071E1
1.605366325E1,-8.015955687E-1,-1.957328916E0,1.080838013E1
1.606366325E1,-2.847459018E-1,-2.469393015E0,1.091844940E1
1.607366325E1,2.967100143E-1,-1.933400750E0,1.179900837E1
1.608366325E1,6.101697683E-1,-1.768295884E0,1.312702465E1
1.609366325E1,7.106683254E-1,-1.339980721E0,1.395733452E1
1.610366325E1,2.536391914E-1,-1.165304661E0,1.379701519E1
1.611366325E1,-2.967100143E-1,-1.289731383E0,1.278245831E1
1.612366325E1,-8.039883971E-1,-1.160519004E0,1.115055370E1
1.613366325E1,-1.258624673E0,-6.699903607E-1,9.633503914E0
1.614366325E1,-1.904686809E0,1.052841991E-1,8.159524918E0
1.615366325E1,-1.890329838E0,3.445664644E-1,8.444271088E0
1.616366325E1,-1.686939955E0,6.077769399E-1,9.475577354E0
1.617366325E1,-1.751546144E0,6.915257573E-1,1.052602673E1
1.618366325E1,-1.555334687E0,5.455635786E-1,1.076291656E1
1.619366325E1,-1.074377418E0,4.618147612E-1,1.022213840E1
1.620366325E1,-8.063812256E-1,7.345965505E-1,9.444471359E0
1.621366325E1,-1.610369682E0,1.694118381E0,7.829315662E0
1.622366325E1,-2.208575249E0,1.890329838E0,7.128218651E0
1.623366325E1,-2.356930256E0,1.957328916E0,6.814758778E0
1.624366325E1,-2.007578135E0,2.139183521E0,7.054041386E0
1.625366325E1,-1.232303619E0,2.340180635E0,7.594819069E0
1.626366325E1,-5.335994363E-1,2.457428932E0,8.216953278E0
1.627366325E1,-1.124626622E-1,2.536391973E0,8.539983749E0
1.628366325E1,-3.230310678E-1,3.347558975E0,7.922635555E0
1.629366325E1,-8.279166222E-1,3.589233875E0,7.307680130E0
1.630366325E1,-1.617548108E0,3.991228104E0,7.149754047E0
1.631366325E1,-2.053041935E0,4.287938118E0,7.278966427E0
1.632366325E1,-2.435893536E0,4.479363918E0,7.872386456E0
1.633366325E1,-2.371287346E0,4.709074974E0,8.181060791E0
1.634366325E1,-2.021935225E0,4.766502857E0,8.508877754E0
1.635366325E1,-2.021935225E0,4.766502857E0,8.508877754E0
1.636366325E1,-2.021935225E0,4.766502857E0,8.508877754E0
1.637366325E1,-2.021935225E0,4.766502857E0,8.508877754E0
1.638366325E1,-2.021935225E0,4.766502857E0,8.508877754E0
1.639366325E1,-2.304288149E0,4.522434711E0,7.769495010E0
1.640366325E1,-1.646261930E0,3.393022537E0,7.652246952E0
1.641366325E1,-1.646261930E0,3.393022537E0,7.652246952E0
1.642366325E1,-1.646261930E0,3.393022537E0,7.652246952E0
1.643366325E1,-1.646261930E0,3.393022537E0,7.652246952E0
1.644366325E1,-1.646261930E0,3.393022537E0,7.652246952E0
1.645366325E1,-2.955136061E0,4.500899315E0,8.566305161E0
1.646366325E1,-3.809373617E0,3.795016766E0,7.936992645E0
1.647366325E1,-3.550948858E0,2.629712105E0,7.707281590E0
1.648366325E1,-2.254039049E0,1.560120344E0,8.255238533E0
1.649366325E1,-2.254039049E0,1.560120344E0,8.255238533E0
1.650366325E1,-2.254039049E0,1.560120344E0,8.255238533E0
1.651366325E1,-2.416750938E-1,-2.392822653E-1,1.344527054E1
1.652366325E1,-1.663011789E0,-1.244267747E-1,1.334237862E1
1.653366325E1,-3.263810158E0,-7.178468257E-2,1.273699474E1
1.654366325E1,-4.649254322E0,2.632104978E-2,1.175833035E1
1.655366325E1,-5.465207100E0,2.440679073E-1,1.093519974E1
1.656366325E1,-5.465207100E0,2.440679073E-1,1.093519974E1
1.657366325E1,-5.465207100E0,2.440679073E-1,1.093519974E1
1.658366325E1,-2.153540373E0,4.689932466E-1,1.032981491E1
1.659366325E1,-1.244267821E0,5.647061467E-1,1.003789139E1
1.660366325E1,-6.221339107E-1,6.364908218E-1,9.882357597E0
1.661366325E1,-4.043870270E-1,7.968099117E-1,9.561718941E0
1.662366325E1,-3.684946895E-1,9.379864931E-1,9.169296265E0
1.663366325E1,-1.100698411E-1,9.643075466E-1,8.781659126E0
1.664366325E1,1.986042857E-1,9.714859724E-1,8.944371223E0
1.665366325E1,5.072783828E-1,7.106683254E-1,9.085547447E0
1.666366325E1,6.652047038E-1,2.727817893E-1,9.087940216E0
1.667366325E1,6.005984545E-1,-9.332008660E-2,9.128618240E0
1.668366325E1,-1.268195957E-1,-2.033899277E-1,9.126225471E0
1.669366325E1,-1.036092162E0,-2.153540403E-1,9.049654961E0
1.670366325E1,-1.036092162E0,-2.153540403E-1,9.049654961E0
1.671366325E1,-8.733802438E-1,-2.799602449E-1,8.456234932E0
1.672366325E1,-3.732803464E-1,-1.387837082E-1,8.566305161E0
1.673366325E1,-1.196411345E-2,-2.679961324E-1,8.422736168E0
1.674366325E1,7.178468257E-2,-3.421736360E-1,8.121239662E0
1.675366325E1,1.459621787E-1,-3.326023519E-1,7.922635555E0
1.676366325E1,1.866401732E-1,-2.703889608E-1,7.975277901E0
1.677366325E1,-1.423729420E0,2.416750938E-1,7.582854748E0
1.678366325E1,-2.218146563E0,5.072783828E-1,7.051648140E0
1.679366325E1,-2.505285263E0,8.590233326E-1,6.594619274E0
1.680366325E1,-2.277967215E0,1.306481123E0,6.702296257E0
1.681366325E1,-1.825723648E0,1.674975872E0,7.180860519E0
1.682366325E1,-1.387837172E0,1.878365755E0,7.714460373E0
1.683366325E1,-1.167697430E0,2.105684042E0,8.329415321E0
1.684366325E1,-1.674975872E0,2.648854733E0,8.937192917E0
1.685366325E1,-2.409572363E0,2.952743053E0,8.800801277E0
1.686366325E1,-3.287738323E0,3.527020693E0,8.544769287E0
1.687366325E1,-3.287738323E0,3.527020693E0,8.544769287E0
1.688366325E1,-3.287738323E0,3.527020693E0,8.544769287E0
1.689366325E1,-2.969492912E0,3.828516245E0,7.965706348E0
1.690366325E1,-1.940579176E0,3.625126362E0,8.102097511E0
1.691366325E1,-1.940579176E0,3.625126362E0,8.102097511E0
1.692366325E1,-1.940579176E0,3.625126362E0,8.102097511E0
1.693366325E1,-1.940579176E0,3.625126362E0,8.102097511E0
1.694366325E1,-1.940579176E0,3.625126362E0,8.102097511E0
1.695366325E1,-5.144568682E-1,2.940778971E0,9.781859398E0
1.696366325E1,1.483550072E-1,2.912065268E0,1.055234814E1
1.697366325E1,1.179661512E0,2.835494757E0,1.101416302E1
1.698366325E1,1.179661512E0,2.835494757E0,1.101416302E1
1.699366325E1,1.179661512E0,2.835494757E0,1.101416302E1
1.700366325E1,-1.450050473E0,2.232503414E0,9.894321442E0
1.701366325E1,-1.701296926E0,2.127219439E0,9.798608780E0
1.702366325E1,-1.701296926E0,2.127219439E0,9.798608780E0
1.703366325E1,-3.134597540E-1,1.859223247E0,1.103809071E1
1.704366325E1,6.699903607E-1,1.942971945E0,1.180379391E1
1.705366325E1,6.699903607E-1,1.942971945E0,1.180379391E1
1.706366325E1,1.883151412E0,1.411765337E0,1.194018459E1
1.707366325E1,1.883151412E0,1.411765337E0,1.194018459E1
1.708366325E1,1.931007862E0,8.590233326E-1,1.132762241E1
1.709366325E1,1.203589797E0,1.055234790E0,1.102851963E1
1.710366325E1,2.847459018E-1,1.318445325E0,1.065045357E1
1.711366325E1,-7.657032460E-2,1.229910851E0,1.045902824E1
1.712366325E1,-7.657032460E-2,1.229910851E0,1.045902824E1
1.713366325E1,4.785645287E-3,6.197410822E-1,9.954142570E0
1.714366325E1,-9.571290575E-3,2.536391914E-1,9.930213928E0
1.715366325E1,-3.517449200E-1,2.249253243E-1,9.987641335E0
1.716366325E1,-9.379864931E-1,3.972085714E-1,9.827322960E0
1.717366325E1,-1.978864312E0,7.680960894E-1,9.308079720E0
1.718366325E1,-2.945564747E0,1.373480201E0,8.719446182E0
1.719366325E1,-3.486342669E0,2.311466694E0,7.628318787E0
1.720366325E1,-3.421736479E0,2.361716032E0,7.200003147E0
1.721366325E1,-3.156133175E0,2.275574446E0,6.927221775E0
1.722366325E1,-3.072384357E0,2.459821701E0,6.802794933E0
1.723366325E1,-3.455235958E0,2.732603550E0,6.738188744E0
1.724366325E1,-4.163511276E0,2.617748022E0,6.802794933E0
1.725366325E1,-4.948357105E0,2.440679073E0,6.860222340E0
1.726366325E1,-5.529813290E0,2.933600664E0,7.401000500E0
1.727366325E1,-4.857429981E0,3.156133175E0,7.829315662E0
1.728366325E1,-3.962514400E0,3.060420275E0,8.142775536E0
1.729366325E1,-3.282952785E0,2.842673302E0,8.293522835E0
1.730366325E1,-3.129812002E0,2.806781054E0,8.018348694E0
1.731366325E1,-3.196810961E0,2.754138947E0,7.546962738E0
1.732366325E1,-3.208775282E0,2.794816732E0,7.087540627E0
1.733366325E1,-3.397808075E0,3.452843189E0,6.644868374E0
1.734366325E1,-3.180061340E0,3.957728624E0,6.673582554E0
1.735366325E1,-2.825923443E0,4.108476639E0,6.908079147E0
1.736366325E1,-2.364108801E0,3.687339783E0,7.633104324E0
1.737366325E1,-2.103291035E0,3.273381472E0,8.626125336E0
1.738366325E1,-1.919043779E0,2.933600664E0,9.245866776E0
1.739366325E1,-2.246860504E0,2.955136061E0,9.597611427E0
1.740366325E1,-2.246860504E0,2.955136061E0,9.597611427E0
1.741366325E1,-2.246860504E0,2.955136061E0,9.597611427E0
1.742366325E1,-2.246860504E0,2.955136061E0,9.597611427E0
1.743366325E1,-2.246860504E0,2.955136061E0,9.597611427E0
1.744366325E1,-2.246860504E0,2.955136061E0,9.597611427E0
1.745366325E1,3.684946895E-1,1.253839016E0,1.136351490E1
1.746366325E1,-4.331009090E-1,1.682154298E0,1.171286678E1
1.747366325E1,-4.331009090E-1,1.682154298E0,1.171286678E1
1.748366325E1,-4.331009090E-1,1.682154298E0,1.171286678E1
1.749366325E1,-4.331009090E-1,1.682154298E0,1.171286678E1
1.750366325E1,-4.331009090E-1,1.682154298E0,1.171286678E1
1.751366325E1,-4.290330887E0,4.256831646E0,1.053799057E1
1.752366325E1,-3.457628727E0,4.572684288E0,9.547362328E0
1.753366325E1,-3.634697676E0,5.577669621E0,8.456234932E0
1.754366325E1,-3.634697676E0,5.577669621E0,8.456234932E0
1.755366325E1,-3.634697676E0,5.577669621E0,8.456234932E0
1.756366325E1,-8.705088615E0,5.395814896E0,6.994220734E0
1.757366325E1,-8.705088615E0,5.395814896E0,6.994220734E0
1.758366325E1,-6.561119556E0,3.376272678E0,9.198010445E0
1.759366325E1,-6.183053493E0,3.093919754E0,1.002114105E1
1.760366325E1,-6.754938126E0,2.732603550E0,1.056191921E1
1.761366325E1,-6.754938126E0,2.732603550E0,1.056191921E1
1.762366325E1,-6.754938126E0,2.732603550E0,1.056191921E1
1.763366325E1,-6.929614544E0,3.570091486E0,9.717252731E0
1.764366325E1,-6.738188744E0,3.806980848E0,8.831908226E0
1.765366325E1,-6.412764549E0,3.945764542E0,7.810173035E0
1.766366325E1,-6.180660725E0,4.096512318E0,7.099504948E0
1.767366325E1,-5.601597786E0,4.122833252E0,6.494120598E0
1.768366325E1,-3.943371773E0,3.424129248E0,6.202196121E0
1.769366325E1,-3.105883837E0,3.110669374E0,6.525227547E0
1.770366325E1,-2.502892494E0,2.921636343E0,7.001399040E0
1.771366325E1,-2.545963287E0,2.679961443E0,7.489534855E0
1.772366325E1,-3.273381472E0,2.431107759E0,8.176275253E0
1.773366325E1,-4.254438877E0,2.266003132E0,9.576076508E0
1.774366325E1,-5.146961689E0,2.081755638E0,1.139222908E1
1.775366325E1,-5.146961689E0,2.081755638E0,1.139222908E1
1.776366325E1,-6.173482418E0,3.096312523E0,1.204786205E1
1.777366325E1,-5.905486107E0,3.835694790E0,9.992427826E0
1.778366325E1,-5.831308842E0,4.278367043E0,8.279166222E0
1.779366325E1,-5.130211830E0,4.417150497E0,5.989234924E0
1.780366325E1,-4.304687977E0,3.926621914E0,3.704089403E0
1.781366325E1,-2.220539331E0,3.400201082E0,1.983649969E0
1.782366325E1,-5.982056633E-2,3.369094372E0,2.392822690E-2
1.783366325E1,1.119840980E0,3.412165165E0,-1.124626622E-1
1.784366325E1,1.493121386E0,3.689732552E0,-5.910272002E-1
1.785366325E1,1.110269666E0,3.498306751E0,-8.255237937E-1
1.786366325E1,9.810572863E-2,3.215953588E0,-2.679961324E-1
1.787366325E1,-1.141376376E0,3.148954630E0,9.978070259E-1
1.788366325E1,-2.021935225E0,3.168097258E0,3.081955671E0
1.789366325E1,-2.021935225E0,3.168097258E0,3.081955671E0
1.790366325E1,-2.021935225E0,3.168097258E0,3.081955671E0
1.791366325E1,-2.021935225E0,3.168097258E0,3.081955671E0
1.792366325E1,-2.021935225E0,3.168097258E0,3.081955671E0
1.793366325E1,-3.326023579E0,5.364708424E0,4.180261135E0
1.794366325E1,-3.687339783E0,5.998806477E0,3.201596737E0
1.795366325E1,-4.268795490E0,6.290730953E0,2.653640270E0
1.796366325E1,-4.268795490E0,6.290730953E0,2.653640270E0
1.797366325E1,-4.268795490E0,6.290730953E0,2.653640270E0
1.798366325E1,-4.268795490E0,6.290730953E0,2.653640270E0
1.799366325E1,-4.646861553E0,6.443871498E0,3.907479286E0
1.800366325E1,-4.689932346E0,6.960721016E0,3.974478483E0
1.801366325E1,-5.149354458E0,7.877171993E0,4.072584152E0
1.802366325E1,-5.022534847E0,7.996813297E0,4.331008911E0
1.803366325E1,-5.022534847E0,7.996813297E0,4.331008911E0
1.804366325E1,-5.022534847E0,7.996813297E0,4.331008911E0
1.805366325E1,-1.584048629E0,5.840879917E0,8.671588898E0
1.806366325E1,-1.584048629E0,5.840879917E0,8.671588898E0
1.807366325E1,-1.454836130E0,4.950749874E0,1.185404301E1
1.808366325E1,-1.902294040E0,5.280959606E0,1.364866066E1
1.809366325E1,-1.560120344E0,6.436692715E0,1.415354633E1
1.810366325E1,-1.560120344E0,6.436692715E0,1.415354633E1
1.811366325E1,-3.223132133E0,7.226324558E0,1.294995594E1
1.812366325E1,-3.223132133E0,7.226324558E0,1.294995594E1
1.813366325E1,-3.292523861E0,5.065605640E0,1.158604717E1
1.814366325E1,-2.914458036E0,4.106083870E0,1.180618668E1
1.815366325E1,-2.689532757E0,3.304488182E0,1.206461143E1
1.816366325E1,-2.622533560E0,2.947957516E0,1.218903828E1
1.817366325E1,-2.158325911E0,3.476771355E0,1.238525009E1
1.818366325E1,-1.942971945E0,3.744767427E0,1.201914787E1
1.819366325E1,-3.024527788E0,4.290330887E0,1.280877972E1
1.820366325E1,-3.424129248E0,4.859822750E0,1.329691505E1
1.821366325E1,-2.897708178E0,4.615755081E0,1.311506081E1
1.822366325E1,-2.900100946E0,4.694717884E0,1.251446247E1
1.823366325E1,-3.275774240E0,4.814359188E0,1.151186943E1
1.824366325E1,-3.615555048E0,3.053241730E0,1.059063339E1
1.825366325E1,-3.357130051E0,2.234896421E0,1.133719349E1
1.826366325E1,-3.000599623E0,1.596012712E0,1.217228889E1
1.827366325E1,-2.419143677E0,1.251446247E0,1.222971630E1
1.828366325E1,-2.158325911E0,7.010970116E-1,1.157169056E1
1.829366325E1,-2.060220242E0,1.282552958E0,1.066959572E1
1.830366325E1,-2.151147604E0,2.313859463E0,9.279366493E0
1.831366325E1,-1.028913736E0,2.787638426E0,5.479563713E0
1.832366325E1,-1.100698411E-1,2.170290232E0,4.656432629E0
1.833366325E1,6.795616150E-1,1.457229018E0,5.146961689E0
1.834366325E1,1.007378340E0,7.776673436E-1,6.400800705E0
1.835366325E1,3.086741269E-1,7.585247755E-1,7.231110096E0
1.836366325E1,-1.301695466E0,1.201196909E0,7.515855789E0
1.837366325E1,-3.345165968E0,1.703689694E0,7.980063438E0
1.838366325E1,-5.130211830E0,2.483749866E0,8.539983749E0
1.839366325E1,-4.838287354E0,2.500499725E0,8.250452042E0
1.840366325E1,-5.187639713E0,2.720639229E0,8.224131584E0
1.841366325E1,-5.484349728E0,3.034099102E0,8.214560509E0
1.842366325E1,-5.627918720E0,3.388236761E0,7.458428383E0
1.843366325E1,-6.147161484E0,3.864408493E0,6.831508636E0
1.844366325E1,-7.063612461E0,4.036691666E0,6.826723099E0
1.845366325E1,-7.712067604E0,3.730410576E0,8.075776100E0
1.846366325E1,-7.817351341E0,3.716053486E0,8.188239098E0
1.847366325E1,-8.822337151E0,4.223331928E0,7.994420528E0
1.848366325E1,-1.009771156E1,4.941178799E0,7.783852100E0
1.849366325E1,-1.009771156E1,4.941178799E0,7.783852100E0
1.850366325E1,-1.026281643E1,5.414957523E0,6.228517532E0
1.851366325E1,-9.315258980E0,6.027520180E0,5.154139996E0
1.852366325E1,-9.315258980E0,6.027520180E0,5.154139996E0
1.853366325E1,-9.315258980E0,6.027520180E0,5.154139996E0
1.854366325E1,-9.315258980E0,6.027520180E0,5.154139996E0
1.855366325E1,-3.859622955E0,5.324030399E0,2.031506538E0
1.856366325E1,-2.589034081E0,5.065605640E0,2.447857618E0
1.857366325E1,-1.512263894E0,4.771288395E0,3.345165968E0
1.858366325E1,-3.996013701E-1,4.711467743E0,3.972085476E0
1.859366325E1,-3.996013701E-1,4.711467743E0,3.972085476E0
1.860366325E1,-3.996013701E-1,4.711467743E0,3.972085476E0
1.861366325E1,-4.067798331E-2,5.395814896E0,4.019941807E0
1.862366325E1,-4.067798331E-2,5.395814896E0,4.019941807E0
1.863366325E1,-3.725624800E0,6.848258495E0,4.304687977E0
1.864366325E1,-2.603390932E0,7.231110096E0,3.357130051E0
1.865366325E1,-2.536391914E-1,7.731209755E0,2.852244616E0
1.866366325E1,-2.536391914E-1,7.731209755E0,2.852244616E0
1.867366325E1,-1.026520967E0,6.436692715E0,2.919243574E0
1.868366325E1,-3.409772158E0,5.958128452E0,5.824130535E0
1.869366325E1,-4.627718925E0,6.190232277E0,9.087940216E0
1.870366325E1,-4.654039860E0,6.360122681E0,1.071027374E1
1.871366325E1,-4.010370731E0,6.508477688E0,1.083709335E1
1.872366325E1,-3.065205812E0,6.841079712E0,9.923035622E0
1.873366325E1,-1.052842021E0,7.989634991E0,7.707281590E0
1.874366325E1,2.392822690E-2,7.970492363E0,6.518048763E0
1.875366325E1,9.499505758E-1,7.130611420E0,5.225924492E0
1.876366325E1,8.805587292E-1,5.438885689E0,4.673182487E0
1.877366325E1,-1.512263894E0,4.065405846E0,6.967899323E0
1.878366325E1,-1.820937991E0,3.687339783E0,8.683553696E0
1.879366325E1,-2.225325108E0,4.285545349E0,8.721838951E0
1.880366325E1,-2.225325108E0,4.285545349E0,8.721838951E0
1.881366325E1,-5.015356064E0,6.288337708E0,7.853243828E0
1.882366325E1,-3.873979807E0,6.352943897E0,7.379465103E0
1.883366325E1,-3.309273720E0,5.905486107E0,6.865008354E0
1.884366325E1,-4.029513359E0,5.414957523E0,6.896114826E0
1.885366325E1,-4.797609329E0,5.048855782E0,7.286144733E0
1.886366325E1,-5.450850010E0,4.445864677E0,7.917850018E0
1.887366325E1,-3.749552965E0,3.232703447E0,8.539983749E0
1.888366325E1,-2.708675146E0,2.840280533E0,8.178668022E0
1.889366325E1,-2.208575249E0,2.656033039E0,8.264809608E0
1.890366325E1,-2.555534601E0,3.232703447E0,8.099704742E0
1.891366325E1,-3.314059258E0,5.204389095E0,6.836294174E0
1.892366325E1,-6.398407936E0,7.197610378E0,5.438885689E0
1.893366325E1,-7.453642368E0,7.099504948E0,3.907479286E0
1.894366325E1,-9.427721500E-1,3.519842148E0,5.654240131E0
1.895366325E1,1.122233868E0,2.617748022E0,6.486942291E0
1.896366325E1,2.768495798E0,2.557927370E0,7.745566845E0
1.897366325E1,1.811366796E0,3.098705292E0,9.535398483E0
1.898366325E1,-5.838487148E-1,3.385843992E0,1.162672520E1
1.899366325E1,-3.091526747E0,3.835694790E0,1.317009544E1
1.900366325E1,-3.091526747E0,3.835694790E0,1.317009544E1
1.901366325E1,-3.091526747E0,3.835694790E0,1.317009544E1
1.902366325E1,-3.091526747E0,3.835694790E0,1.317009544E1
1.903366325E1,-3.091526747E0,3.835694790E0,1.317009544E1
1.904366325E1,-3.091526747E0,3.835694790E0,1.317009544E1
1.905366325E1,-5.398207664E0,5.546562672E0,5.063212872E0
1.906366325E1,-6.135197163E0,6.360122681E0,3.493520975E0
1.907366325E1,-6.135197163E0,6.360122681E0,3.493520975E0
1.908366325E1,-6.135197163E0,6.360122681E0,3.493520975E0
1.909366325E1,-6.135197163E0,6.360122681E0,3.493520975E0
1.910366325E1,-6.135197163E0,6.360122681E0,3.493520975E0
1.911366325E1,-6.434299946E0,8.721838951E0,3.318845034E0
1.912366325E1,-6.587440968E0,9.521040916E0,3.964907169E0
1.913366325E1,-7.700103283E0,9.121439934E0,6.082555294E0
1.914366325E1,-7.700103283E0,9.121439934E0,6.082555294E0
1.915366325E1,-7.700103283E0,9.121439934E0,6.082555294E0
1.916366325E1,-7.700103283E0,9.121439934E0,6.082555294E0
1.917366325E1,-7.700103283E0,9.121439934E0,6.082555294E0
1.918366325E1,-2.715853691E0,6.240481377E0,1.491924953E1
1.919366325E1,-2.321038008E0,6.711867332E0,1.479242992E1
1.920366325E1,-5.240281820E-1,6.159125328E0,1.292363548E1
1.921366325E1,-5.240281820E-1,6.159125328E0,1.292363548E1
1.922366325E1,-5.240281820E-1,6.159125328E0,1.292363548E1
1.923366325E1,2.766103029E0,2.797209740E0,8.066205025E0
1.924366325E1,1.651047587E0,1.957328916E0,9.245866776E0
1.925366325E1,8.494520187E-1,1.375872970E0,1.211246777E1
1.926366325E1,4.809573650E0,1.062413216E0,1.072941685E1
1.927366325E1,5.831308842E0,1.536192179E0,8.925228119E0
1.928366325E1,5.831308842E0,1.536192179E0,8.925228119E0
1.929366325E1,-6.221338734E-2,3.716053486E0,1.095194912E1
1.930366325E1,-6.221338734E-2,3.716053486E0,1.095194912E1
1.931366325E1,-1.033699393E0,2.586641312E0,7.042077065E0
1.932366325E1,-1.715653777E0,2.608176708E0,5.656632900E0
1.933366325E1,-2.782852650E0,2.718246460E0,4.689932346E0
1.934366325E1,-4.311866283E0,2.488535643E0,5.644668579E0
1.935366325E1,-4.311866283E0,2.488535643E0,5.644668579E0
1.936366325E1,-2.947957516E0,3.170490026E0,5.046463013E0
1.937366325E1,-2.098505497E0,3.304488182E0,4.165904045E0
1.938366325E1,-1.478764415E0,2.574677229E0,3.897907972E0
1.939366325E1,-1.911865234E0,2.914458036E0,4.402793884E0
1.940366325E1,-9.475577474E-1,1.737189293E0,5.132604599E0
1.941366325E1,1.122233868E0,4.666004181E-1,5.704489231E0
1.942366325E1,2.088934183E0,-5.958128572E-1,6.766902447E0
1.943366325E1,2.088934183E0,-5.958128572E-1,6.766902447E0
1.944366325E1,7.154539824E-1,8.614161611E-2,8.425128937E0
1.945366325E1,4.833501875E-1,1.098305583E0,8.578269005E0
1.946366325E1,6.652047038E-1,1.040877819E0,7.683353424E0
1.947366325E1,9.499505758E-1,1.399801254E0,7.616354465E0
1.948366325E1,4.761717021E-1,2.158325911E0,7.582854748E0
1.949366325E1,-1.459621787E0,3.239881754E0,8.118846893E0
1.950366325E1,-2.687139750E0,3.737588882E0,8.417949677E0
1.951366325E1,-3.594019651E0,3.936193228E0,9.870393753E0
1.952366325E1,-4.055834293E0,4.376472473E0,1.004506969E1
1.953366325E1,-3.314059258E0,4.357329845E0,9.643074989E0
1.954366325E1,-3.314059258E0,4.357329845E0,9.643074989E0
1.955366325E1,-5.096712112E-1,5.484349728E0,1.055952644E1
1.956366325E1,-5.096712112E-1,5.484349728E0,1.055952644E1
1.957366325E1,-5.096712112E-1,5.484349728E0,1.055952644E1
1.958366325E1,-5.096712112E-1,5.484349728E0,1.055952644E1
1.959366325E1,-5.096712112E-1,5.484349728E0,1.055952644E1
1.960366325E1,-5.096712112E-1,5.484349728E0,1.055952644E1
1.961366325E1,1.737189293E0,2.806781054E0,1.797488403E1
1.962366325E1,9.212366939E-1,2.285145521E0,1.916890144E1
1.963366325E1,9.212366939E-1,2.285145521E0,1.916890144E1
1.964366325E1,9.212366939E-1,2.285145521E0,1.916890144E1
1.965366325E1,9.212366939E-1,2.285145521E0,1.916890144E1
1.966366325E1,3.672982693E0,4.663611412E0,4.438685894E0
1.967366325E1,5.259424210E0,5.340780258E0,1.596012712E0
1.968366325E1,6.027520180E0,4.594219685E0,-4.929214716E-1
1.969366325E1,6.745367050E0,2.981456995E0,-1.349551916E0
1.970366325E1,6.745367050E0,2.981456995E0,-1.349551916E0
1.971366325E1,1.251446247E0,2.361716032E0,7.355536938E0
1.972366325E1,-9.116654396E-1,3.196810961E0,9.949356079E0
1.973366325E1,-3.433700562E0,4.072584152E0,1.117687416E1
1.974366325E1,-6.396014690E0,4.749752998E0,1.200718403E1
1.975366325E1,-9.442078590E0,4.316651821E0,1.402672672E1
1.976366325E1,-1.092562866E1,3.862015724E0,1.571127319E1
1.977366325E1,-1.092562866E1,3.862015724E0,1.571127319E1
1.978366325E1,-1.092562866E1,3.862015724E0,1.571127319E1
1.979366325E1,-3.433700562E0,-4.785645381E-2,1.917129517E1
1.980366325E1,-2.809173822E0,3.493520916E-1,1.735274887E1
1.981366325E1,-2.079362869E0,8.303094506E-1,1.498864079E1
1.982366325E1,-7.968099117E-1,1.043270707E0,1.281595802E1
1.983366325E1,-6.173482537E-1,1.215553880E0,1.109791183E1
1.984366325E1,-1.854437590E0,2.330609322E0,8.360522270E0
1.985366325E1,-1.600798368E0,2.177468538E0,7.066005230E0
1.986366325E1,-2.416750938E-1,1.591227055E0,6.072983742E0
1.987366325E1,8.135597110E-1,1.780260086E0,5.412564754E0
1.988366325E1,1.153340459E0,1.895115495E0,5.240281582E0
1.989366325E1,7.800601721E-1,1.744367719E0,5.745167255E0
1.990366325E1,4.307080805E-1,1.677368641E0,7.252645493E0
1.991366325E1,-2.632104978E-2,2.672782898E0,1.228714466E1
1.992366325E1,1.127019525E0,2.409572363E0,1.175115204E1
1.993366325E1,1.567298889E0,1.696511269E0,1.064088249E1
1.994366325E1,1.859223247E0,1.517049551E0,9.686145782E0
1.995366325E1,2.517249346E0,8.757730722E-1,8.937192917E0
1.996366325E1,3.108276606E0,4.785645306E-1,8.130811691E0
1.997366325E1,1.653440475E0,9.762716293E-1,8.068597794E0
1.998366325E1,-3.254238844E0,3.385843992E0,9.336793900E0
1.999366325E1,-4.867001057E0,4.496113777E0,1.019103146E1
2.000366325E1,-4.778466702E0,4.984249592E0,1.068395329E1
2.001366325E1,-5.345565796E0,5.048855782E0,1.012642574E1
2.002366325E1,-4.603790760E0,5.041677475E0,6.494120598E0
2.003366325E1,-5.592026711E0,4.517649174E0,4.132404804E0
2.004366325E1,-7.566105366E0,4.479363918E0,2.603390932E0
2.005366325E1,-7.566105366E0,4.479363918E0,2.603390932E0
2.006366325E1,-7.566105366E0,4.479363918E0,2.603390932E0
2.007366325E1,-7.566105366E0,4.479363918E0,2.603390932E0
2.008366325E1,-7.566105366E0,4.479363918E0,2.603390932E0
2.009366325E1,-6.116054535E0,3.876372576E0,2.656033039E0
2.010366325E1,-4.914857864E0,3.337987661E0,3.790230989E0
2.011366325E1,-2.785245657E0,2.088934183E0,5.158925533E0
2.012366325E1,-2.785245657E0,2.088934183E0,5.158925533E0
2.013366325E1,-2.785245657E0,2.088934183E0,5.158925533E0
2.014366325E1,-2.785245657E0,2.088934183E0,5.158925533E0
2.015366325E1,-2.785245657E0,2.088934183E0,5.158925533E0
2.016366325E1,-2.785245657E0,2.088934183E0,5.158925533E0
2.017366325E1,-2.785245657E0,2.088934183E0,5.158925533E0
2.018366325E1,-5.240281582E0,5.276174068E0,1.167697430E1
2.019366325E1,-5.240281582E0,5.276174068E0,1.167697430E1
2.020366325E1,-5.240281582E0,5.276174068E0,1.167697430E1
2.021366325E1,-5.240281582E0,5.276174068E0,1.167697430E1
2.022366325E1,-5.240281582E0,5.276174068E0,1.167697430E1
2.023366325E1,-4.936393261E0,8.054241180E0,2.734996319E0
2.024366325E1,-4.864608288E0,8.159524918E0,2.141576290E0
2.025366325E1,-4.479363918E0,7.814958572E0,2.100898266E0
2.026366325E1,-4.479363918E0,7.814958572E0,2.100898266E0
2.027366325E1,3.902693748E0,4.457828522E0,5.340780258E0
2.028366325E1,5.431707382E0,3.687339783E0,7.034898758E0
2.029366325E1,5.278566837E0,3.201596737E0,9.583254814E0
2.030366325E1,4.189832687E0,2.445464849E0,1.240917778E1
2.031366325E1,2.979064226E0,1.433300734E0,1.489053535E1
2.032366325E1,2.979064226E0,1.433300734E0,1.489053535E1
2.033366325E1,2.979064226E0,1.433300734E0,1.489053535E1
2.034366325E1,3.567698479E0,1.473978758E0,1.392144203E1
2.035366325E1,3.574877024E0,1.639083505E0,1.096869946E1
2.036366325E1,3.534198999E0,1.521835208E0,8.757730484E0
2.037366325E1,3.644268990E0,1.217946768E0,7.755138397E0
2.038366325E1,3.574877024E0,1.263410330E0,7.238288403E0
2.039366325E1,2.725425005E0,1.318445325E0,7.637889862E0
2.040366325E1,6.699903309E-2,1.631905079E0,8.803194046E0
2.041366325E1,-1.002592683E0,2.311466694E0,9.485149384E0
2.042366325E1,-1.897508383E0,2.787638426E0,9.793823242E0
2.043366325E1,-2.270788670E0,2.481357098E0,9.791430473E0
2.044366325E1,-1.567298889E0,1.947757602E0,9.609575272E0
2.045366325E1,1.100698411E-1,1.421336651E0,9.425328255E0
2.046366325E1,1.079162955E0,8.327022791E-1,9.047262192E0
2.047366325E1,1.476371527E0,5.359922647E-1,9.920642853E0
2.048366325E1,7.274180651E-1,6.245267391E-1,1.034656525E1
2.049366325E1,2.991028428E-1,1.490728498E0,1.062652493E1
2.050366325E1,-1.698904037E-1,2.531606436E0,1.032024384E1
2.051366325E1,-5.144568682E-1,3.050848961E0,9.894321442E0
2.052366325E1,-3.924229145E-1,3.132204771E0,9.396614075E0
2.053366325E1,-4.307080805E-1,2.991028309E0,9.343972206E0
2.054366325E1,-1.148554921E0,2.457428932E0,1.094237804E1
2.055366325E1,-1.469193101E0,2.122433662E0,1.202154064E1
2.056366325E1,-2.251646042E0,2.524427891E0,1.280160141E1
2.057366325E1,-3.168097258E0,3.196810961E0,1.291884899E1
2.058366325E1,-3.629911900E0,3.543770313E0,1.207657623E1
2.059366325E1,-4.742574692E0,4.230510235E0,1.109312534E1
2.060366325E1,-4.902893543E0,4.565505505E0,9.848857880E0
2.061366325E1,-5.582455158E0,5.845665932E0,8.181060791E0
2.062366325E1,-4.228117466E0,5.599205017E0,7.886743546E0
2.063366325E1,-3.917050600E0,5.481956482E0,7.113861561E0
2.064366325E1,-3.347558975E0,5.867201328E0,6.903293133E0
2.065366325E1,-1.995614052E0,5.534598827E0,5.967699528E0
2.066366325E1,-8.662018180E-1,5.082355499E0,4.871787071E0
2.067366325E1,2.392822644E-3,4.883750916E0,4.345366001E0
2.068366325E1,2.392822644E-3,4.883750916E0,4.345366001E0
2.069366325E1,2.392822644E-3,4.883750916E0,4.345366001E0
2.070366325E1,2.392822644E-3,4.883750916E0,4.345366001E0
2.071366325E1,2.392822644E-3,4.883750916E0,4.345366001E0
2.072366325E1,2.392822644E-3,4.883750916E0,4.345366001E0
2.073366325E1,-9.379864931E-1,4.534399033E0,7.671389580E0
2.074366325E1,-1.134197950E0,4.469792843E0,7.721638680E0
2.075366325E1,-1.134197950E0,4.469792843E0,7.721638680E0
2.076366325E1,-1.134197950E0,4.469792843E0,7.721638680E0
2.077366325E1,-1.134197950E0,4.469792843E0,7.721638680E0
2.078366325E1,-1.134197950E0,4.469792843E0,7.721638680E0
2.079366325E1,-1.277767301E0,1.043270707E0,5.816951752E0
2.080366325E1,-3.637090325E-1,2.440679073E-1,7.322037220E0
2.081366325E1,3.134597540E-1,-8.135596663E-2,8.090133667E0
2.082366325E1,3.134597540E-1,-8.135596663E-2,8.090133667E0
2.083366325E1,3.134597540E-1,-8.135596663E-2,8.090133667E0
2.084366325E1,-4.173082829E0,-7.537391186E-1,1.071027374E1
2.085366325E1,-6.116054535E0,-1.184447169E0,1.285424328E1
2.086366325E1,-6.654439926E0,-2.055434704E0,1.380658627E1
2.087366325E1,-6.321837425E0,-2.766103029E0,1.374437332E1
