"Time (s)","Gyroscope x (rad/s)","Gyroscope y (rad/s)","Gyroscope z (rad/s)"
8.513716000E-3,-1.090393662E-1,6.423243284E-1,-1.510363221E-1
1.726080000E-2,-4.413498044E-1,1.093753338E0,-1.974620372E-1
2.726080000E-2,-8.298597932E-1,1.642920852E0,-2.139553875E-1
3.726080000E-2,-1.212872028E0,2.154214621E0,-1.577558219E-1
4.726080000E-2,-1.454774499E0,2.416275740E0,-4.718930274E-2
5.726080000E-2,-1.555567145E0,2.239735603E0,7.681624591E-2
6.726080000E-2,-1.718668103E0,1.437670231E0,2.600756884E-1
7.726080000E-2,-1.901316643E0,5.024362803E-1,5.606211424E-1
8.726080000E-2,-1.375972867E0,-2.281579971E-1,9.436333776E-1
9.726080000E-2,-9.734130502E-1,-4.187478125E-1,9.925025702E-1
1.072608000E-1,-5.696313977E-1,-5.781835318E-1,9.485203028E-1
1.172608000E-1,-2.397644222E-1,-8.054252267E-1,8.287907839E-1
1.272608000E-1,-2.168569900E-2,-9.495893121E-1,7.243329287E-1
1.372608000E-1,1.230892539E-1,-9.104939699E-1,6.882919073E-1
1.472608000E-1,2.257145345E-1,-6.679806113E-1,6.766854525E-1
1.572608000E-1,2.861901522E-1,-9.193515033E-2,5.508472919E-1
1.672608000E-1,2.116646469E-1,3.390299529E-2,4.769326746E-1
1.772608000E-1,1.377500147E-1,9.254601598E-2,3.486510813E-1
1.872608000E-1,1.096502244E-1,8.765909821E-2,1.763872057E-1
1.972608000E-1,9.498947114E-2,1.322522312E-1,2.489273995E-2
2.072608000E-1,4.428769648E-2,2.208276242E-1,-8.506292105E-2
2.172608000E-1,2.290742844E-2,2.251036763E-1,-6.001746282E-2
2.272608000E-1,2.290742844E-2,2.251036763E-1,-6.001746282E-2
2.372608000E-1,2.290742844E-2,2.251036763E-1,-6.001746282E-2
2.472608000E-1,2.290742844E-2,2.251036763E-1,-6.001746282E-2
2.572608000E-1,2.290742844E-2,2.251036763E-1,-6.001746282E-2
2.672608000E-1,2.886336148E-1,3.631591201E-1,2.570213675E-1
2.772608000E-1,2.947422564E-1,3.533852696E-1,1.146898642E-1
2.872608000E-1,2.501491308E-1,3.075704277E-1,7.788525894E-3
2.972608000E-1,2.501491308E-1,3.075704277E-1,7.788525894E-3
3.072608000E-1,2.501491308E-1,3.075704277E-1,7.788525894E-3
3.172608000E-1,2.501491308E-1,3.075704277E-1,7.788525894E-3
3.272608000E-1,-2.800815105E-1,1.233030558E0,7.131846249E-2
3.372608000E-1,-3.973675370E-1,1.531743407E0,-6.261364091E-3
3.472608000E-1,-5.244274139E-1,1.729052782E0,-1.828012913E-1
3.572608000E-1,-7.199041247E-1,1.532965183E0,-4.308123887E-1
3.672608000E-1,-7.199041247E-1,1.532965183E0,-4.308123887E-1
3.772608000E-1,-8.927788734E-1,9.581413865E-1,-6.214022040E-1
3.872608000E-1,-8.182533979E-1,8.042035103E-1,-5.248855352E-1
3.972608000E-1,-6.655371785E-1,6.349939108E-1,-4.240928590E-1
4.072608000E-1,-4.584540129E-1,4.645626545E-1,-3.483456373E-1
4.172608000E-1,-2.464839369E-1,3.796524704E-1,-2.756527364E-1
4.272608000E-1,-1.163697392E-1,3.686569035E-1,-1.656970680E-1
4.372608000E-1,-4.156934917E-1,-4.480693042E-1,7.803797722E-2
4.472608000E-1,-7.840449214E-1,-1.120020628E0,2.362519503E-1
4.572608000E-1,-1.125518322E0,-1.390633702E0,5.832231641E-1
4.672608000E-1,-1.289230108E0,-1.024725676E0,1.216689944E0
4.772608000E-1,-1.280678034E0,-4.254673123E-1,1.910632372E0
4.872608000E-1,-1.039386392E0,4.306596518E-2,2.407265425E0
4.972608000E-1,-4.841103256E-1,3.992001414E-1,2.610072374E0
5.072608000E-1,9.648609161E-1,9.477567077E-1,2.166584730E0
5.172608000E-1,1.510363221E0,1.034499526E0,1.781739831E0
5.272608000E-1,1.939190269E0,1.058934093E0,1.440877318E0
5.372608000E-1,1.939190269E0,1.058934093E0,1.440877318E0
5.472608000E-1,1.939190269E0,1.058934093E0,1.440877318E0
5.572608000E-1,2.289826632E0,1.279456258E0,7.096721530E-1
5.672608000E-1,1.997833252E0,1.600771189E0,6.320923567E-1
5.772608000E-1,1.997833252E0,1.600771189E0,6.320923567E-1
5.872608000E-1,1.997833252E0,1.600771189E0,6.320923567E-1
5.972608000E-1,1.997833252E0,1.600771189E0,6.320923567E-1
6.072608000E-1,-5.354229808E-1,4.095848203E-1,1.250898361E0
6.172608000E-1,-9.813542962E-1,4.114174247E-1,1.308930516E0
6.272608000E-1,-1.339931846E0,5.390881896E-1,1.334586859E0
6.372608000E-1,-1.613599300E0,8.078686595E-1,1.308319688E0
6.472608000E-1,-1.613599300E0,8.078686595E-1,1.308319688E0
6.572608000E-1,-1.771813273E0,1.819460750E0,9.876156449E-1
6.672608000E-1,-1.501200199E0,2.040593863E0,8.892664313E-1
6.772608000E-1,-1.157894135E0,2.087630272E0,7.670934200E-1
6.872608000E-1,-7.980948091E-1,1.908036113E0,6.357575059E-1
6.972608000E-1,-4.205803871E-1,1.627649188E0,5.258018374E-1
7.072608000E-1,-4.001164436E-2,1.272736788E0,4.347830117E-1
7.172608000E-1,-4.001164436E-2,1.272736788E0,4.347830117E-1
7.272608000E-1,8.640682101E-1,4.489856213E-2,1.562286615E-1
7.372608000E-1,9.868520498E-1,-3.472766280E-1,6.887500733E-2
7.472608000E-1,9.990693331E-1,-6.820304990E-1,5.345067009E-3
7.572608000E-1,9.306524992E-1,-8.316923976E-1,-2.764163166E-2
7.672608000E-1,8.359684348E-1,-7.370083332E-1,-2.458730713E-2
7.772608000E-1,7.632755637E-1,-4.199695289E-1,-1.420260593E-2
7.872608000E-1,6.539307237E-1,2.904661894E-1,-1.420260593E-2
7.972608000E-1,5.665770769E-1,4.169152081E-1,1.878409274E-2
8.072608000E-1,4.419606626E-1,3.326158822E-1,8.170316368E-2
8.172608000E-1,2.758054435E-1,7.360920310E-2,1.207985133E-1
8.272608000E-1,8.643736690E-2,-2.446513474E-1,9.330959618E-2
8.372608000E-1,-9.437860548E-2,-4.938841760E-1,2.061668597E-2
8.472608000E-1,-2.281579971E-1,-5.665770769E-1,-4.291325063E-2
8.572608000E-1,-2.281579971E-1,-5.665770769E-1,-4.291325063E-2
8.672608000E-1,-2.281579971E-1,-5.665770769E-1,-4.291325063E-2
8.772608000E-1,-2.281579971E-1,-5.665770769E-1,-4.291325063E-2
8.872608000E-1,-2.281579971E-1,-5.665770769E-1,-4.291325063E-2
8.972608000E-1,5.183187723E-1,-8.469640017E-1,9.575305134E-2
9.072608000E-1,6.753110290E-1,-8.280271888E-1,3.590357602E-1
9.172608000E-1,7.883210182E-1,-7.870992422E-1,6.082686186E-1
9.272608000E-1,7.883210182E-1,-7.870992422E-1,6.082686186E-1
9.372608000E-1,7.883210182E-1,-7.870992422E-1,6.082686186E-1
9.472608000E-1,7.883210182E-1,-7.870992422E-1,6.082686186E-1
9.572608000E-1,6.239983439E-1,-5.342012644E-1,5.832231641E-1
9.672608000E-1,4.602866173E-1,-5.372555852E-1,4.659371078E-1
9.772608000E-1,2.678641975E-1,-6.105593443E-1,3.498727977E-1
9.872608000E-1,5.955931544E-2,-6.771436334E-1,2.619082630E-1
9.972608000E-1,5.955931544E-2,-6.771436334E-1,2.619082630E-1
1.007260800E0,5.955931544E-2,-6.771436334E-1,2.619082630E-1
1.017260800E0,-5.091558099E-1,1.114828214E-1,-1.363755614E-1
1.027260800E0,-5.653553605E-1,5.036579967E-1,-2.689332068E-1
1.037260800E0,-6.007854939E-1,8.390227556E-1,-3.605629504E-1
1.047260800E0,-6.288852692E-1,1.036942959E0,-4.283689260E-1
1.057260800E0,-6.514872909E-1,1.051603675E0,-4.802924395E-1
1.067260800E0,-6.514872909E-1,1.051603675E0,-4.802924395E-1
1.077260800E0,-5.677987933E-1,3.478874862E-1,-4.253146052E-1
1.087260800E0,-4.780016840E-1,-2.134972364E-1,-4.436405599E-1
1.097260800E0,-3.955349326E-1,-7.870992422E-1,-5.322159529E-1
1.107260800E0,-3.258963525E-1,-1.246469617E0,-6.305651665E-1
1.117260800E0,-2.678641975E-1,-1.486539483E0,-6.977602839E-1
1.127260800E0,-2.342666388E-1,-1.553734541E0,-6.721040010E-1
1.137260800E0,-3.356702030E-1,-1.420566082E0,-3.116937578E-1
1.147260800E0,-4.688387215E-1,-1.243415236E0,-2.947422490E-2
1.157260800E0,-6.087267399E-1,-9.960150123E-1,2.423606068E-1
1.167260800E0,-7.021890879E-1,-7.950404882E-1,4.195113778E-1
1.177260800E0,-7.241802216E-1,-5.965094566E-1,4.848739207E-1
1.187260800E0,-6.881392002E-1,-3.973675370E-1,4.537198246E-1
1.197260800E0,-6.246092319E-1,-2.434296161E-1,3.474293351E-1
1.207260800E0,-4.407389462E-1,-1.078176349E-1,-1.970038936E-2
1.217260800E0,-3.210094273E-1,-9.315688163E-2,-2.188423127E-1
1.227260800E0,-1.750127524E-1,-1.065959036E-1,-3.825540543E-1
1.237260800E0,-7.024944760E-3,-1.469129771E-1,-4.839576185E-1
1.247260800E0,1.786779463E-1,-2.012799382E-1,-4.998401105E-1
1.257260800E0,3.240637779E-1,-1.316413581E-1,-4.497492015E-1
1.267260800E0,4.291325212E-1,1.182023361E-1,-3.660607338E-1
1.277260800E0,4.291325212E-1,1.182023361E-1,-3.660607338E-1
1.287260800E0,4.291325212E-1,1.182023361E-1,-3.660607338E-1
1.297260800E0,4.291325212E-1,1.182023361E-1,-3.660607338E-1
1.307260800E0,4.291325212E-1,1.182023361E-1,-3.660607338E-1
1.317260800E0,4.822777510E-1,6.264418364E-1,-4.161516428E-1
1.327260800E0,3.717112243E-1,5.073232055E-1,-4.796815813E-1
1.337260800E0,2.825249732E-1,3.863719702E-1,-4.937314689E-1
1.347260800E0,2.825249732E-1,3.863719702E-1,-4.937314689E-1
1.357260800E0,2.825249732E-1,3.863719702E-1,-4.937314689E-1
1.367260800E0,2.825249732E-1,3.863719702E-1,-4.937314689E-1
1.377260800E0,3.454440236E-1,1.029307172E-1,-1.259908676E-1
1.387260800E0,3.387245238E-1,7.544180006E-2,-1.015562713E-1
1.397260800E0,3.032943606E-1,7.544180006E-2,-8.384118974E-2
1.407260800E0,2.434296161E-1,1.035415828E-1,-7.589995116E-2
1.417260800E0,2.434296161E-1,1.035415828E-1,-7.589995116E-2
1.427260800E0,2.434296161E-1,1.035415828E-1,-7.589995116E-2
1.437260800E0,7.483093441E-2,2.996291816E-1,-6.856957078E-2
1.447260800E0,7.605266571E-2,2.391535640E-1,2.901607659E-3
1.457260800E0,7.422006875E-2,1.853974611E-1,1.104138121E-1
1.467260800E0,7.116574794E-2,1.731801629E-1,2.246455252E-1
1.477260800E0,7.544180006E-2,1.603520066E-1,3.119991720E-1
1.487260800E0,7.544180006E-2,1.603520066E-1,3.119991720E-1
1.497260800E0,2.666424811E-1,-2.159406990E-1,2.625191510E-1
1.507260800E0,3.497200906E-1,-2.641990185E-1,2.099847645E-1
1.517260800E0,4.334085584E-1,-2.629773021E-1,1.660024971E-1
1.527260800E0,5.219839811E-1,-2.996291816E-1,1.177441850E-1
1.537260800E0,5.891790986E-1,-3.680460155E-1,3.772090003E-2
1.547260800E0,5.995637774E-1,-3.967566788E-1,-6.551524997E-2
1.557260800E0,3.258963525E-1,-3.359756200E-3,-7.895427197E-2
1.567260800E0,6.017018110E-2,3.961458206E-1,9.330959618E-2
1.577260800E0,-1.689041108E-1,7.406735420E-1,3.370446563E-1
1.587260800E0,-2.696968019E-1,9.098830819E-1,5.642863512E-1
1.597260800E0,-2.177732885E-1,9.013310075E-1,7.206677198E-1
1.607260800E0,-6.994401664E-2,7.773254514E-1,7.964149714E-1
1.617260800E0,9.498947114E-2,6.142245531E-1,8.067996502E-1
1.627260800E0,2.409861535E-1,3.698786199E-1,6.913462281E-1
1.637260800E0,2.458730787E-1,2.495382577E-1,5.929969549E-1
1.647260800E0,2.354883701E-1,1.316413581E-1,5.019781590E-1
1.657260800E0,1.927278340E-1,4.123337194E-2,4.243983030E-1
1.667260800E0,1.127045527E-1,-2.779434808E-2,3.736965358E-1
1.677260800E0,-1.252272818E-2,-7.971785218E-2,3.614792228E-1
1.687260800E0,-1.725693047E-1,-8.460476995E-2,4.042397738E-1
1.697260800E0,-4.523453712E-1,7.238747925E-2,6.357575059E-1
1.707260800E0,-5.006036758E-1,1.579085439E-1,7.493783832E-1
1.717260800E0,-5.006036758E-1,1.579085439E-1,7.493783832E-1
1.727260800E0,-5.006036758E-1,1.579085439E-1,7.493783832E-1
1.737260800E0,-2.971857190E-1,2.079994529E-1,7.102830410E-1
1.747260800E0,-1.823431402E-1,4.612028971E-2,5.972730517E-1
1.757260800E0,-6.750056148E-2,-1.640172005E-1,4.854847789E-1
1.767260800E0,-6.750056148E-2,-1.640172005E-1,4.854847789E-1
1.777260800E0,-6.750056148E-2,-1.640172005E-1,4.854847789E-1
1.787260800E0,-6.750056148E-2,-1.640172005E-1,4.854847789E-1
1.797260800E0,2.599229515E-1,-1.444695145E-1,3.382663727E-1
1.807260800E0,2.898553312E-1,-9.468403645E-3,3.627009690E-1
1.817260800E0,3.191768527E-1,9.743293375E-2,3.724747896E-1
1.827260800E0,3.466657698E-1,1.737910360E-1,3.455967605E-1
1.837260800E0,3.466657698E-1,1.737910360E-1,3.455967605E-1
1.847260800E0,3.613265157E-1,1.285870373E-1,9.941824526E-2
1.857260800E0,3.399462402E-1,1.090393662E-1,8.399390616E-3
1.867260800E0,3.130682111E-1,9.987638891E-2,-6.551524997E-2
1.877260800E0,2.910770774E-1,1.004872546E-1,-1.143844277E-1
1.887260800E0,2.935205400E-1,1.243109852E-1,-1.375972927E-1
1.897260800E0,3.399462402E-1,1.701258421E-1,-1.430950761E-1
1.907260800E0,5.488619804E-1,1.878409237E-1,-1.021671370E-1
1.917260800E0,6.533198953E-1,2.067777216E-1,-5.635227636E-2
1.927260800E0,6.863065958E-1,2.861901522E-1,-3.313941509E-2
1.937260800E0,6.502655745E-1,3.619373739E-1,-4.046979174E-2
1.947260800E0,5.842921734E-1,3.539961278E-1,-4.841103405E-2
1.957260800E0,5.018253922E-1,2.849684060E-1,-5.513054505E-2
1.967260800E0,4.254673123E-1,1.591302752E-1,-7.345648855E-2
1.977260800E0,3.613265157E-1,-1.866191924E-1,-7.101303339E-2
1.987260800E0,3.594939113E-1,-3.258963525E-1,-3.924806044E-2
1.997260800E0,3.588830531E-1,-4.260781705E-1,-7.483093534E-3
2.007260800E0,3.252854943E-1,-4.761691093E-1,2.306014486E-2
2.017260800E0,2.422078848E-1,-4.480693042E-1,5.971203372E-2
2.027260800E0,1.182023361E-1,-4.004218578E-1,1.055268943E-1
2.037260800E0,-2.046396956E-2,-3.582721949E-1,1.568395346E-1
2.047260800E0,-2.367101014E-1,-2.660316229E-1,2.020435184E-1
2.057260800E0,-2.947422564E-1,-3.118464649E-1,1.189659163E-1
2.067260800E0,-2.947422564E-1,-3.118464649E-1,1.189659163E-1
2.077260800E0,-2.947422564E-1,-3.118464649E-1,1.189659163E-1
2.087260800E0,-2.202167511E-1,-5.079340935E-1,-2.774853408E-1
2.097260800E0,-1.823431402E-1,-4.547888339E-1,-2.994764447E-1
2.107260800E0,-2.318231910E-1,-2.422078848E-1,-2.750418782E-1
2.117260800E0,-2.318231910E-1,-2.422078848E-1,-2.750418782E-1
2.127260800E0,-2.318231910E-1,-2.422078848E-1,-2.750418782E-1
2.137260800E0,-2.318231910E-1,-2.422078848E-1,-2.750418782E-1
2.147260800E0,-2.189950198E-1,4.486801922E-1,-2.176205814E-1
2.157260800E0,-9.132428467E-2,4.944950342E-1,-2.579376400E-1
2.167260800E0,4.367683083E-2,4.486801922E-1,-2.988655865E-1
2.177260800E0,1.591302752E-1,3.924806118E-1,-3.190241456E-1
2.187260800E0,1.591302752E-1,3.924806118E-1,-3.190241456E-1
2.197260800E0,1.591302752E-1,3.924806118E-1,-3.190241456E-1
2.207260800E0,-8.582650125E-2,4.218021333E-1,-4.827359021E-1
2.217260800E0,-2.055560052E-1,4.150826037E-1,-4.705185890E-1
2.227260800E0,-2.880227566E-1,3.222311735E-1,-4.155407548E-1
2.237260800E0,-3.399462402E-1,2.049451321E-1,-3.342957497E-1
2.247260800E0,-3.735437989E-1,1.035415828E-1,-2.542724609E-1
2.257260800E0,-3.735437989E-1,1.035415828E-1,-2.542724609E-1
2.267260800E0,-4.230238497E-1,-2.214384824E-1,-2.109010667E-1
2.277260800E0,-4.566214085E-1,-3.717112243E-1,-2.609919906E-1
2.287260800E0,-5.085449219E-1,-5.085449219E-1,-3.355174661E-1
2.297260800E0,-5.702422857E-1,-6.020072699E-1,-4.234820008E-1
2.307260800E0,-6.197223067E-1,-6.649262905E-1,-5.212203860E-1
2.317260800E0,-6.472112536E-1,-7.492256761E-1,-6.146826744E-1
2.327260800E0,-6.307178736E-1,-1.018006206E0,-7.411317229E-1
2.337260800E0,-6.123919487E-1,-1.146287799E0,-7.472403646E-1
2.347260800E0,-6.044507027E-1,-1.266628146E0,-7.313578725E-1
2.357260800E0,-6.130027771E-1,-1.339321017E0,-7.148644924E-1
2.367260800E0,-6.258309484E-1,-1.257465124E0,-6.928733587E-1
2.377260800E0,-6.282744408E-1,-1.025336504E0,-6.910407543E-1
2.387260800E0,-5.965094566E-1,-7.046325207E-1,-7.081450224E-1
2.397260800E0,-3.924806118E-1,-1.908952445E-1,-7.283035517E-1
2.407260800E0,-2.257145345E-1,-1.237001196E-1,-7.173079848E-1
2.417260800E0,-3.268126398E-2,-1.707367003E-1,-7.057015300E-1
2.427260800E0,1.707367003E-1,-2.709185183E-1,-7.057015300E-1
2.437260800E0,3.643808365E-1,-3.564395905E-1,-7.228057384E-1
2.447260800E0,5.268708467E-1,-3.857611120E-1,-7.447968721E-1
2.457260800E0,6.575959325E-1,-3.271180987E-1,-7.533490062E-1
2.467260800E0,8.994984031E-1,8.093958348E-2,-6.843212843E-1
2.477260800E0,1.043051600E0,2.489273995E-1,-6.397281289E-1
2.487260800E0,1.203098178E0,3.436114490E-1,-6.220130324E-1
2.497260800E0,1.353981733E0,3.820959330E-1,-6.391173005E-1
2.507260800E0,1.452941895E0,3.723220825E-1,-6.714931130E-1
2.517260800E0,1.451109290E0,3.723220825E-1,-6.922625303E-1
2.527260800E0,1.331990600E0,4.242455959E-1,-6.617192626E-1
2.537260800E0,1.331990600E0,4.242455959E-1,-6.617192626E-1
2.547260800E0,1.331990600E0,4.242455959E-1,-6.617192626E-1
2.557260800E0,1.331990600E0,4.242455959E-1,-6.617192626E-1
2.567260800E0,1.127045527E-1,6.013963819E-1,6.459894776E-2
2.577260800E0,-5.650499091E-2,5.708531141E-1,1.580612659E-1
2.587260800E0,-2.440404743E-1,5.115992427E-1,2.228129357E-1
2.597260800E0,-4.376846254E-1,4.346303046E-1,2.857320011E-1
2.607260800E0,-4.376846254E-1,4.346303046E-1,2.857320011E-1
2.617260800E0,-4.376846254E-1,4.346303046E-1,2.857320011E-1
2.627260800E0,-7.156280875E-1,3.295615613E-1,1.745546162E-1
2.637260800E0,-6.899717450E-1,4.059196413E-1,1.043051630E-1
2.647260800E0,-7.040216327E-1,5.225948095E-1,1.488982886E-1
2.657260800E0,-8.231402636E-1,6.404917240E-1,3.327685893E-1
2.667260800E0,-9.862411618E-1,7.272345424E-1,6.272054315E-1
2.677260800E0,-9.862411618E-1,7.272345424E-1,6.272054315E-1
2.687260800E0,-9.275981784E-1,1.731801629E-1,1.484859586E0
2.697260800E0,-7.596103549E-1,-4.978547990E-2,1.517235398E0
2.707260800E0,-5.781835318E-1,-2.043342739E-1,1.506850719E0
2.717260800E0,-3.796524704E-1,-2.177732885E-1,1.463479280E0
2.727260800E0,-1.493564397E-1,-1.951712966E-1,1.352301955E0
2.737260800E0,1.053741723E-1,-2.373209596E-1,1.162322998E0
2.747260800E0,5.158752799E-1,-5.842921734E-1,6.815723777E-1
2.757260800E0,5.879573226E-1,-1.044273376E0,5.270236135E-1
2.767260800E0,5.824595690E-1,-1.363755584E0,5.355756879E-1
2.777260800E0,5.348120928E-1,-1.336266756E0,6.846266985E-1
2.787260800E0,4.413498044E-1,-9.758564830E-1,8.856012225E-1
2.797260800E0,3.613265157E-1,-2.703076601E-1,1.063973784E0
2.807260800E0,3.503309488E-1,3.704894781E-1,1.154992580E0
2.817260800E0,4.254673123E-1,5.894844979E-2,9.619593024E-1
2.827260800E0,4.834994674E-1,-5.201513767E-1,7.231112123E-1
2.837260800E0,5.329795480E-1,-1.139568210E0,4.274526238E-1
2.847260800E0,5.580250025E-1,-1.655138135E0,1.482874304E-1
2.857260800E0,5.372555852E-1,-1.970344305E0,9.010255337E-3
2.867260800E0,4.230238497E-1,-2.126114845E0,7.559451461E-2
2.877260800E0,2.397644222E-1,-2.190255642E0,2.881754637E-1
2.887260800E0,2.397644222E-1,-2.190255642E0,2.881754637E-1
2.897260800E0,2.397644222E-1,-2.190255642E0,2.881754637E-1
2.907260800E0,2.397644222E-1,-2.190255642E0,2.881754637E-1
2.917260800E0,-5.506945848E-1,-3.319744587E0,9.283617735E-1
2.927260800E0,-5.250383019E-1,-2.735146999E0,9.033163190E-1
2.937260800E0,-4.370737374E-1,-2.002720118E0,8.538362384E-1
2.947260800E0,-2.770271897E-1,-1.203098178E0,7.615956664E-1
2.957260800E0,-2.770271897E-1,-1.203098178E0,7.615956664E-1
2.967260800E0,-2.770271897E-1,-1.203098178E0,7.615956664E-1
2.977260800E0,-2.770271897E-1,-1.203098178E0,7.615956664E-1
2.987260800E0,1.066264510E0,1.785863161E0,2.881754637E-1
2.997260800E0,1.368642569E0,1.750432968E0,2.295324355E-1
3.007260800E0,1.611155868E0,1.784641504E0,1.617264450E-1
3.017260800E0,1.673464060E0,2.112675905E0,8.292489499E-2
3.027260800E0,1.673464060E0,2.112675905E0,8.292489499E-2
3.037260800E0,1.245858669E0,4.242761135E0,-3.147480786E-1
3.047260800E0,1.261130333E0,4.251313210E0,-4.503600597E-1
3.057260800E0,1.246469617E0,3.473071814E0,-5.004509687E-1
3.067260800E0,1.260519505E0,2.341139317E0,-4.619664848E-1
3.077260800E0,1.268460751E0,1.692400813E0,-5.468766689E-1
3.087260800E0,1.237917423E0,1.359479547E0,-8.101593852E-1
3.097260800E0,8.506292105E-1,4.114174247E-1,-1.317177176E0
3.107260800E0,5.928442478E-1,-1.557705179E-2,-1.439350128E0
3.117260800E0,3.668242991E-1,-4.016436040E-1,-1.433852315E0
3.127260800E0,1.634063274E-1,-7.809906006E-1,-1.366657257E0
3.137260800E0,-1.557705179E-2,-1.158505082E0,-1.271362305E0
3.147260800E0,-1.811214089E-1,-1.547015071E0,-1.182786942E0
3.157260800E0,-3.509418070E-1,-1.804800034E0,-1.135750294E0
3.167260800E0,-7.492256761E-1,-1.766315460E0,-1.110094070E0
3.177260800E0,-8.958331943E-1,-1.901927471E0,-1.041066289E0
3.187260800E0,-9.324851036E-1,-1.674074888E0,-6.702713966E-1
3.197260800E0,-8.787289858E-1,-7.107411623E-1,-1.980729103E-1
3.207260800E0,-7.449495792E-1,-3.295615613E-1,-3.497200832E-2
3.217260800E0,-7.290670872E-1,-2.238819450E-1,-2.988655865E-1
3.227260800E0,-8.164207935E-1,-7.162389755E-1,-8.755219579E-1
3.237260800E0,-1.096196890E0,-1.741880894E0,-2.494313717E0
3.247260800E0,-1.158505082E0,-1.835343242E0,-3.118617296E0
3.257260800E0,-1.105359793E0,-1.696676970E0,-3.350745916E0
3.267260800E0,-8.891136646E-1,-1.548847675E0,-3.248120785E0
3.277260800E0,-5.427533388E-1,-1.333823204E0,-2.821737051E0
3.287260800E0,-2.196058929E-1,-8.793398738E-1,-2.149174929E0
3.297260800E0,-5.803215317E-3,-2.892444730E-1,-1.378263712E0
3.307260800E0,2.251036763E-1,8.634573817E-1,-4.253146052E-1
3.317260800E0,1.951712966E-1,1.145676851E0,-2.732092738E-1
3.327260800E0,1.371391416E-1,1.212872028E0,-2.524398565E-1
3.337260800E0,7.910698652E-2,1.114522815E0,-3.391826749E-1
3.347260800E0,-1.252272818E-2,8.652899861E-1,-4.949531853E-1
3.357260800E0,-1.322522312E-1,3.937023580E-1,-6.837103963E-1
3.367260800E0,-2.550360560E-1,-1.304196268E-1,-9.072869420E-1
3.377260800E0,-2.550360560E-1,-1.304196268E-1,-9.072869420E-1
3.387260800E0,-2.550360560E-1,-1.304196268E-1,-9.072869420E-1
3.397260800E0,-2.550360560E-1,-1.304196268E-1,-9.072869420E-1
3.407260800E0,-3.882045746E-1,-9.526436329E-1,-4.436405599E-1
3.417260800E0,-1.304196268E-1,-7.235693336E-1,-2.194531709E-1
3.427260800E0,1.994473487E-1,-3.753764033E-1,-7.589995116E-2
3.437260800E0,5.134318471E-1,-3.970621154E-3,-2.275471389E-2
3.447260800E0,5.134318471E-1,-3.970621154E-3,-2.275471389E-2
3.457260800E0,8.078686595E-1,7.993165851E-1,-8.628465235E-2
3.457260800E0,8.078686595E-1,7.993165851E-1,-8.628465235E-2
3.477260800E0,3.790415823E-1,6.582068205E-1,-1.015562713E-1
3.487260800E0,2.861901522E-1,3.020726442E-1,-1.345429718E-1
3.497260800E0,2.587012351E-1,1.863137633E-2,-1.412624866E-1
3.507260800E0,1.652389169E-1,-1.401934624E-1,-1.015562713E-1
3.517260800E0,-2.257145345E-1,-4.761691093E-1,1.244636998E-1
3.527260800E0,-5.012145638E-1,-7.162389755E-1,1.941022873E-1
3.537260800E0,-7.767145634E-1,-8.469640017E-1,1.592829973E-1
3.547260800E0,-1.062599301E0,-8.738420606E-1,1.391244531E-1
3.557260800E0,-1.333823204E0,-7.620537877E-1,2.576322258E-1
3.567260800E0,-1.465159178E0,-5.207622051E-1,4.506655037E-1
3.577260800E0,-1.351538301E0,-1.127045527E-1,5.569559336E-1
3.587260800E0,-4.859429300E-1,6.142245531E-1,6.626355648E-1
3.597260800E0,-4.306596518E-2,9.514219165E-1,7.438805699E-1
3.607260800E0,2.538143098E-1,1.173776627E0,8.477275968E-1
3.617260800E0,3.698786199E-1,1.285564899E0,8.092431426E-1
3.627260800E0,3.265072107E-1,1.244026065E0,6.595812440E-1
3.637260800E0,2.177732885E-1,1.179274440E0,4.970912039E-1
3.647260800E0,2.962694131E-2,1.142622590E0,4.170679152E-1
3.657260800E0,-2.165515572E-1,1.033888698E0,3.828594983E-1
3.667260800E0,-1.762344837E-1,9.660826325E-1,3.871355653E-1
3.677260800E0,-1.175914705E-1,8.304706812E-1,4.042397738E-1
3.687260800E0,-6.322450191E-2,6.881392002E-1,3.901898861E-1
3.697260800E0,-4.367683083E-2,5.671879649E-1,3.810268939E-1
3.707260800E0,-5.650499091E-2,5.574141145E-1,4.347830117E-1
3.717260800E0,-9.376774728E-2,8.194751143E-1,5.716167092E-1
3.727260800E0,-9.376774728E-2,8.194751143E-1,5.716167092E-1
3.737260800E0,-9.376774728E-2,8.194751143E-1,5.716167092E-1
3.747260800E0,-9.376774728E-2,8.194751143E-1,5.716167092E-1
3.757260800E0,6.414080039E-3,2.331976414E0,1.294269800E0
3.767260800E0,2.049451321E-1,2.067471743E0,1.219133377E0
3.777260800E0,4.071413875E-1,1.717446327E0,1.082299709E0
3.787260800E0,5.726857185E-1,1.366809964E0,8.807142973E-1
3.797260800E0,5.726857185E-1,1.366809964E0,8.807142973E-1
3.807260800E0,5.726857185E-1,1.366809964E0,8.807142973E-1
3.817260800E0,8.378010392E-1,-2.128863782E-1,-1.632536054E-1
3.827260800E0,6.337721944E-1,-5.128209591E-1,-4.657844082E-2
3.837260800E0,3.307832778E-1,-9.465349913E-1,1.238528341E-1
3.847260800E0,-4.581485875E-3,-1.397964001E0,2.301433086E-1
3.857260800E0,-4.581485875E-3,-1.397964001E0,2.301433086E-1
3.867260800E0,-8.237511516E-1,-2.469420910E0,9.010255337E-3
3.877260800E0,-9.563088417E-1,-2.523176908E0,-2.145662606E-1
3.887260800E0,-1.028390884E0,-2.433379889E0,-4.473057389E-1
3.897260800E0,-1.025336504E0,-2.394284487E0,-6.348412037E-1
3.907260800E0,-8.946114779E-1,-2.342360973E0,-7.399099469E-1
3.917260800E0,-5.958985686E-1,-2.240957499E0,-7.716749310E-1
3.927260800E0,3.362810612E-1,-1.742491841E0,-6.110175252E-1
3.937260800E0,8.420770764E-1,-1.404683590E0,-4.699077308E-1
3.947260800E0,1.256854296E0,-1.223256707E0,-3.660607338E-1
3.957260800E0,1.500589371E0,-1.121853113E0,-3.184132576E-1
3.967260800E0,1.543960690E0,-1.170722365E0,-2.842048407E-1
3.977260800E0,1.393077135E0,-1.306334376E0,-2.652680278E-1
3.987260800E0,1.131016135E0,-1.338099241E0,-3.294088244E-1
3.997260800E0,6.777544618E-1,-1.045495033E0,-4.576904476E-1
4.007260800E0,6.075050235E-1,-9.465349913E-1,-4.405862093E-1
4.017260800E0,6.380482912E-1,-8.652899861E-1,-2.499964088E-1
4.027260800E0,7.009673119E-1,-7.626646757E-1,1.226311028E-1
4.037260800E0,7.223476171E-1,-5.531380773E-1,4.848739207E-1
4.047260800E0,6.765327454E-1,-3.167333901E-1,7.560978532E-1
4.057260800E0,5.928442478E-1,-1.469129771E-1,9.411898851E-1
4.067260800E0,5.928442478E-1,-1.469129771E-1,9.411898851E-1
4.077260800E0,5.928442478E-1,-1.469129771E-1,9.411898851E-1
4.087260800E0,5.928442478E-1,-1.469129771E-1,9.411898851E-1
4.097260800E0,5.928442478E-1,-1.469129771E-1,9.411898851E-1
4.107260800E0,-2.025016695E-1,4.932733178E-1,2.290742937E-3
4.117260800E0,-1.481347084E-1,1.802051067E-2,1.116355360E-1
4.127260800E0,9.804379940E-2,-5.232056975E-1,-3.008509055E-2
4.137260800E0,9.804379940E-2,-5.232056975E-1,-3.008509055E-2
4.147260800E0,9.804379940E-2,-5.232056975E-1,-3.008509055E-2
4.157260800E0,1.352149248E0,-1.068097115E0,-7.857248187E-1
4.167260800E0,1.379027247E0,-6.557633281E-1,-7.631227970E-1
4.177260800E0,1.257465124E0,-1.420260668E-1,-7.417425513E-1
4.187260800E0,1.189048290E0,1.878409237E-1,-8.187115192E-1
4.197260800E0,1.272125959E0,1.618791744E-2,-9.323323965E-1
4.207260800E0,1.529910803E0,-1.756236255E-1,-9.720385671E-1
4.217260800E0,1.612988472E0,9.162971983E-4,-1.044120669E0
4.227260800E0,1.653916359E0,4.550942779E-2,-1.235321283E0
4.237260800E0,1.539684653E0,-2.037234008E-1,-1.438128352E0
4.247260800E0,1.185993910E0,-4.608974755E-1,-1.574351311E0
4.257260800E0,6.319395900E-1,-5.940660238E-1,-1.635437727E0
4.267260800E0,2.229656465E-2,-6.514872909E-1,-1.639713764E0
4.277260800E0,-9.135482907E-1,-3.265072107E-1,-1.558468819E0
4.287260800E0,-1.109025002E0,-1.291978955E-1,-1.382539749E0
4.297260800E0,-1.019227862E0,3.145953640E-2,-1.267697096E0
4.307260800E0,-6.563742161E-1,1.493564397E-1,-1.210275888E0
4.317260800E0,-1.982256174E-1,1.029307172E-1,-1.144913316E0
4.327260800E0,1.389717311E-1,-1.041524485E-1,-1.078329086E0
4.337260800E0,2.556469142E-1,-3.026835024E-1,-1.034957647E0
4.347260800E0,2.556469142E-1,-3.026835024E-1,-1.034957647E0
4.357260800E0,2.556469142E-1,-3.026835024E-1,-1.034957647E0
4.367260800E0,2.556469142E-1,-3.026835024E-1,-1.034957647E0
4.377260800E0,2.556469142E-1,-3.026835024E-1,-1.034957647E0
4.387260800E0,-3.735437989E-1,8.219185472E-1,-3.385718167E-1
4.397260800E0,-6.887500286E-1,7.980948091E-1,-4.314232469E-1
4.407260800E0,-8.316923976E-1,7.272345424E-1,-4.680751264E-1
4.417260800E0,-8.316923976E-1,7.272345424E-1,-4.680751264E-1
4.427260800E0,-8.316923976E-1,7.272345424E-1,-4.680751264E-1
4.437260800E0,-8.316923976E-1,7.272345424E-1,-4.680751264E-1
4.447260800E0,6.203331947E-1,2.183841616E-1,1.922696829E-1
4.457260800E0,4.352411628E-1,8.582650125E-2,-1.919642538E-1
4.467260800E0,3.268126398E-2,-3.998109996E-1,-5.303833485E-1
4.477260800E0,-4.773908257E-1,-7.938187718E-1,-7.209731340E-1
4.487260800E0,-4.773908257E-1,-7.938187718E-1,-7.209731340E-1
4.497260800E0,-4.773908257E-1,-7.938187718E-1,-7.209731340E-1
4.507260800E0,-3.142899275E-1,-2.832274437E0,-7.698423266E-1
4.517260800E0,1.493564397E-1,-3.292255640E0,-7.900008559E-1
4.527260800E0,4.553996921E-1,-3.392437458E0,-7.325795889E-1
4.537260800E0,4.749473631E-1,-2.995375395E0,-6.067414284E-1
4.547260800E0,2.367101014E-1,-1.953240156E0,-5.816959739E-1
4.557260800E0,2.367101014E-1,-1.953240156E0,-5.816959739E-1
4.567260800E0,2.367101014E-1,-1.953240156E0,-5.816959739E-1
4.577260800E0,5.531380773E-1,1.951712966E-1,-4.363101721E-1
4.587260800E0,1.902843714E-1,1.145676851E0,-2.616028488E-1
4.597260800E0,-3.674351573E-1,1.589164734E0,1.379027218E-1
4.607260800E0,-6.832522750E-1,1.842673659E0,7.542653084E-1
4.617260800E0,-6.313287616E-1,1.568395376E0,1.096349597E0
4.627260800E0,2.189950198E-1,1.316108227E0,9.833396077E-1
4.637260800E0,5.830704570E-1,1.353981733E0,9.882264733E-1
4.647260800E0,5.195404887E-1,1.448665857E0,1.043815136E0
4.657260800E0,1.597411335E-1,1.446222425E0,1.145218730E0
4.667260800E0,-2.012799382E-1,1.495702386E0,1.200807452E0
4.677260800E0,-3.711003661E-1,1.535408616E0,1.269224286E0
4.687260800E0,-3.570504785E-1,1.622151375E0,1.362686634E0
4.697260800E0,-6.075050235E-1,1.460272312E0,1.094516993E0
4.707260800E0,-7.510582209E-1,1.149952888E0,1.162933826E0
4.717260800E0,-8.982766867E-1,7.510582209E-1,1.454927206E0
4.727260800E0,-1.146898627E0,3.258963525E-1,1.914297462E0
4.737260800E0,-1.429728985E0,1.157588735E-1,2.393826246E0
4.747260800E0,-1.671020627E0,4.856374860E-2,2.756069183E0
4.757260800E0,-1.774867654E0,1.469129771E-1,2.904509306E0
4.767260800E0,-1.262962937E0,3.784307241E-1,2.624733210E0
4.777260800E0,-7.211259007E-1,4.230238497E-1,2.435365200E0
4.787260800E0,-1.035415828E-1,3.906480372E-1,2.050520420E0
4.797260800E0,4.547888339E-1,3.338375986E-1,1.291826248E0
4.807260800E0,8.549052477E-1,3.503309488E-1,4.091266990E-1
4.817260800E0,9.905172586E-1,4.272999167E-1,-8.567378670E-2
4.827260800E0,8.707877398E-1,6.685914993E-1,-6.979130208E-2
4.837260800E0,8.707877398E-1,6.685914993E-1,-6.979130208E-2
4.847260800E0,8.707877398E-1,6.685914993E-1,-6.979130208E-2
4.857260800E0,8.707877398E-1,6.685914993E-1,-6.979130208E-2
4.867260800E0,8.707877398E-1,6.685914993E-1,-6.979130208E-2
4.877260800E0,-1.592829943E0,8.298597932E-1,6.485856771E-1
4.887260800E0,-2.115119219E0,7.345649004E-1,9.937242866E-1
4.897260800E0,-2.667340994E0,7.828232050E-1,1.371849537E0
4.907260800E0,-2.667340994E0,7.828232050E-1,1.371849537E0
4.917260800E0,-2.667340994E0,7.828232050E-1,1.371849537E0
4.927260800E0,-2.993542910E0,7.064651251E-1,1.357188821E0
4.937260800E0,-2.576933146E0,7.467821836E-1,1.250287533E0
4.947260800E0,-2.072969675E0,5.934551358E-1,1.231961489E0
4.957260800E0,-1.603825450E0,1.756236255E-1,1.365130067E0
4.967260800E0,-1.140179157E0,1.863137633E-2,1.418886185E0
4.977260800E0,-1.140179157E0,1.863137633E-2,1.418886185E0
4.987260800E0,-1.261435747E-1,-2.165515572E-1,1.030987024E0
4.997260800E0,1.130099874E-2,-2.596175298E-2,7.976366878E-1
5.007260800E0,1.237001196E-1,2.147189677E-1,6.137663722E-1
5.017260800E0,2.391535640E-1,4.773908257E-1,5.105302334E-1
5.027260800E0,3.741546869E-1,5.384773016E-1,4.305069447E-1
5.037260800E0,5.097666383E-1,4.059196413E-1,3.859138191E-1
5.047260800E0,5.403099060E-1,3.634645417E-2,4.610501826E-1
5.057260800E0,2.806923687E-1,-2.971857190E-1,4.146244824E-1
5.067260800E0,1.059850380E-1,1.023198515E-1,3.675878942E-1
5.077260800E0,3.268126398E-2,4.205803871E-1,2.075413018E-1
5.087260800E0,1.676823795E-1,7.913753390E-1,5.299251899E-2
5.097260800E0,4.615083337E-1,1.242804408E0,-6.368265301E-2
5.107260800E0,8.768963814E-1,1.714391947E0,-7.284562290E-2
5.117260800E0,1.666133642E0,1.776089311E0,2.081521749E-1
5.127260800E0,1.670409799E0,1.617875338E0,3.944659233E-1
5.137260800E0,1.272736788E0,1.394298911E0,5.612320304E-1
5.147260800E0,6.343830824E-1,1.060766697E0,6.247619390E-1
5.157260800E0,6.343830824E-1,1.060766697E0,6.247619390E-1
5.167260800E0,-2.269362658E-1,7.192932963E-1,4.323395491E-1
5.177260800E0,-2.770271897E-1,4.639517963E-1,4.659371078E-1
5.187260800E0,-2.770271897E-1,4.639517963E-1,4.659371078E-1
5.197260800E0,-2.770271897E-1,4.639517963E-1,4.659371078E-1
5.207260800E0,-2.770271897E-1,4.639517963E-1,4.659371078E-1
5.217260800E0,-2.770271897E-1,4.639517963E-1,4.659371078E-1
5.227260800E0,-9.526436329E-1,7.504473925E-1,1.222798586E0
5.237260800E0,-8.762855530E-1,9.642500281E-1,1.183092356E0
5.247260800E0,-7.626646757E-1,7.968730927E-1,1.027932763E0
5.257260800E0,-7.626646757E-1,7.968730927E-1,1.027932763E0
5.267260800E0,-7.626646757E-1,7.968730927E-1,1.027932763E0
5.277260800E0,-7.626646757E-1,7.968730927E-1,1.027932763E0
5.287260800E0,-1.535408616E0,-5.500837564E-1,1.421787739E-1
5.297260800E0,-1.390633702E0,-3.289506733E-1,-2.214384824E-2
5.307260800E0,-1.129794359E0,9.682206810E-2,-2.084576041E-1
5.317260800E0,-7.199041247E-1,6.966912746E-1,-4.491383433E-1
5.327260800E0,-7.199041247E-1,6.966912746E-1,-4.491383433E-1
5.337260800E0,1.140789986E0,1.879325509E0,-7.197514176E-1
5.347260800E0,1.665522814E0,1.804800034E0,-6.947059631E-1
5.357260800E0,1.967900872E0,1.695455194E0,-5.835285783E-1
5.367260800E0,2.026543856E0,1.603825450E0,-4.222602844E-1
5.377260800E0,1.865886450E0,1.465159178E0,-2.432768941E-1
5.387260800E0,1.499367595E0,1.248302221E0,-5.390881747E-2
5.397260800E0,1.499367595E0,1.248302221E0,-5.390881747E-2
5.407260800E0,-1.200349256E-1,1.080314398E0,9.208786488E-2
5.417260800E0,-4.993819594E-1,1.086423039E0,-6.795870513E-2
5.427260800E0,-7.162389755E-1,1.097418547E0,-2.603811026E-1
5.437260800E0,-7.816014886E-1,1.186604857E0,-4.363101721E-1
5.447260800E0,-7.669407129E-1,1.272125959E0,-5.578722358E-1
5.457260800E0,-6.966912746E-1,1.284954071E0,-5.584831238E-1
5.467260800E0,-5.073232055E-1,1.005177975E0,-2.078467458E-1
5.477260800E0,-4.657844007E-1,8.952223063E-1,-5.513054505E-2
5.487260800E0,-4.279107749E-1,9.685261250E-1,5.955931731E-3
5.497260800E0,-3.478874862E-1,7.834340930E-1,-8.093958721E-3
5.507260800E0,-2.220493406E-1,5.195404887E-1,-6.551524997E-2
5.517260800E0,-7.483093441E-2,3.228420317E-1,-1.620318890E-1
5.527260800E0,6.566796452E-2,1.798996776E-1,-2.835939825E-1
5.537260800E0,3.106247485E-1,1.798996776E-1,-5.010618567E-1
5.547260800E0,4.156934917E-1,2.892444730E-1,-5.230529904E-1
5.557260800E0,4.688387215E-1,3.295615613E-1,-5.065596104E-1
5.567260800E0,4.841103256E-1,4.260781705E-1,-4.528035223E-1
5.577260800E0,4.584540129E-1,3.967566788E-1,-3.709476292E-1
5.587260800E0,3.711003661E-1,3.582721949E-1,-2.426660359E-1
5.597260800E0,2.690859437E-1,4.101957083E-1,-1.156061590E-1
5.607260800E0,1.701258421E-1,3.246746361E-1,3.512472380E-3
5.617260800E0,1.701258421E-1,3.246746361E-1,3.512472380E-3
5.627260800E0,1.701258421E-1,3.246746361E-1,3.512472380E-3
5.637260800E0,1.701258421E-1,3.246746361E-1,3.512472380E-3
5.647260800E0,1.701258421E-1,3.246746361E-1,3.512472380E-3
5.657260800E0,-1.679878123E-2,-2.593120933E-1,3.126100600E-1
5.667260800E0,-2.159406990E-1,-1.511890292E-1,4.091266990E-1
5.677260800E0,-2.159406990E-1,-1.511890292E-1,4.091266990E-1
5.687260800E0,-2.159406990E-1,-1.511890292E-1,4.091266990E-1
5.697260800E0,-2.159406990E-1,-1.511890292E-1,4.091266990E-1
5.707260800E0,-2.159406990E-1,-1.511890292E-1,4.091266990E-1
5.717260800E0,2.006690800E-1,4.590648711E-1,-3.313941509E-2
5.727260800E0,1.456912458E-1,2.825249732E-1,9.941824526E-2
5.737260800E0,-4.673115537E-2,1.731801629E-1,2.802342176E-1
5.747260800E0,-4.673115537E-2,1.731801629E-1,2.802342176E-1
5.757260800E0,-4.673115537E-2,1.731801629E-1,2.802342176E-1
5.767260800E0,-4.673115537E-2,1.731801629E-1,2.802342176E-1
5.777260800E0,-7.596103549E-1,3.329212964E-2,1.910479665E-1
5.787260800E0,-8.964440823E-1,1.682932526E-1,1.861610413E-1
5.797260800E0,-1.047327638E0,2.189950198E-1,2.753472924E-1
5.807260800E0,-1.132237911E0,1.634063274E-1,3.962985277E-1
5.817260800E0,-1.132237911E0,1.634063274E-1,3.962985277E-1
5.827260800E0,-1.132237911E0,1.634063274E-1,3.962985277E-1
5.837260800E0,-1.132237911E0,1.634063274E-1,3.962985277E-1
5.847260800E0,-7.412844300E-1,-3.753764033E-1,1.458439678E-1
5.857260800E0,-5.873464942E-1,-6.527090073E-1,1.085812151E-1
5.867260800E0,-3.985892832E-1,-6.844739914E-1,1.214093715E-1
5.877260800E0,-1.805105358E-1,-7.828232050E-1,1.446222365E-1
5.887260800E0,-1.805105358E-1,-7.828232050E-1,1.446222365E-1
5.897260800E0,-1.805105358E-1,-7.828232050E-1,1.446222365E-1
5.907260800E0,4.169152081E-1,-2.984074354E-1,5.123628378E-1
5.917260800E0,4.358520210E-1,-9.865466505E-2,6.009382010E-1
5.927260800E0,4.175260663E-1,6.200277433E-2,6.363683939E-1
5.937260800E0,3.741546869E-1,1.493564397E-1,6.418661475E-1
5.947260800E0,3.203985691E-1,2.153298408E-1,6.534726024E-1
5.957260800E0,3.203985691E-1,2.153298408E-1,6.534726024E-1
5.967260800E0,7.889318466E-1,-9.569196701E-1,6.864593029E-1
5.977260800E0,1.126740098E0,-1.841451883E0,6.443096399E-1
5.987260800E0,1.344818830E0,-2.357632637E0,5.984947681E-1
5.997260800E0,1.452941895E0,-2.191477299E0,5.031998754E-1
6.007260800E0,1.479209065E0,-1.801745653E0,3.657552898E-1
6.017260800E0,1.462715745E0,-1.540906429E0,2.203694731E-1
6.027260800E0,1.462715745E0,-1.540906429E0,2.203694731E-1
6.037260800E0,1.087033868E0,-1.093142509E0,-1.498145908E-1
6.047260800E0,9.502001405E-1,-7.400626540E-1,-2.298378795E-1
6.057260800E0,8.072578311E-1,-4.456258714E-1,-2.768744528E-1
6.067260800E0,6.508764029E-1,-2.709185183E-1,-2.958112657E-1
6.077260800E0,4.932733178E-1,-1.554650813E-1,-3.013090491E-1
6.087260800E0,3.356702030E-1,-7.483093441E-2,-2.970330119E-1
6.097260800E0,3.695731983E-2,1.878409237E-1,-1.937968582E-1
6.107260800E0,-1.072067693E-1,5.079340935E-1,-6.368265301E-2
6.117260800E0,-2.831358314E-1,8.194751143E-1,1.275180280E-1
6.127260800E0,-4.975493550E-1,9.495893121E-1,3.236056268E-1
6.137260800E0,-7.241802216E-1,8.567378521E-1,4.421133697E-1
6.147260800E0,-8.909462690E-1,4.413498044E-1,4.396699369E-1
6.157260800E0,-8.775072694E-1,-2.843575478E-1,3.101665974E-1
6.167260800E0,-6.026180983E-1,-3.937023580E-1,1.299614757E-1
6.177260800E0,-4.046979249E-1,1.658497900E-1,1.018617004E-1
6.187260800E0,-1.585194170E-1,4.389063418E-1,8.475748450E-2
6.197260800E0,1.615737379E-1,3.179551065E-1,6.826414168E-2
6.207260800E0,5.549706817E-1,-9.010255337E-2,3.772090003E-2
6.217260800E0,9.758564830E-1,-6.966912746E-1,7.177661173E-3
6.227260800E0,1.359479547E0,-1.307556033E0,9.621120058E-3
6.237260800E0,1.359479547E0,-1.307556033E0,9.621120058E-3
6.247260800E0,1.359479547E0,-1.307556033E0,9.621120058E-3
6.257260800E0,1.359479547E0,-1.307556033E0,9.621120058E-3
6.267260800E0,9.715804458E-1,-1.223867536E0,6.559160352E-1
6.277260800E0,5.659661889E-1,-7.773254514E-1,7.933606505E-1
6.287260800E0,7.055488229E-2,-3.521635532E-1,9.039271474E-1
6.297260800E0,-4.596757591E-1,-7.116574794E-2,9.161444306E-1
6.307260800E0,-4.596757591E-1,-7.116574794E-2,9.161444306E-1
6.317260800E0,-4.596757591E-1,-7.116574794E-2,9.161444306E-1
6.327260800E0,-4.596757591E-1,-7.116574794E-2,9.161444306E-1
6.337260800E0,-1.399796605E0,-1.646280587E-1,-6.824886799E-1
6.347260800E0,-1.319162488E0,1.585194170E-1,-7.936660647E-1
6.357260800E0,-1.253799915E0,6.753110290E-1,-7.209731340E-1
6.367260800E0,-1.189659119E0,1.140179157E0,-5.352702737E-1
6.377260800E0,-1.189659119E0,1.140179157E0,-5.352702737E-1
6.387260800E0,-1.189659119E0,1.140179157E0,-5.352702737E-1
6.397260800E0,-6.569850445E-1,1.255327165E-1,-1.864664704E-1
6.407260800E0,-5.329795480E-1,-2.690859437E-1,-2.579376400E-1
6.417260800E0,-4.773908257E-1,-5.677987933E-1,-2.744309902E-1
6.427260800E0,-4.590648711E-1,-7.266236544E-1,-2.243400961E-1
6.437260800E0,-4.499019086E-1,-7.027999163E-1,-1.736383140E-1
6.447260800E0,-4.358520210E-1,-4.095848203E-1,-3.617846668E-1
6.457260800E0,-4.566214085E-1,-1.139262840E-1,-4.179842174E-1
6.467260800E0,-4.987711012E-1,2.617555559E-1,-3.678933084E-1
6.477260800E0,-5.342012644E-1,6.062833071E-1,-2.573267817E-1
6.487260800E0,-5.415316224E-1,7.870992422E-1,-1.455385387E-1
6.497260800E0,-5.146535635E-1,7.846558094E-1,-3.191768378E-2
6.507260800E0,-4.694495797E-1,6.514872909E-1,8.231402934E-2
6.517260800E0,-4.694495797E-1,6.514872909E-1,8.231402934E-2
6.527260800E0,-3.552178741E-1,2.464839369E-1,9.621120058E-3
6.537260800E0,-3.277289569E-1,2.177732885E-1,-1.455385387E-1
6.547260800E0,-3.210094273E-1,1.463021189E-1,-2.848156989E-1
6.557260800E0,-3.460549116E-1,-7.024944760E-3,-3.501782417E-1
6.567260800E0,-3.814850450E-1,1.151480079E-1,-3.349066079E-1
6.577260800E0,-4.297433794E-1,3.619373739E-1,-2.952004075E-1
6.587260800E0,-5.140427351E-1,8.243620396E-1,-2.035706937E-1
6.597260800E0,-5.146535635E-1,9.294307828E-1,-1.473711282E-1
6.607260800E0,-4.951058924E-1,9.202677608E-1,-9.056070447E-2
6.617260800E0,-4.633409381E-1,8.463531733E-1,-6.123919412E-2
6.627260800E0,-4.346303046E-1,8.946114779E-1,-4.902189970E-2
6.637260800E0,-4.272999167E-1,9.049961567E-1,-5.451968312E-2
6.647260800E0,-4.138608873E-1,8.597921729E-1,-8.994983882E-2
6.657260800E0,-2.855792940E-1,5.787943602E-1,-1.803578287E-1
6.667260800E0,-2.855792940E-1,5.787943602E-1,-1.803578287E-1
6.677260800E0,-2.855792940E-1,5.787943602E-1,-1.803578287E-1
6.687260800E0,-1.191186346E-2,2.229656465E-2,-1.970038936E-2
6.697260800E0,9.071341902E-2,-2.287688553E-1,7.009673119E-2
6.707260800E0,1.756236255E-1,-5.451968312E-1,1.385135949E-1
6.717260800E0,2.141081095E-1,-8.347467184E-1,1.959348768E-1
6.727260800E0,2.141081095E-1,-8.347467184E-1,1.959348768E-1
6.737260800E0,2.141081095E-1,-8.347467184E-1,1.959348768E-1
6.747260800E0,2.141081095E-1,-8.347467184E-1,1.959348768E-1
6.757260800E0,-3.820959330E-1,-1.551901937E0,1.128572673E-1
6.767260800E0,-5.036579967E-1,-1.458439708E0,9.636391699E-2
6.777260800E0,-5.867356062E-1,-1.536630392E0,9.330959618E-2
6.787260800E0,-6.435460448E-1,-1.723554969E0,9.819651395E-2
6.797260800E0,-6.435460448E-1,-1.723554969E0,9.819651395E-2
6.807260800E0,-6.301070452E-1,-1.513417482E0,8.414662629E-2
6.817260800E0,-6.301070452E-1,-1.007010579E0,7.315105945E-2
6.827260800E0,-6.490437984E-1,-4.993819594E-1,6.643154472E-2
6.837260800E0,-6.508764029E-1,-2.984074354E-1,-4.428769462E-3
6.847260800E0,-5.971203446E-1,-3.851502538E-1,-1.217148080E-1
6.857260800E0,-4.327977002E-1,-5.012145638E-1,-2.005163580E-1
6.867260800E0,-4.581485875E-3,-1.321605921E0,-2.793179154E-1
6.877260800E0,6.383536756E-2,-1.688735723E0,-2.432768941E-1
6.887260800E0,-5.192350596E-3,-1.790750146E0,-1.644753367E-1
6.897260800E0,-1.029307172E-1,-1.661857605E0,-4.963276163E-2
6.907260800E0,-7.116574794E-2,-1.288008332E0,4.566214234E-2
6.917260800E0,2.043342739E-1,-6.649262905E-1,2.244928107E-2
6.927260800E0,7.082977295E-1,-5.894844979E-2,-1.241582632E-1
6.937260800E0,2.199418545E0,6.264418364E-1,-4.888445437E-1
6.947260800E0,3.049131632E0,6.539307237E-1,-6.104066372E-1
6.957260800E0,3.886016369E0,4.914407134E-1,-6.659952998E-1
6.967260800E0,4.439459801E0,2.733619809E-1,-5.920807123E-1
6.977260800E0,4.171289921E0,1.073594809E0,-2.640463114E-1
6.987260800E0,3.368613720E0,2.487135887E0,1.715002805E-1
6.997260800E0,2.863428593E0,2.757138252E0,5.416843295E-1
7.007260800E0,2.311817646E0,1.641088247E0,1.190422773E0
7.017260800E0,1.975842118E0,9.245438576E-1,1.451872826E0
7.027260800E0,1.515860915E0,6.414080039E-3,1.678503752E0
7.037260800E0,9.447023869E-1,-1.263573766E0,1.877645612E0
7.047260800E0,3.106247485E-1,-2.673449755E0,2.087172270E0
7.057260800E0,-2.550360560E-1,-3.967261314E0,2.272875071E0
7.067260800E0,-6.960803866E-1,-5.016726971E0,2.423147917E0
7.077260800E0,-1.088255644E0,-4.956862450E0,2.511723280E0
7.087260800E0,-1.026558280E0,-1.595884204E0,2.274707794E0
7.097260800E0,-1.179885268E0,2.696968019E-1,1.995542526E0
7.107260800E0,-1.482874274E0,4.040870368E-1,1.840993762E0
7.117260800E0,-1.738215685E0,-2.727511227E-1,1.701105714E0
7.127260800E0,-1.760206819E0,-8.726203442E-1,1.384066820E0
7.137260800E0,-1.581834316E0,-8.188642263E-1,9.130901098E-1
7.147260800E0,-9.984585047E-1,1.939495653E-1,1.036942974E-1
7.157260800E0,-6.948586702E-1,6.575959325E-1,-1.748600453E-1
7.167260800E0,-4.370737374E-1,8.097012639E-1,-4.082103968E-1
7.177260800E0,-2.232710719E-1,3.845393658E-1,-6.036871076E-1
7.187260800E0,-6.811141968E-2,-5.427533388E-1,-7.490729094E-1
7.197260800E0,5.711585656E-2,-1.462715745E0,-8.651372194E-1
7.207260800E0,2.318231910E-1,-1.823125958E0,-9.854776263E-1
7.217260800E0,7.119628787E-1,-1.418122530E0,-1.311068535E0
7.227260800E0,1.004567146E0,-1.038164735E0,-1.425300241E0
7.237260800E0,1.004567146E0,-1.038164735E0,-1.425300241E0
7.247260800E0,1.004567146E0,-1.038164735E0,-1.425300241E0
7.257260800E0,1.744935274E0,-1.107803226E0,-1.177899957E0
7.267260800E0,2.036928654E0,-1.377194643E0,-1.048396707E0
7.277260800E0,2.275776625E0,-1.802967429E0,-9.054543376E-1
7.287260800E0,2.275776625E0,-1.802967429E0,-9.054543376E-1
7.297260800E0,2.275776625E0,-1.802967429E0,-9.054543376E-1
7.307260800E0,2.275776625E0,-1.802967429E0,-9.054543376E-1
7.317260800E0,7.822123766E-1,-2.523176908E0,-3.849975169E-1
7.327260800E0,4.877755344E-1,-2.240957499E0,-4.094321132E-1
7.337260800E0,2.330449075E-1,-2.013104916E0,-4.051560760E-1
7.347260800E0,-1.435532235E-2,-1.756541729E0,-3.416261375E-1
7.357260800E0,-1.435532235E-2,-1.756541729E0,-3.416261375E-1
7.367260800E0,-1.435532235E-2,-1.756541729E0,-3.416261375E-1
7.377260800E0,-8.261946440E-1,1.285870373E-1,-8.093958721E-3
7.387260800E0,-9.330959320E-1,6.203331947E-1,2.855792828E-2
7.397260800E0,-1.010675788E0,9.850194454E-1,4.749473557E-2
7.407260800E0,-1.042440772E0,1.284343243E0,1.511890348E-2
7.417260800E0,-1.025947452E0,1.526856542E0,-3.680460155E-2
7.427260800E0,-1.025947452E0,1.526856542E0,-3.680460155E-2
7.437260800E0,-5.775726438E-1,2.330754519E0,1.091920808E-1
7.447260800E0,-5.467239767E-2,3.309970856E0,1.069013379E-3
7.457260800E0,6.270527244E-1,3.749182701E0,-1.962403059E-1
7.467260800E0,1.394909739E0,3.008814573E0,-3.770562708E-1
7.477260800E0,2.149938583E0,1.784641504E0,-4.949531853E-1
7.487260800E0,2.749807835E0,1.120020628E0,-5.346593857E-1
7.497260800E0,2.749807835E0,1.120020628E0,-5.346593857E-1
7.507260800E0,1.230587125E0,3.829816818E0,6.155989766E-1
7.517260800E0,5.366446972E-1,2.952003956E0,9.314160943E-1
7.527260800E0,1.157588735E-1,2.596480846E0,1.040150046E0
7.537260800E0,-1.163697392E-1,2.152992964E0,1.036484838E0
7.547260800E0,-1.731801629E-1,1.631314397E0,9.491311312E-1
7.557260800E0,-8.949168772E-2,1.262962937E0,8.055779338E-1
7.567260800E0,1.078176349E-1,4.566214085E-1,6.772963405E-1
7.577260800E0,6.261363626E-2,2.238819450E-1,6.498073936E-1
7.587260800E0,-2.470948100E-1,5.574141145E-1,5.221366882E-1
7.597260800E0,-7.541125417E-1,1.234252334E0,3.730856776E-1
7.607260800E0,-1.174387574E0,1.760206819E0,2.961167097E-1
7.617260800E0,-1.329547167E0,1.871995091E0,2.961167097E-1
7.627260800E0,-1.020449638E0,1.752265573E0,2.869537175E-1
7.637260800E0,-7.400626540E-1,1.496924162E0,1.996000707E-1
7.647260800E0,-4.792234302E-1,1.060766697E0,8.231402934E-2
7.657260800E0,-2.868010104E-1,5.256491303E-1,-9.850194305E-2
7.667260800E0,-1.988364905E-1,9.498947114E-2,-3.477347791E-1
7.677260800E0,-1.536324918E-1,-3.695731983E-2,-6.030762792E-1
7.687260800E0,-1.970038861E-1,1.353065521E-1,-8.278744817E-1
7.697260800E0,-1.970038861E-1,1.353065521E-1,-8.278744817E-1
7.707260800E0,-8.579595685E-1,1.156672478E0,-1.823584080E0
7.717260800E0,-9.343177080E-1,1.678350925E0,-1.360548615E0
7.727260800E0,-8.530726433E-1,1.289840937E0,-1.044731498E0
7.737260800E0,-4.089739621E-1,3.466657698E-1,-8.724676371E-1
7.747260800E0,5.360338688E-1,-6.013963819E-1,-6.708822250E-1
7.757260800E0,1.648418665E0,-1.072373152E0,-4.149298966E-1
7.767260800E0,2.264781237E0,-9.193515033E-2,-5.389354229E-1
7.777260800E0,1.969733477E0,2.244928032E-1,-6.879864335E-1
7.787260800E0,1.642309904E0,4.615083337E-1,-7.936660647E-1
7.797260800E0,1.401629210E0,7.180715203E-1,-7.673988938E-1
7.807260800E0,1.277012825E0,1.060155869E0,-6.330085993E-1
7.817260800E0,1.234863162E0,1.363144755E0,-5.309942365E-1
7.827260800E0,1.204319954E0,1.427896380E0,-6.525563002E-1
7.837260800E0,1.204319954E0,1.427896380E0,-6.525563002E-1
7.847260800E0,1.204319954E0,1.427896380E0,-6.525563002E-1
7.857260800E0,1.204319954E0,1.427896380E0,-6.525563002E-1
7.867260800E0,1.204319954E0,1.427896380E0,-6.525563002E-1
7.877260800E0,-7.913753390E-1,1.193935156E0,-1.406516135E-1
7.887260800E0,-1.008232355E0,1.488372087E0,-3.623955250E-1
7.897260800E0,-1.168889761E0,1.748600483E0,-3.294088244E-1
7.907260800E0,-1.168889761E0,1.748600483E0,-3.294088244E-1
7.917260800E0,-1.168889761E0,1.748600483E0,-3.294088244E-1
7.927260800E0,-1.168889761E0,1.748600483E0,-3.294088244E-1
7.937260800E0,-1.168889761E0,1.748600483E0,-3.294088244E-1
7.947260800E0,-1.606879830E0,8.097012639E-1,-3.489564955E-1
7.957260800E0,-1.618486285E0,1.240971804E0,-1.211039424E-1
7.967260800E0,-1.525634766E0,1.701563835E0,4.627300799E-2
7.977260800E0,-1.525634766E0,1.701563835E0,4.627300799E-2
7.987260800E0,-1.525634766E0,1.701563835E0,4.627300799E-2
7.997260800E0,-6.368265152E-1,8.952223063E-1,-7.956513762E-2
8.007260800E0,-2.434296161E-1,7.693842053E-1,-1.168278903E-1
8.017260800E0,1.249218509E-1,8.432988524E-1,-2.397644334E-2
8.027260800E0,3.937023580E-1,9.831868410E-1,1.055268943E-1
8.037260800E0,5.623010397E-1,7.944296598E-1,3.016144931E-1
8.047260800E0,5.623010397E-1,7.944296598E-1,3.016144931E-1
8.057260800E0,5.623010397E-1,7.944296598E-1,3.016144931E-1
8.067260800E0,-4.550942779E-2,2.415970266E-1,8.654426932E-1
8.077260800E0,-2.849684060E-1,1.615737379E-1,6.155989766E-1
8.087260800E0,-4.321868420E-1,4.550942779E-2,4.714348912E-1
8.097260800E0,-5.115992427E-1,-3.878991306E-2,5.209149122E-1
8.107260800E0,-5.207622051E-1,3.878991306E-2,7.053961158E-1
8.117260800E0,-5.207622051E-1,3.878991306E-2,7.053961158E-1
8.127260800E0,-1.169806048E-1,3.326158822E-1,1.103069067E0
8.137260800E0,1.102610901E-1,3.228420317E-1,9.607375860E-1
8.147260800E0,3.106247485E-1,2.800815105E-1,7.707586288E-1
8.157260800E0,4.456258714E-1,2.244928032E-1,6.174315810E-1
8.167260800E0,4.957167804E-1,1.084285006E-1,5.099193454E-1
8.177260800E0,4.211912751E-1,-5.283980444E-2,4.170679152E-1
8.187260800E0,-7.116574794E-2,-3.894262910E-1,3.327685893E-1
8.197260800E0,-3.197877109E-1,-4.828886092E-1,3.510945439E-1
8.207260800E0,-4.309650958E-1,-4.773908257E-1,4.005745649E-1
8.217260800E0,-3.320049942E-1,-4.511236250E-1,4.158461988E-1
8.227260800E0,-4.062250629E-2,-4.382954836E-1,4.017963111E-1
8.237260800E0,3.527744114E-1,-4.401280880E-1,3.724747896E-1
8.247260800E0,7.260127664E-1,-4.022544622E-1,3.205513060E-1
8.257260800E0,1.042440772E0,-2.709185183E-1,2.466366589E-1
8.267260800E0,9.337068200E-1,-1.780670881E-1,1.928805560E-1
8.277260800E0,7.235693336E-1,-1.151480079E-1,9.697478265E-2
8.287260800E0,4.853320718E-1,-5.100720748E-2,1.679878100E-3
8.297260800E0,3.075704277E-1,4.245510325E-2,-7.651081681E-2
8.307260800E0,2.428187430E-1,1.780670881E-1,-1.247691289E-1
8.317260800E0,2.428187430E-1,3.032943606E-1,-1.522580534E-1
8.327260800E0,1.676823795E-1,3.075704277E-1,-2.194531709E-1
8.337260800E0,5.283980444E-2,1.695149690E-1,-2.127336562E-1
8.347260800E0,-7.605266571E-2,1.007926930E-2,-1.882990748E-1
8.357260800E0,-1.646280587E-1,-1.237001196E-1,-2.200640440E-1
8.367260800E0,-2.079994529E-1,-2.049451321E-1,-3.171915412E-1
8.377260800E0,-2.464839369E-1,-2.391535640E-1,-4.088212550E-1
8.387260800E0,-2.464839369E-1,-2.391535640E-1,-4.088212550E-1
8.397260800E0,-2.464839369E-1,-2.391535640E-1,-4.088212550E-1
8.407260800E0,-2.464839369E-1,-2.391535640E-1,-4.088212550E-1
8.417260800E0,-2.464839369E-1,-2.391535640E-1,-4.088212550E-1
8.427260800E0,-2.464839369E-1,-2.391535640E-1,-4.088212550E-1
8.437260800E0,-3.124573231E-1,1.487455666E-1,-7.008146048E-1
8.447260800E0,-1.927278340E-1,2.153298408E-1,-7.991638184E-1
8.457260800E0,-1.102610901E-1,3.423897028E-1,-9.091194868E-1
8.467260800E0,-1.102610901E-1,3.423897028E-1,-9.091194868E-1
8.477260800E0,-1.102610901E-1,3.423897028E-1,-9.091194868E-1
8.487260800E0,-1.102610901E-1,3.423897028E-1,-9.091194868E-1
8.497260800E0,-3.203985691E-1,1.710726857E0,-7.753401399E-1
8.507260800E0,-1.585194170E-1,1.799302220E0,-7.093667388E-1
8.517260800E0,-2.535088919E-2,1.777921915E0,-6.281217337E-1
8.527260800E0,6.017018110E-2,1.687513947E0,-5.988001823E-1
8.537260800E0,6.017018110E-2,1.687513947E0,-5.988001823E-1
8.547260800E0,6.017018110E-2,1.687513947E0,-5.988001823E-1
8.557260800E0,6.017018110E-2,1.687513947E0,-5.988001823E-1
8.567260800E0,-2.648098767E-1,8.011491299E-1,-7.338013053E-1
8.577260800E0,-3.509418070E-1,7.363975048E-1,-7.093667388E-1
8.587260800E0,-4.334085584E-1,7.119628787E-1,-5.908589363E-1
8.597260800E0,-4.437932670E-1,7.009673119E-1,-4.198168218E-1
8.607260800E0,-4.437932670E-1,7.009673119E-1,-4.198168218E-1
8.617260800E0,-4.437932670E-1,7.009673119E-1,-4.198168218E-1
8.627260800E0,1.951712966E-1,4.731147587E-1,-1.876882017E-1
8.637260800E0,2.635881603E-1,4.260781705E-1,-2.286161482E-1
8.647260800E0,2.519817352E-1,3.594939113E-1,-3.031416535E-1
8.657260800E0,1.560759544E-1,2.373209596E-1,-3.373500705E-1
8.667260800E0,-1.924224012E-2,1.157588735E-1,-3.006981909E-1
8.677260800E0,-1.924224012E-2,1.157588735E-1,-3.006981909E-1
8.687260800E0,-7.535017133E-1,-1.017089859E-1,1.476765573E-1
8.697260800E0,-8.720094562E-1,-1.444695145E-1,3.614792228E-1
8.707260800E0,-8.225294352E-1,-1.792888194E-1,5.141954422E-1
8.717260800E0,-6.246092319E-1,-2.116646469E-1,5.581777096E-1
8.727260800E0,-3.533852696E-1,-2.299905866E-1,5.148062706E-1
8.737260800E0,-9.804379940E-2,-2.147189677E-1,4.109592736E-1
8.747260800E0,-9.804379940E-2,-2.147189677E-1,4.109592736E-1
8.757260800E0,9.132428467E-2,-2.849684060E-1,2.075413018E-1
8.767260800E0,7.635809947E-3,-3.949240744E-1,2.796233594E-1
8.777260800E0,-2.901607752E-2,-5.354229808E-1,3.413206935E-1
8.787260800E0,3.878991306E-2,-7.174606919E-1,3.193295598E-1
8.797260800E0,1.530216336E-1,-9.282090068E-1,2.313650399E-1
8.807260800E0,2.092211843E-1,-1.110857606E0,1.183550507E-1
8.817260800E0,2.168569900E-2,-1.353981733E0,-3.741546720E-2
8.827260800E0,-1.798996776E-1,-1.407737851E0,-4.230238497E-2
8.837260800E0,-3.637699783E-1,-1.407737851E0,-4.902189970E-2
8.847260800E0,-4.529562294E-1,-1.401018381E0,-7.528908551E-2
8.857260800E0,-4.431824088E-1,-1.352760077E0,-1.449276656E-1
8.867260800E0,-3.735437989E-1,-1.322216868E0,-2.799287736E-1
8.877260800E0,-2.678641975E-1,-1.426674724E0,-4.418079555E-1
8.887260800E0,-1.915061027E-1,-1.642920852E0,-5.419898033E-1
8.897260800E0,-2.263254076E-1,-1.570227861E0,-5.878046155E-1
8.907260800E0,-2.953531146E-1,-1.432783365E0,-7.203623056E-1
8.917260800E0,-3.643808365E-1,-1.360701323E0,-9.146173000E-1
8.927260800E0,-3.704894781E-1,-1.319162488E0,-1.135750294E0
8.937260800E0,-3.613265157E-1,-1.233030558E0,-1.276860118E0
8.947260800E0,-3.491092324E-1,-1.056490660E0,-1.251203775E0
8.957260800E0,9.010255337E-2,-8.341358304E-1,-1.099709272E0
8.967260800E0,4.083631039E-1,-7.186824083E-1,-1.147967696E0
8.977260800E0,6.863065958E-1,-6.087267399E-1,-1.344666123E0
8.987260800E0,9.306524992E-1,-6.020072699E-1,-1.724624038E0
8.997260800E0,9.746347666E-1,-6.582068205E-1,-2.092975378E0
9.007260800E0,7.021890879E-1,-6.447677612E-1,-2.165668249E0
9.017260800E0,2.587012351E-1,-5.079340935E-1,-1.945146203E0
9.027260800E0,2.587012351E-1,-5.079340935E-1,-1.945146203E0
9.037260800E0,2.587012351E-1,-5.079340935E-1,-1.945146203E0
9.047260800E0,2.587012351E-1,-5.079340935E-1,-1.945146203E0
9.057260800E0,2.587012351E-1,-5.079340935E-1,-1.945146203E0
9.067260800E0,1.251967311E0,1.105359793E0,-1.079550743E0
9.077260800E0,1.822515011E0,1.134681344E0,-1.119867802E0
9.087260800E0,2.004552841E0,1.002123713E0,-1.149189353E0
9.097260800E0,2.004552841E0,1.002123713E0,-1.149189353E0
9.107260800E0,2.004552841E0,1.002123713E0,-1.149189353E0
9.117260800E0,2.004552841E0,1.002123713E0,-1.149189353E0
9.127260800E0,-3.497200906E-1,-8.689551353E-1,-1.589775532E-1
9.137260800E0,-5.311469436E-1,-1.037553787E0,-1.156061590E-1
9.147260800E0,-5.671879649E-1,-1.035110354E0,-1.779143661E-1
9.157260800E0,-6.185005903E-1,-9.135482907E-1,-2.261726856E-1
9.167260800E0,-6.185005903E-1,-9.135482907E-1,-2.261726856E-1
9.177260800E0,-6.185005903E-1,-9.135482907E-1,-2.261726856E-1
9.187260800E0,-3.625482321E-1,-2.306014597E-1,4.763218164E-1
9.197260800E0,-1.786779463E-1,-1.762344837E-1,5.569559336E-1
9.207260800E0,-1.007926930E-2,-1.817322671E-1,5.441278219E-1
9.217260800E0,1.194240674E-1,-2.904661894E-1,4.604393244E-1
9.227260800E0,1.169806048E-1,-4.169152081E-1,3.553705812E-1
9.237260800E0,1.169806048E-1,-4.169152081E-1,3.553705812E-1
9.247260800E0,1.169806048E-1,-4.169152081E-1,3.553705812E-1
9.257260800E0,-1.792888194E-1,-5.415316224E-1,1.556178033E-1
9.267260800E0,-2.046396956E-2,-4.529562294E-1,1.617264450E-1
9.277260800E0,2.189950198E-1,-4.169152081E-1,1.721111536E-1
9.287260800E0,4.951058924E-1,-4.205803871E-1,1.641699076E-1
9.297260800E0,7.675516009E-1,-3.802633286E-1,6.704241037E-2
9.307260800E0,7.675516009E-1,-3.802633286E-1,6.704241037E-2
9.317260800E0,6.985238791E-1,-3.145953640E-2,-2.432768941E-1
9.327260800E0,4.071413875E-1,1.524107605E-1,-1.711948514E-1
9.337260800E0,1.444695145E-1,2.733619809E-1,-3.069595434E-2
9.347260800E0,2.290742844E-2,2.977965772E-1,1.201876476E-1
9.357260800E0,-3.145953640E-2,3.045161068E-1,2.533561587E-1
9.367260800E0,-1.047633067E-1,2.916879356E-1,2.942841053E-1
9.377260800E0,-1.047633067E-1,2.916879356E-1,2.942841053E-1
9.387260800E0,-8.579595685E-1,3.399462402E-1,-1.760817766E-1
9.397260800E0,-1.132237911E0,3.741546869E-1,-3.226893246E-1
9.407260800E0,-1.264184713E0,3.258963525E-1,-3.819431961E-1
9.417260800E0,-1.192102671E0,2.654207349E-1,-3.849975169E-1
9.427260800E0,-9.275981784E-1,2.012799382E-1,-3.324631453E-1
9.437260800E0,-5.378664136E-1,1.120936871E-1,-3.037525117E-1
9.447260800E0,9.926552325E-2,2.043342739E-1,-5.981893539E-1
9.457260800E0,1.389717311E-1,3.564395905E-1,-6.708822250E-1
9.467260800E0,4.978547990E-2,5.745183229E-1,-6.641627550E-1
9.477260800E0,-8.093958348E-2,7.809906006E-1,-5.859720111E-1
9.487260800E0,-1.970038861E-1,8.652899861E-1,-4.369210303E-1
9.497260800E0,-2.415970266E-1,8.878919482E-1,-3.342957497E-1
9.507260800E0,-1.212566569E-1,8.646790981E-1,-3.862192631E-1
9.517260800E0,4.321868420E-1,6.539307237E-1,-9.763146043E-1
9.527260800E0,5.311469436E-1,7.015781999E-1,-1.275638342E0
9.537260800E0,3.906480372E-1,9.349285364E-1,-1.487608433E0
9.547260800E0,2.779434808E-2,1.200043917E0,-1.493106246E0
9.557260800E0,-4.425715208E-1,1.393687963E0,-1.227380037E0
9.567260800E0,-7.681624889E-1,1.481652498E0,-8.040507436E-1
9.577260800E0,-7.125737667E-1,1.385746717E0,-4.637990892E-1
9.587260800E0,2.385426909E-1,2.984074354E-1,-2.316704690E-1
9.597260800E0,7.278453708E-1,-2.544251680E-1,-2.976438701E-1
9.607260800E0,1.010675788E0,-6.075050235E-1,-4.155407548E-1
9.617260800E0,1.013119221E0,-7.577777505E-1,-4.741837978E-1
9.627260800E0,7.266236544E-1,-7.486147881E-1,-4.002691507E-1
9.637260800E0,2.721402645E-1,-6.423243284E-1,-2.280052751E-1
9.647260800E0,-1.157588735E-1,-5.543597937E-1,-2.397644334E-2
9.657260800E0,-3.032943606E-1,-4.474584460E-1,7.681624591E-2
9.667260800E0,-2.342666388E-1,-3.900371492E-1,-6.872228812E-3
9.677260800E0,-1.414151937E-1,-3.405571282E-1,-6.001746282E-2
9.687260800E0,-5.589412898E-2,-2.892444730E-1,-1.970038936E-2
9.697260800E0,5.161807314E-2,-2.379318327E-1,7.925970852E-2
9.707260800E0,1.774562150E-1,-1.634063274E-1,1.879936308E-1
9.717260800E0,2.855792940E-1,-6.261363626E-2,2.380845547E-1
9.727260800E0,2.855792940E-1,-6.261363626E-2,2.380845547E-1
9.737260800E0,2.855792940E-1,-6.261363626E-2,2.380845547E-1
9.747260800E0,2.855792940E-1,-6.261363626E-2,2.380845547E-1
9.757260800E0,2.855792940E-1,-6.261363626E-2,2.380845547E-1
9.767260800E0,2.855792940E-1,-6.261363626E-2,2.380845547E-1
9.777260800E0,2.422078848E-1,-1.194240674E-1,-3.178023994E-1
9.787260800E0,2.733619809E-1,-2.977965772E-1,-2.921460867E-1
9.797260800E0,2.733619809E-1,-2.977965772E-1,-2.921460867E-1
9.807260800E0,2.733619809E-1,-2.977965772E-1,-2.921460867E-1
9.817260800E0,2.733619809E-1,-2.977965772E-1,-2.921460867E-1
9.827260800E0,9.074396491E-1,-4.734202102E-2,2.747364342E-1
9.837260800E0,1.094364285E0,2.220493406E-1,3.657552898E-1
9.847260800E0,1.187826514E0,4.645626545E-1,4.353938699E-1
9.857260800E0,1.187215686E0,6.514872909E-1,4.628827870E-1
9.867260800E0,1.187215686E0,6.514872909E-1,4.628827870E-1
9.877260800E0,1.187215686E0,6.514872909E-1,4.628827870E-1
9.887260800E0,1.187215686E0,6.514872909E-1,4.628827870E-1
9.897260800E0,6.679806113E-1,5.781835318E-1,3.474293351E-1
9.907260800E0,4.780016840E-1,4.853320718E-1,2.246455252E-1
9.917260800E0,3.026835024E-1,3.234528899E-1,8.414662629E-2
9.927260800E0,1.084285006E-1,1.389717311E-1,-8.384118974E-2
9.937260800E0,1.084285006E-1,1.389717311E-1,-8.384118974E-2
9.947260800E0,1.084285006E-1,1.389717311E-1,-8.384118974E-2
9.957260800E0,1.084285006E-1,1.389717311E-1,-8.384118974E-2
9.967260800E0,-2.379318327E-1,-6.811141968E-2,-8.437569737E-1
9.977260800E0,-4.321868420E-1,1.353065521E-1,-8.089376688E-1
9.987260800E0,-7.180715203E-1,3.564395905E-1,-6.042979956E-1
9.997260800E0,-1.041218996E0,6.801979542E-1,-2.982547283E-1
1.000726080E1,-1.041218996E0,6.801979542E-1,-2.982547283E-1
1.001726080E1,-1.412013888E0,1.937968493E0,1.107956052E0
1.002726080E1,-1.185993910E0,2.288604975E0,1.218522549E0
1.003726080E1,-7.993165851E-1,2.324645996E0,1.041982651E0
1.004726080E1,-4.260781705E-1,2.131612539E0,6.864593029E-1
1.005726080E1,-1.957821548E-1,1.804800034E0,2.515235841E-1
1.006726080E1,-1.334739476E-1,1.353370905E0,-1.876882017E-1
1.007726080E1,-8.109229803E-1,4.993819594E-1,-5.010618567E-1
1.008726080E1,-1.583056092E0,3.112356067E-1,-1.577558219E-1
1.009726080E1,-2.282496214E0,2.929096520E-1,3.706422150E-1
1.010726080E1,-2.449873209E0,3.442223072E-1,8.831577301E-1
1.011726080E1,-2.030209064E0,4.627300799E-1,1.222798586E0
1.012726080E1,-1.222645879E0,5.256491303E-1,1.286328554E0
1.013726080E1,-3.265072107E-1,4.046979249E-1,1.139720917E0
1.014726080E1,6.856957078E-1,-2.764163017E-1,6.259836555E-1
1.015726080E1,7.974839807E-1,-7.296779752E-1,3.529271185E-1
1.016726080E1,6.637045741E-1,-1.087644696E0,1.470656991E-1
1.017726080E1,3.570504785E-1,-1.311221242E0,9.636391699E-2
1.018726080E1,3.145953640E-2,-1.362533927E0,2.038761228E-1
1.019726080E1,-1.817322671E-1,-1.252578259E0,3.492619395E-1
1.020726080E1,-1.798996776E-1,-1.085812092E0,4.500546157E-1
1.021726080E1,3.350593448E-1,-6.655371785E-1,4.488328993E-1
1.022726080E1,6.252201200E-1,-3.967566788E-1,3.840812445E-1
1.023726080E1,7.296779752E-1,-1.536324918E-1,2.557996213E-1
1.024726080E1,5.971203446E-1,3.145953640E-2,1.226311028E-1
1.025726080E1,3.240637779E-1,1.212566569E-1,6.765327603E-2
1.026726080E1,4.917461425E-2,1.175914705E-1,7.254019380E-2
1.027726080E1,-8.155044913E-2,4.734202102E-2,1.085812151E-1
1.028726080E1,1.744018942E-1,-1.725693047E-1,1.488982886E-1
1.029726080E1,3.625482321E-1,-2.336557806E-1,9.514218569E-2
1.030726080E1,4.089739621E-1,-2.660316229E-1,2.733619884E-2
1.031726080E1,3.063486814E-1,-2.959639728E-1,-5.085449293E-2
1.032726080E1,1.853974611E-1,-3.784307241E-1,-1.021671370E-1
1.033726080E1,1.316413581E-1,-4.725039005E-1,-1.272125840E-1
1.034726080E1,1.682932526E-1,-5.115992427E-1,-1.430950761E-1
1.035726080E1,1.682932526E-1,-5.115992427E-1,-1.430950761E-1
1.036726080E1,1.682932526E-1,-5.115992427E-1,-1.430950761E-1
1.037726080E1,1.682932526E-1,-5.115992427E-1,-1.430950761E-1
1.038726080E1,1.682932526E-1,-5.115992427E-1,-1.430950761E-1
1.039726080E1,3.051269650E-1,-1.310304999E-1,-1.070540547E-1
1.040726080E1,2.134972364E-1,-1.065959036E-1,-1.773035079E-1
1.041726080E1,9.621120244E-2,-7.299833745E-2,-2.249509543E-1
1.042726080E1,9.621120244E-2,-7.299833745E-2,-2.249509543E-1
1.043726080E1,9.621120244E-2,-7.299833745E-2,-2.249509543E-1
1.044726080E1,9.621120244E-2,-7.299833745E-2,-2.249509543E-1
1.045726080E1,-5.506945848E-1,5.244274139E-1,1.006399691E-1
1.046726080E1,-6.368265152E-1,7.516691089E-1,4.932733253E-2
1.047726080E1,-7.870992422E-1,1.007010579E0,-4.230238497E-2
1.048726080E1,-1.041829824E0,1.320384264E0,-6.979130208E-2
1.049726080E1,-1.041829824E0,1.320384264E0,-6.979130208E-2
1.050726080E1,-1.041829824E0,1.320384264E0,-6.979130208E-2
1.051726080E1,-9.746347666E-1,1.818849921E0,4.146244824E-1
1.052726080E1,-5.006036758E-1,1.658803344E0,2.936732471E-1
1.053726080E1,-1.096502244E-1,1.379638076E0,6.520981342E-2
1.054726080E1,2.779434808E-2,1.087033868E0,-2.524398565E-1
1.055726080E1,-1.102610901E-1,9.043853283E-1,-6.415607333E-1
1.056726080E1,-1.102610901E-1,9.043853283E-1,-6.415607333E-1
1.057726080E1,-6.441569328E-1,7.736602426E-1,-1.468060732E0
1.058726080E1,-3.741546869E-1,7.064651251E-1,-1.437517524E0
1.059726080E1,3.023780696E-2,6.698132157E-1,-1.366657257E0
1.060726080E1,3.643808365E-1,7.040216327E-1,-1.251203775E0
1.061726080E1,5.006036758E-1,7.003564835E-1,-1.072220445E0
1.062726080E1,4.370737374E-1,6.331613660E-1,-8.553634286E-1
1.063726080E1,4.370737374E-1,6.331613660E-1,-8.553634286E-1
1.064726080E1,4.370737374E-1,6.331613660E-1,-8.553634286E-1
1.065726080E1,7.095194459E-1,-3.851502538E-1,9.636391699E-2
1.066726080E1,1.095585942E0,-6.643154621E-1,1.806632578E-1
1.067726080E1,1.464548349E0,-8.860593438E-1,1.849393100E-1
1.068726080E1,1.718057156E0,-9.880737662E-1,1.287397593E-1
1.069726080E1,1.755319953E0,-9.892954826E-1,-1.481347065E-2
1.070726080E1,9.056070447E-1,-7.217367291E-1,-3.116937578E-1
1.071726080E1,2.874118686E-1,-5.329795480E-1,-3.379609287E-1
1.072726080E1,-1.566868126E-1,-3.484983444E-1,-3.764454126E-1
1.073726080E1,-3.387245238E-1,-1.389717311E-1,-5.016726851E-1
1.074726080E1,-2.880227566E-1,4.062250629E-2,-6.549997330E-1
1.075726080E1,-9.132428467E-2,2.153298408E-1,-7.600684762E-1
1.076726080E1,1.731801629E-1,5.225948095E-1,-7.399099469E-1
1.077726080E1,1.731801629E-1,5.225948095E-1,-7.399099469E-1
1.078726080E1,7.260127664E-1,1.468824387E0,-2.133445293E-1
1.079726080E1,5.775726438E-1,1.572060466E0,-9.361502528E-2
1.080726080E1,3.191768527E-1,1.545793295E0,-3.207040019E-3
1.081726080E1,5.283980444E-2,1.465159178E0,1.006399691E-1
1.082726080E1,-9.071341902E-2,1.135292172E0,2.154825479E-1
1.083726080E1,-8.460476995E-2,6.698132157E-1,2.918406427E-1
1.084726080E1,7.483093441E-2,-3.069595397E-1,1.898262352E-1
1.085726080E1,1.334739476E-1,-7.706059217E-1,-2.031125315E-2
1.086726080E1,1.579085439E-1,-1.180496216E0,-2.842048407E-1
1.087726080E1,1.579085439E-1,-1.180496216E0,-2.842048407E-1
1.088726080E1,1.579085439E-1,-1.180496216E0,-2.842048407E-1
1.089726080E1,4.001164436E-2,-2.024711370E0,-9.178243577E-2
1.090726080E1,1.230892539E-1,-2.002720118E0,5.019781590E-1
1.091726080E1,1.230892539E-1,-2.002720118E0,5.019781590E-1
1.092726080E1,1.230892539E-1,-2.002720118E0,5.019781590E-1
1.093726080E1,1.230892539E-1,-2.002720118E0,5.019781590E-1
1.094726080E1,8.958331943E-1,-8.277218044E-2,7.371610999E-1
1.095726080E1,4.327977002E-1,-1.047633067E-1,4.091266990E-1
1.096726080E1,-6.811141968E-2,-2.238819450E-1,1.360701323E-1
1.097726080E1,-5.684096813E-1,-2.153298408E-1,-6.490438432E-2
1.098726080E1,-5.684096813E-1,-2.153298408E-1,-6.490438432E-2
1.099726080E1,-5.684096813E-1,-2.153298408E-1,-6.490438432E-2
1.100726080E1,-2.244011879E0,1.049771070E0,-4.766272306E-1
1.101726080E1,-2.244011879E0,1.049771070E0,-4.766272306E-1
1.102726080E1,-2.432158232E0,1.655748963E0,-2.915352285E-1
1.103726080E1,-2.421162605E0,1.923307776E0,-1.492037177E-1
1.104726080E1,-2.340528488E0,2.111454010E0,1.939495653E-2
1.105726080E1,-2.340528488E0,2.111454010E0,1.939495653E-2
1.106726080E1,-2.340528488E0,2.111454010E0,1.939495653E-2
1.107726080E1,-8.762855530E-1,2.451094866E0,3.107774556E-1
1.108726080E1,-7.284562588E-1,2.595869780E0,3.138317764E-1
1.109726080E1,-6.606502533E-1,2.572046041E0,3.413206935E-1
1.110726080E1,-6.716458201E-1,2.436434269E0,3.138317764E-1
1.111726080E1,-7.492256761E-1,2.101680279E0,1.745546162E-1
1.112726080E1,-7.492256761E-1,2.101680279E0,1.745546162E-1
1.113726080E1,-2.101069450E0,1.395520568E0,-4.155407548E-1
1.114726080E1,-2.640463114E0,1.374751210E0,-1.461493969E-1
1.115726080E1,-2.836550713E0,1.207985044E0,4.812087417E-1
1.116726080E1,-2.528674841E0,9.349285364E-1,1.202640057E0
1.117726080E1,-1.790750146E0,6.215549111E-1,1.664453864E0
1.118726080E1,-8.921679854E-1,4.083631039E-1,1.713322997E0
1.119726080E1,3.521635532E-1,4.407389462E-1,9.766200781E-1
1.120726080E1,4.816668928E-1,4.352411628E-1,5.239692926E-1
1.121726080E1,3.924806118E-1,3.216203153E-1,2.209803313E-1
1.122726080E1,1.646280587E-1,1.976147592E-1,4.993819445E-2
1.123726080E1,-1.414151937E-1,1.438586563E-1,-2.153298259E-2
1.124726080E1,-4.083631039E-1,6.017018110E-2,-4.108065739E-2
1.125726080E1,-5.342012644E-1,-1.224783882E-1,-5.513054505E-2
1.126726080E1,-2.122755051E-1,-3.136790693E-1,-5.024362728E-2
1.127726080E1,2.226602137E-1,-1.786779463E-1,-6.429351866E-2
1.128726080E1,6.734784245E-1,3.023780696E-2,-1.699731201E-1
1.129726080E1,6.734784245E-1,3.023780696E-2,-1.699731201E-1
1.130726080E1,1.123074889E0,2.739728391E-1,-5.462658405E-1
1.131726080E1,1.174998403E0,7.544180006E-2,-6.641627550E-1
1.132726080E1,1.159115911E0,-3.179551065E-1,-6.898190379E-1
1.133726080E1,1.140179157E0,-1.145066023E0,-4.839576185E-1
1.134726080E1,1.246469617E0,-1.445611477E0,-3.495673835E-1
1.135726080E1,1.397964001E0,-1.609934092E0,-2.970330119E-1
1.136726080E1,1.525634766E0,-1.649640322E0,-3.275762498E-1
1.137726080E1,1.575114846E0,-1.623373151E0,-3.990474045E-1
1.138726080E1,1.514028311E0,-1.630703568E0,-4.778489769E-1
1.139726080E1,1.145066023E0,-1.840230107E0,-4.644099474E-1
1.140726080E1,9.587522745E-1,-1.944077134E0,-3.190241456E-1
1.141726080E1,8.542944193E-1,-1.989281178E0,-1.357647032E-1
1.142726080E1,8.042035103E-1,-1.906814456E0,6.566796452E-3
1.143726080E1,7.278453708E-1,-1.676518440E0,5.238165334E-2
1.144726080E1,5.879573226E-1,-1.372918606E0,-1.175914705E-2
1.145726080E1,3.698786199E-1,-1.077870846E0,-1.308777779E-1
1.146726080E1,-3.741546869E-1,-4.474584460E-1,-1.980729103E-1
1.147726080E1,-8.035926223E-1,-1.313359290E-2,-9.605848789E-2
1.148726080E1,-1.173776627E0,4.437932670E-1,2.550360374E-2
1.149726080E1,-1.391244531E0,8.420770764E-1,8.781181276E-2
1.150726080E1,-1.386968493E0,1.068097115E0,4.993819445E-2
1.151726080E1,-1.170722365E0,1.036942959E0,-2.336557768E-2
1.152726080E1,-8.316923976E-1,8.286380768E-1,-6.673697382E-2
1.153726080E1,-4.810560048E-1,5.849030018E-1,1.878409274E-2
1.154726080E1,-5.952877402E-1,5.274817348E-1,6.887500733E-2
1.155726080E1,-7.644972801E-1,4.663952589E-1,1.910479665E-1
1.156726080E1,-8.805615902E-1,4.260781705E-1,3.871355653E-1
1.157726080E1,-8.280271888E-1,4.639517963E-1,4.775435328E-1
1.158726080E1,-5.506945848E-1,5.378664136E-1,2.942841053E-1
1.159726080E1,-1.676823795E-1,5.372555852E-1,-2.029598206E-1
1.160726080E1,3.656025827E-1,9.071341902E-2,-1.499825716E0
1.161726080E1,3.368919194E-1,-2.360992432E-1,-1.802203774E0
1.162726080E1,5.406153202E-2,-3.888154328E-1,-1.817475438E0
1.163726080E1,5.406153202E-2,-3.888154328E-1,-1.817475438E0
1.164726080E1,5.406153202E-2,-3.888154328E-1,-1.817475438E0
1.165726080E1,-9.819651246E-1,-2.611446977E-1,-7.649554014E-1
1.166726080E1,-9.819651246E-1,-2.611446977E-1,-7.649554014E-1
1.167726080E1,-9.819651246E-1,-2.611446977E-1,-7.649554014E-1
1.168726080E1,-9.819651246E-1,-2.611446977E-1,-7.649554014E-1
1.169726080E1,-9.819651246E-1,-2.611446977E-1,-7.649554014E-1
1.170726080E1,-9.819651246E-1,-2.611446977E-1,-7.649554014E-1
1.171726080E1,1.510974050E0,-6.221657991E-1,5.360338464E-2
1.172726080E1,1.923918605E0,9.254601598E-2,2.386954129E-1
1.173726080E1,2.301433086E0,1.086423039E0,5.630646348E-1
1.174726080E1,2.301433086E0,1.086423039E0,5.630646348E-1
1.175726080E1,2.301433086E0,1.086423039E0,5.630646348E-1
1.176726080E1,2.301433086E0,1.086423039E0,5.630646348E-1
1.177726080E1,1.080925226E0,1.266017199E0,2.391993761E0
1.178726080E1,4.535670877E-1,8.298597932E-1,1.942397237E0
1.179726080E1,-1.252272818E-2,5.800161362E-1,1.318704367E0
1.180726080E1,-3.240637779E-1,2.281579971E-1,7.261655331E-1
1.181726080E1,-3.240637779E-1,2.281579971E-1,7.261655331E-1
1.182726080E1,-3.240637779E-1,2.281579971E-1,7.261655331E-1
1.183726080E1,-1.408959627E0,3.423897028E-1,3.504836559E-1
1.184726080E1,-1.211650252E0,5.977311730E-1,6.308705807E-1
1.185726080E1,-7.803797722E-1,6.838631034E-1,1.036484838E0
1.186726080E1,-2.312123179E-1,8.176425099E-1,1.310152292E0
1.187726080E1,2.788597643E-1,9.862411618E-1,1.244789720E0
1.188726080E1,2.788597643E-1,9.862411618E-1,1.244789720E0
1.189726080E1,7.748819590E-1,6.026180983E-1,3.657552898E-1
1.190726080E1,5.629118681E-1,3.552178741E-1,2.484692484E-1
1.191726080E1,3.216203153E-1,1.029307172E-1,2.063195854E-1
1.192726080E1,1.505781710E-1,-6.811141968E-2,2.313650399E-1
1.193726080E1,8.704823256E-2,-5.192350596E-3,2.057087123E-1
1.194726080E1,1.463021189E-1,-4.978547990E-2,-1.180496216E-1
1.195726080E1,1.463021189E-1,-4.978547990E-2,-1.180496216E-1
1.196726080E1,-1.554650813E-1,-2.580903769E-1,-4.039343297E-1
1.197726080E1,-6.933315098E-2,-8.103121519E-1,-2.359465212E-1
1.198726080E1,1.487455666E-1,-1.127350926E0,1.391244531E-1
1.199726080E1,4.437932670E-1,-1.008232355E0,4.323395491E-1
1.200726080E1,7.938187718E-1,-7.345649004E-1,4.989238083E-1
1.201726080E1,1.085201263E0,-4.822777510E-1,3.908007443E-1
1.202726080E1,1.175609231E0,-6.322450191E-2,3.901898861E-1
1.203726080E1,1.151174664E0,-1.487455666E-1,5.502364635E-1
1.204726080E1,1.138346553E0,-3.967566788E-1,6.840158105E-1
1.205726080E1,1.092531681E0,-6.404917240E-1,7.017309070E-1
1.206726080E1,9.978476167E-1,-7.443387508E-1,5.722275972E-1
1.207726080E1,9.117156863E-1,-7.742711306E-1,3.174969554E-1
1.208726080E1,8.591812849E-1,-8.689551353E-1,5.115992576E-2
1.209726080E1,6.466003656E-1,-7.913753390E-1,-1.840230078E-1
1.210726080E1,5.836812854E-1,-7.925970554E-1,-1.828012913E-1
1.211726080E1,5.812378526E-1,-9.080504775E-1,-7.101303339E-2
1.212726080E1,5.635227561E-1,-8.292489648E-1,8.231402934E-2
1.213726080E1,5.036579967E-1,-5.164861679E-1,1.171333194E-1
1.214726080E1,4.291325212E-1,-2.568686306E-1,5.360338464E-2
1.215726080E1,2.831358314E-1,-1.182023361E-1,7.315105945E-2
1.216726080E1,2.831358314E-1,-1.182023361E-1,7.315105945E-2
1.217726080E1,2.831358314E-1,-1.182023361E-1,7.315105945E-2
1.218726080E1,2.831358314E-1,-1.182023361E-1,7.315105945E-2
1.219726080E1,2.831358314E-1,-1.182023361E-1,7.315105945E-2
1.220726080E1,-1.122464061E0,1.402240157E0,6.154462695E-2
1.221726080E1,-1.091309905E0,1.239750028E0,-1.107192412E-1
1.222726080E1,-9.660826325E-1,9.172134399E-1,-2.047924101E-1
1.223726080E1,-9.660826325E-1,9.172134399E-1,-2.047924101E-1
1.224726080E1,-9.660826325E-1,9.172134399E-1,-2.047924101E-1
1.225726080E1,-9.660826325E-1,9.172134399E-1,-2.047924101E-1
1.226726080E1,-1.709505081E0,3.564395905E-1,6.644681692E-1
1.227726080E1,-1.680183530E0,6.282744408E-1,7.628173828E-1
1.228726080E1,-1.609323263E0,8.940005898E-1,6.895136237E-1
1.229726080E1,-1.629481792E0,1.011286616E0,4.274526238E-1
1.230726080E1,-1.629481792E0,1.011286616E0,4.274526238E-1
1.231726080E1,-1.629481792E0,1.011286616E0,4.274526238E-1
1.232726080E1,-2.560439825E0,-2.489273995E-1,-7.887791395E-1
1.233726080E1,-2.478583813E0,-6.166679859E-1,-7.570141554E-1
1.234726080E1,-2.055254459E0,-7.486147881E-1,-6.177369952E-1
1.235726080E1,-1.380249023E0,-6.349939108E-1,-5.016726851E-1
1.236726080E1,-6.704241037E-1,-3.521635532E-1,-5.169443488E-1
1.237726080E1,-6.704241037E-1,-3.521635532E-1,-5.169443488E-1
1.238726080E1,-6.704241037E-1,-3.521635532E-1,-5.169443488E-1
1.239726080E1,-5.598575473E-1,3.704894781E-1,-6.647735834E-1
1.240726080E1,-7.480039001E-1,1.786779463E-1,-5.462658405E-1
1.241726080E1,-7.272345424E-1,-3.756818548E-2,-4.460839927E-1
1.242726080E1,-5.225948095E-1,-1.902843714E-1,-3.807214797E-1
1.243726080E1,-2.550360560E-1,-2.031125426E-1,-3.911061883E-1
1.244726080E1,-2.550360560E-1,-2.031125426E-1,-3.911061883E-1
1.245726080E1,-4.917461425E-2,1.346956789E-1,-9.567669630E-1
1.246726080E1,-2.061668634E-1,7.666353136E-2,-1.130252600E0
1.247726080E1,-4.053087831E-1,1.924224012E-2,-1.179732561E0
1.248726080E1,-5.629118681E-1,-2.962694131E-2,-1.055116177E0
1.249726080E1,-5.855138898E-1,-5.345066637E-2,-8.119919896E-1
1.250726080E1,-4.376846254E-1,-1.496618707E-2,-5.749764442E-1
1.251726080E1,1.243109852E-1,2.226602137E-1,-4.992292523E-1
1.252726080E1,1.243109852E-1,2.226602137E-1,-4.992292523E-1
1.253726080E1,1.658497900E-1,2.605338395E-1,-1.055116177E0
1.254726080E1,-1.737910360E-1,-3.268126398E-2,-1.282357931E0
1.255726080E1,-6.258309484E-1,-3.607156575E-1,-1.308014154E0
1.256726080E1,-9.978476167E-1,-6.056724191E-1,-1.129030824E0
1.257726080E1,-1.056490660E0,-7.638863921E-1,-8.486438990E-1
1.258726080E1,-4.144717455E-1,-6.575959325E-1,-4.937314689E-1
1.259726080E1,-8.338304609E-2,-4.474584460E-1,-4.320341051E-1
1.260726080E1,1.496618707E-2,-3.130682111E-1,-4.460839927E-1
1.261726080E1,-3.940077871E-2,-4.230238497E-1,-4.815141559E-1
1.262726080E1,-7.299833745E-2,-6.490437984E-1,-5.028944016E-1
1.263726080E1,2.351829410E-2,-8.280271888E-1,-5.578722358E-1
1.264726080E1,2.379318327E-1,-1.036332130E0,-6.647735834E-1
1.265726080E1,7.431169748E-1,-1.521969557E0,-8.126028776E-1
1.266726080E1,9.978476167E-1,-1.635590434E0,-9.989166260E-1
1.267726080E1,1.185383081E0,-1.663079381E0,-1.154076338E0
1.268726080E1,1.160337687E0,-1.549458504E0,-1.244484305E0
1.269726080E1,9.483675957E-1,-1.289840937E0,-1.234099627E0
1.270726080E1,7.638863921E-1,-1.022893071E0,-1.121089578E0
1.271726080E1,7.345649004E-1,-7.681624889E-1,-9.518800378E-1
1.272726080E1,1.195156932E0,-4.828886092E-1,-3.990474045E-1
1.273726080E1,1.195156932E0,-4.828886092E-1,-3.990474045E-1
1.274726080E1,1.195156932E0,-4.828886092E-1,-3.990474045E-1
1.275726080E1,1.195156932E0,-4.828886092E-1,-3.990474045E-1
1.276726080E1,1.195156932E0,-4.828886092E-1,-3.990474045E-1
1.277726080E1,2.047313213E0,-1.024725676E0,-3.306305707E-1
1.278726080E1,1.691179156E0,-1.039386392E0,-4.509709179E-1
1.279726080E1,1.691179156E0,-1.039386392E0,-4.509709179E-1
1.280726080E1,1.691179156E0,-1.039386392E0,-4.509709179E-1
1.281726080E1,1.691179156E0,-1.039386392E0,-4.509709179E-1
1.282726080E1,1.038164735E0,-5.934551358E-1,-3.013090491E-1
1.283726080E1,1.016173601E0,-6.973021626E-1,-3.361283541E-1
1.284726080E1,1.016173601E0,-6.973021626E-1,-3.361283541E-1
1.285726080E1,7.046325207E-1,-1.013730049E0,-4.326449931E-1
1.286726080E1,7.046325207E-1,-1.013730049E0,-4.326449931E-1
1.287726080E1,7.046325207E-1,-1.013730049E0,-4.326449931E-1
1.288726080E1,2.794706225E-1,-1.513417482E0,-5.829176903E-1
1.288726080E1,2.794706225E-1,-1.513417482E0,-5.829176903E-1
1.290726080E1,4.095848203E-1,-1.289230108E0,-5.071704984E-1
1.291726080E1,4.505127668E-1,-1.150563836E0,-4.161516428E-1
1.292726080E1,5.048797131E-1,-1.033888698E0,-3.147480786E-1
1.293726080E1,5.048797131E-1,-1.033888698E0,-3.147480786E-1
1.294726080E1,5.048797131E-1,-1.033888698E0,-3.147480786E-1
1.295726080E1,5.714640021E-1,-7.559451461E-1,1.568395346E-1
1.296726080E1,5.647444725E-1,-7.186824083E-1,2.594648004E-1
1.297726080E1,5.708531141E-1,-7.015781999E-1,3.236056268E-1
1.298726080E1,5.800161362E-1,-7.107411623E-1,3.846921027E-1
1.299726080E1,6.239983439E-1,-7.382301092E-1,4.787652791E-1
1.300726080E1,6.239983439E-1,-7.382301092E-1,4.787652791E-1
1.301726080E1,1.011286616E0,-7.962622643E-1,7.982475758E-1
1.302726080E1,1.165835381E0,-7.412844300E-1,8.226821423E-1
1.303726080E1,1.233030558E0,-6.478220820E-1,7.622065544E-1
1.304726080E1,1.153007269E0,-5.623010397E-1,6.901245117E-1
1.305726080E1,9.459241033E-1,-5.170970559E-1,7.133373618E-1
1.306726080E1,7.064651251E-1,-4.193586707E-1,8.165735006E-1
1.307726080E1,5.128209591E-1,-1.682932526E-1,9.692896605E-1
1.308726080E1,6.227766275E-1,-1.206457913E-1,1.002887249E0
1.309726080E1,8.035926223E-1,-1.420260668E-1,9.998329282E-1
1.310726080E1,9.068287611E-1,-2.153298408E-1,9.527963400E-1
1.311726080E1,8.378010392E-1,-2.880227566E-1,8.917098641E-1
1.312726080E1,6.325504780E-1,-3.649916947E-1,8.190169334E-1
1.313726080E1,3.491092324E-1,-4.193586707E-1,7.225003242E-1
1.314726080E1,-1.585194170E-1,-3.759872615E-1,6.901245117E-1
1.315726080E1,-1.945604384E-1,-2.745837271E-1,7.261655331E-1
1.316726080E1,-1.041524485E-1,-1.169806048E-1,7.322741747E-1
1.317726080E1,7.544180006E-2,7.635809947E-3,7.261655331E-1
1.318726080E1,3.265072107E-1,8.765909821E-2,6.125446558E-1
1.319726080E1,5.763509274E-1,1.346956789E-1,3.663661480E-1
1.320726080E1,7.089085579E-1,1.798996776E-1,1.018617004E-1
1.321726080E1,4.138608873E-1,3.662134409E-1,-8.506292105E-2
1.322726080E1,-3.817904741E-2,5.812378526E-1,1.354592592E-1
1.323726080E1,-5.378664136E-1,8.145881891E-1,5.227475166E-1
1.324726080E1,-8.225294352E-1,9.337068200E-1,8.465058804E-1
1.325726080E1,-8.151990771E-1,9.013310075E-1,1.012050271E0
1.326726080E1,-6.343830824E-1,7.357866168E-1,1.102458239E0
1.327726080E1,-4.242455959E-1,4.902189970E-1,1.090240955E0
1.328726080E1,-4.242455959E-1,4.902189970E-1,1.090240955E0
1.329726080E1,-4.242455959E-1,4.902189970E-1,1.090240955E0
1.330726080E1,-4.242455959E-1,4.902189970E-1,1.090240955E0
1.331726080E1,-4.242455959E-1,4.902189970E-1,1.090240955E0
1.332726080E1,-9.166026115E-1,-8.643736690E-2,7.469348907E-1
1.333726080E1,-7.889318466E-1,-1.985310577E-2,9.509637356E-1
1.334726080E1,-4.700604379E-1,4.489856213E-2,1.024878383E0
1.335726080E1,-4.700604379E-1,4.489856213E-2,1.024878383E0
1.336726080E1,-4.700604379E-1,4.489856213E-2,1.024878383E0
1.337726080E1,-4.700604379E-1,4.489856213E-2,1.024878383E0
1.338726080E1,-1.527161920E-3,-1.780670881E-1,3.755291104E-1
1.339726080E1,-6.811141968E-2,-1.811214089E-1,3.523162603E-1
1.340726080E1,-6.505709887E-2,-2.764163017E-1,3.914116025E-1
1.341726080E1,-1.924224012E-2,-3.289506733E-1,4.170679152E-1
1.342726080E1,-1.924224012E-2,-3.289506733E-1,4.170679152E-1
1.343726080E1,-1.924224012E-2,-3.289506733E-1,4.170679152E-1
1.344726080E1,1.713475734E-1,-7.089085579E-1,2.887863219E-1
1.344726080E1,1.713475734E-1,-7.089085579E-1,2.887863219E-1
1.346726080E1,5.467239767E-2,-6.197223067E-1,4.158461988E-1
1.347726080E1,-3.054323897E-4,-5.849030018E-1,4.891499579E-1
1.348726080E1,-3.268126398E-2,-5.348120928E-1,5.435169339E-1
1.349726080E1,-1.557705179E-2,-5.299251676E-1,4.928151667E-1
1.350726080E1,-2.138026757E-3,-5.720748901E-1,4.201222658E-1
1.351726080E1,1.557705179E-2,-6.032289863E-1,3.529271185E-1
1.352726080E1,7.849612087E-2,-6.588176489E-1,3.211621642E-1
1.353726080E1,7.849612087E-2,-6.588176489E-1,3.211621642E-1
1.354726080E1,2.831358314E-1,-5.109884143E-1,2.606865466E-1
1.355726080E1,3.900371492E-1,-2.843575478E-1,1.849393100E-1
1.356726080E1,3.900371492E-1,-2.843575478E-1,1.849393100E-1
1.357726080E1,3.900371492E-1,-2.843575478E-1,1.849393100E-1
1.358726080E1,3.900371492E-1,-2.843575478E-1,1.849393100E-1
1.359726080E1,3.900371492E-1,-2.843575478E-1,1.849393100E-1
1.360726080E1,1.110246778E0,2.629773021E-1,7.212786078E-1
1.361726080E1,1.118798852E0,2.086103261E-1,5.813905597E-1
1.362726080E1,1.008232355E0,1.182023361E-1,4.476111531E-1
1.363726080E1,1.008232355E0,1.182023361E-1,4.476111531E-1
1.364726080E1,1.008232355E0,1.182023361E-1,4.476111531E-1
1.365726080E1,1.008232355E0,1.182023361E-1,4.476111531E-1
1.366726080E1,-2.251036763E-1,-2.868010104E-1,8.220712543E-1
1.367726080E1,-4.303542376E-1,-4.254673123E-1,8.642209172E-1
1.368726080E1,-6.123919487E-1,-5.256491303E-1,8.520036340E-1
1.369726080E1,-7.547234297E-1,-4.181369543E-1,8.257364631E-1
1.370726080E1,-7.547234297E-1,-4.181369543E-1,8.257364631E-1
1.371726080E1,-7.547234297E-1,-4.181369543E-1,8.257364631E-1
1.372726080E1,-7.632755637E-1,1.371391416E-1,3.993528485E-1
1.373726080E1,-6.661480665E-1,6.078104675E-2,1.947131455E-1
1.374726080E1,-5.922334194E-1,8.246674202E-3,3.344484791E-2
1.375726080E1,-6.203331947E-1,2.168569900E-2,-3.313941509E-2
1.376726080E1,-7.516691089E-1,6.139190868E-2,3.161225095E-2
1.377726080E1,-7.516691089E-1,6.139190868E-2,3.161225095E-2
1.378726080E1,-1.059544921E0,2.360992432E-1,2.808450758E-1
1.379726080E1,-1.072983980E0,1.762344837E-1,2.887863219E-1
1.380726080E1,-1.063210130E0,4.489856213E-2,2.722929716E-1
1.381726080E1,-9.477567077E-1,-5.955931544E-2,2.160934210E-1
1.382726080E1,-6.411026120E-1,-9.560033679E-2,9.453132749E-2
1.383726080E1,-2.220493406E-1,-1.493564397E-1,-9.178243577E-2
1.384726080E1,-2.220493406E-1,-1.493564397E-1,-9.178243577E-2
1.384726080E1,2.831358314E-1,-1.200349256E-1,-4.137081802E-1
1.386726080E1,1.579085439E-1,2.061668634E-1,-4.302015305E-1
1.387726080E1,1.618791744E-2,4.187478125E-1,-3.330740333E-1
1.388726080E1,-9.926552325E-2,5.598575473E-1,-1.540906429E-1
1.389726080E1,-1.829539984E-1,6.624828577E-1,1.061377525E-1
1.390726080E1,-2.446513474E-1,7.327322960E-1,3.712530732E-1
1.391726080E1,-3.717112243E-1,6.466003656E-1,5.716167092E-1
1.392726080E1,-4.560105503E-1,4.761691093E-1,5.361865759E-1
1.393726080E1,-5.122101307E-1,3.240637779E-1,4.213439822E-1
1.394726080E1,-4.786125422E-1,2.165515572E-1,2.606865466E-1
1.395726080E1,-3.387245238E-1,1.432477981E-1,1.177441850E-1
1.396726080E1,-1.328630894E-1,6.505709887E-2,9.010255337E-3
1.397726080E1,8.460476995E-2,1.191186346E-2,-8.261945844E-2
1.398726080E1,4.456258714E-1,-2.138026757E-3,-3.171915412E-1
1.399726080E1,5.568032265E-1,-6.444623321E-2,-4.485274553E-1
1.400726080E1,6.368265152E-1,-1.554650813E-1,-5.389354229E-1
1.401726080E1,7.089085579E-1,-2.275471240E-1,-5.548179150E-1
1.402726080E1,7.895427346E-1,-2.782489061E-1,-5.028944016E-1
1.403726080E1,8.848376274E-1,-3.527744114E-1,-4.271472096E-1
1.404726080E1,9.618065953E-1,-3.808741868E-1,-3.703367710E-1
1.405726080E1,1.008843184E0,-3.625482321E-1,-3.080285788E-1
1.406726080E1,1.007010579E0,-3.094030023E-1,-3.031416535E-1
1.407726080E1,1.022893071E0,-2.159406990E-1,-3.135263622E-1
1.408726080E1,1.022893071E0,-2.159406990E-1,-3.135263622E-1
1.409726080E1,1.160948515E0,1.007926930E-2,-3.837758005E-1
1.410726080E1,1.234252334E0,1.304196268E-1,-4.057669342E-1
1.411726080E1,1.279456258E0,2.281579971E-1,-3.587303460E-1
1.412726080E1,1.279456258E0,2.281579971E-1,-3.587303460E-1
1.413726080E1,1.269071579E0,5.091558099E-1,-1.907425225E-1
1.414726080E1,1.212872028E0,5.555815101E-1,-1.931859851E-1
1.415726080E1,1.125518322E0,5.183187723E-1,-2.096793354E-1
1.416726080E1,1.018006206E0,4.315759540E-1,-2.799287736E-1
1.417726080E1,9.025527239E-1,2.996291816E-1,-3.758345544E-1
1.418726080E1,7.742711306E-1,1.041524485E-1,-4.234820008E-1
1.419726080E1,3.423897028E-1,-1.463021189E-1,-3.703367710E-1
1.420726080E1,1.072067693E-1,-1.316413581E-1,-3.825540543E-1
1.421726080E1,-2.046396956E-2,-3.451386094E-2,-4.680751264E-1
1.422726080E1,8.246674202E-3,7.238747925E-2,-6.476693749E-1
1.423726080E1,1.603520066E-1,1.872300506E-1,-8.510873318E-1
1.424726080E1,3.497200906E-1,3.423897028E-1,-9.848667383E-1
1.425726080E1,5.085449219E-1,5.073232055E-1,-1.019075155E0
1.426726080E1,6.618719697E-1,6.655371785E-1,-9.396627545E-1
1.427726080E1,6.490437984E-1,6.429351568E-1,-9.818124175E-1
1.428726080E1,5.421425104E-1,5.971203446E-1,-1.030070782E0
1.429726080E1,3.075704277E-1,5.653553605E-1,-1.000138402E0
1.430726080E1,-3.359756200E-3,5.629118681E-1,-8.999565244E-1
1.431726080E1,-2.580903769E-1,5.568032265E-1,-8.003855944E-1
1.432726080E1,-3.509418070E-1,5.207622051E-1,-7.582359314E-1
1.433726080E1,-1.927278340E-1,2.971857190E-1,-8.156571984E-1
1.434726080E1,-2.351829410E-2,7.299833745E-2,-8.181006312E-1
1.435726080E1,1.695149690E-1,-1.359174103E-1,-7.673988938E-1
1.436726080E1,3.527744114E-1,-2.782489061E-1,-7.191405892E-1
1.437726080E1,5.006036758E-1,-3.680460155E-1,-7.484620810E-1
1.438726080E1,5.775726438E-1,-3.851502538E-1,-8.596394658E-1
1.439726080E1,5.849030018E-1,-3.552178741E-1,-9.323323965E-1
1.440726080E1,5.189296007E-1,-3.307832778E-1,-6.623301506E-1
1.441726080E1,4.297433794E-1,-3.607156575E-1,-3.917170465E-1
1.442726080E1,3.081812859E-1,-3.882045746E-1,-1.748600453E-1
1.443726080E1,1.853974611E-1,-4.340194166E-1,-8.200860023E-2
1.444726080E1,9.315688163E-2,-5.219839811E-1,-1.094975099E-1
1.445726080E1,3.023780696E-2,-5.861247778E-1,-2.377791107E-1
1.446726080E1,2.107483521E-2,-5.873464942E-1,-4.277580678E-1
1.447726080E1,2.107483521E-2,-5.873464942E-1,-4.277580678E-1
1.448726080E1,2.107483521E-2,-5.873464942E-1,-4.277580678E-1
1.449726080E1,2.107483521E-2,-5.873464942E-1,-4.277580678E-1
1.450726080E1,2.107483521E-2,-5.873464942E-1,-4.277580678E-1
1.451726080E1,1.182328820E0,-6.704241037E-1,-7.331904769E-1
1.452726080E1,1.153618097E0,-7.870992422E-1,-7.936660647E-1
1.453726080E1,1.027169108E0,-9.874629378E-1,-8.394809365E-1
1.454726080E1,1.027169108E0,-9.874629378E-1,-8.394809365E-1
1.455726080E1,1.027169108E0,-9.874629378E-1,-8.394809365E-1
1.456726080E1,1.027169108E0,-9.874629378E-1,-8.394809365E-1
1.457726080E1,9.056070447E-1,-8.842267394E-1,-5.248855352E-1
1.458726080E1,1.031445146E0,-8.671225309E-1,-4.815141559E-1
1.459726080E1,1.131016135E0,-8.506292105E-1,-4.754055142E-1
1.460726080E1,1.191491723E0,-8.225294352E-1,-4.692968726E-1
1.461726080E1,1.191491723E0,-8.225294352E-1,-4.692968726E-1
1.462726080E1,1.191491723E0,-8.225294352E-1,-4.692968726E-1
1.463726080E1,1.305723429E0,-4.505127668E-1,-4.173733592E-1
1.464726080E1,1.352149248E0,-1.029307172E-1,-3.116937578E-1
1.465726080E1,1.339931846E0,1.328630894E-1,-1.876882017E-1
1.466726080E1,1.273347616E0,1.395826042E-1,-1.241582632E-1
1.467726080E1,1.139568210E0,6.017018110E-2,-1.522580534E-1
1.468726080E1,1.139568210E0,6.017018110E-2,-1.522580534E-1
1.469726080E1,3.924806118E-1,7.605266571E-2,-1.620318890E-1
1.470726080E1,1.255327165E-1,9.315688163E-2,4.260781780E-2
1.471726080E1,-4.123337194E-2,1.435532235E-2,2.209803313E-1
1.472726080E1,-8.826996386E-2,-1.328630894E-1,2.576322258E-1
1.473726080E1,-6.811141968E-2,-2.550360560E-1,1.476765573E-1
1.474726080E1,-2.596175298E-2,-3.106247485E-1,-2.519817278E-2
1.475726080E1,-2.596175298E-2,-3.106247485E-1,-2.519817278E-2
1.476726080E1,7.238747925E-2,1.252272818E-2,-1.175914705E-2
1.477726080E1,1.145371497E-1,1.762344837E-1,2.490801066E-1
1.478726080E1,1.084285006E-1,3.332267404E-1,5.551233888E-1
1.479726080E1,3.634645417E-2,3.845393658E-1,7.915280461E-1
1.480726080E1,-2.901607752E-2,3.039052188E-1,8.489493132E-1
1.481726080E1,-7.116574794E-2,1.047633067E-1,7.084504366E-1
1.482726080E1,-1.802051067E-2,-7.021890879E-1,2.977965772E-2
1.483726080E1,1.102610901E-1,-1.178663611E0,-3.300196826E-1
1.484726080E1,2.874118686E-1,-1.479209065E0,-5.615374446E-1
1.485726080E1,5.219839811E-1,-1.541517258E0,-6.067414284E-1
1.486726080E1,7.840449214E-1,-1.330768943E0,-4.766272306E-1
1.487726080E1,9.954041839E-1,-8.616247773E-1,-1.968511790E-1
1.488726080E1,1.116966248E0,-2.947422564E-1,1.421787739E-1
1.489726080E1,1.076649189E0,7.443387508E-1,4.592176080E-1
1.490726080E1,9.550870657E-1,9.599739909E-1,3.956876695E-1
1.491726080E1,7.773254514E-1,9.233221412E-1,2.313650399E-1
1.492726080E1,5.268708467E-1,7.626646757E-1,1.006399691E-1
1.493726080E1,2.672533393E-1,4.902189970E-1,8.048143238E-2
1.494726080E1,1.985310577E-2,1.615737379E-1,1.391244531E-1
1.495726080E1,-2.257145345E-1,-1.139262840E-1,2.197586000E-1
1.496726080E1,-7.473930717E-1,-2.666424811E-1,3.162752390E-1
1.497726080E1,-1.039386392E0,-1.285870373E-1,3.071122766E-1
1.498726080E1,-1.039386392E0,-1.285870373E-1,3.071122766E-1
1.499726080E1,-1.039386392E0,-1.285870373E-1,3.071122766E-1
1.500726080E1,-1.892153621E0,7.254019380E-1,3.956876695E-1
1.501726080E1,-2.034485102E0,1.023503900E0,5.117519498E-1
1.502726080E1,-2.050978422E0,1.253189087E0,5.838339925E-1
1.503726080E1,-2.050978422E0,1.253189087E0,5.838339925E-1
1.504726080E1,-2.050978422E0,1.253189087E0,5.838339925E-1
1.505726080E1,-2.050978422E0,1.253189087E0,5.838339925E-1
1.506726080E1,-8.671225309E-1,9.575305581E-1,-2.958112657E-1
1.507726080E1,-7.742711306E-1,8.396336436E-1,-4.772381186E-1
1.508726080E1,-8.286380768E-1,8.151990771E-1,-5.499309897E-1
1.509726080E1,-1.027779937E0,8.695660233E-1,-5.554288030E-1
1.510726080E1,-1.027779937E0,8.695660233E-1,-5.554288030E-1
1.511726080E1,-1.148120403E0,9.166026115E-1,-5.041161776E-1
1.511726080E1,-1.148120403E0,9.166026115E-1,-5.041161776E-1
1.513726080E1,-1.249218509E-1,6.710349321E-1,-6.873756051E-1
1.514726080E1,4.138608873E-1,5.458076596E-1,-7.619010806E-1
1.515726080E1,7.767145634E-1,5.342012644E-1,-7.509055138E-1
1.516726080E1,9.556979537E-1,5.580250025E-1,-6.470585465E-1
1.517726080E1,9.556979537E-1,5.580250025E-1,-6.470585465E-1
1.518726080E1,7.822123766E-1,4.828886092E-1,-2.597702444E-1
1.519726080E1,5.934551358E-1,4.731147587E-1,-1.266017258E-1
1.520726080E1,3.533852696E-1,4.932733178E-1,1.511890348E-2
1.521726080E1,1.059850380E-1,5.641336441E-1,1.611155868E-1
1.522726080E1,-8.093958348E-2,6.527090073E-1,2.851211429E-1
1.523726080E1,-8.093958348E-2,6.527090073E-1,2.851211429E-1
1.524726080E1,-1.365282834E-1,7.626646757E-1,3.077231348E-1
1.525726080E1,-1.365282834E-1,8.054252267E-1,3.003927469E-1
1.526726080E1,-1.689041108E-1,8.634573817E-1,3.394880891E-1
1.527726080E1,-2.214384824E-1,8.915571570E-1,3.895790279E-1
1.528726080E1,-2.806923687E-1,8.872811198E-1,3.908007443E-1
1.529726080E1,-3.503309488E-1,8.402445316E-1,3.284925222E-1
1.530726080E1,-3.503309488E-1,8.402445316E-1,3.284925222E-1
1.531726080E1,-6.429351568E-1,7.254019380E-1,1.409570426E-1
1.532726080E1,-7.779362798E-1,6.789761782E-1,1.727220118E-1
1.533726080E1,-8.628464937E-1,5.488619804E-1,2.325867712E-1
1.534726080E1,-8.353576064E-1,3.692677617E-1,2.527453005E-1
1.535726080E1,-6.820304990E-1,1.487455666E-1,1.507308781E-1
1.536726080E1,-4.254673123E-1,-7.299833745E-2,-1.192713454E-1
1.537726080E1,-3.054323897E-4,-1.212566569E-1,-5.511527658E-1
1.538726080E1,-1.084285006E-1,8.582650125E-2,-3.147480786E-1
1.539726080E1,-4.156934917E-1,2.910770774E-1,2.167042792E-1
1.540726080E1,-7.229584455E-1,2.959639728E-1,7.664825916E-1
1.541726080E1,-8.622356653E-1,5.650499091E-2,1.078634501E0
1.542726080E1,-8.475748897E-1,-3.222311735E-1,1.100014806E0
1.543726080E1,-7.522799969E-1,-7.211259007E-1,9.259182811E-1
1.544726080E1,-3.662134409E-1,-1.069929719E0,4.989238083E-1
1.545726080E1,-8.949168772E-2,-9.917389750E-1,4.011854529E-1
1.546726080E1,2.092211843E-1,-8.158099055E-1,4.079049528E-1
1.547726080E1,4.816668928E-1,-6.068941355E-1,4.946477413E-1
1.548726080E1,6.893609166E-1,-3.753764033E-1,6.265945435E-1
1.549726080E1,7.773254514E-1,-1.346956789E-1,7.444914579E-1
1.550726080E1,7.431169748E-1,1.130099874E-2,8.116865754E-1
1.551726080E1,7.431169748E-1,1.130099874E-2,8.116865754E-1
1.552726080E1,7.431169748E-1,1.130099874E-2,8.116865754E-1
1.553726080E1,7.431169748E-1,1.130099874E-2,8.116865754E-1
1.554726080E1,7.431169748E-1,1.130099874E-2,8.116865754E-1
1.555726080E1,-1.182023361E-1,-5.354229808E-1,3.162752390E-1
1.556726080E1,-1.517999023E-1,9.437860548E-2,2.606865466E-1
1.557726080E1,-1.817322671E-1,6.392700076E-1,2.710712552E-1
1.558726080E1,-1.817322671E-1,6.392700076E-1,2.710712552E-1
1.559726080E1,-1.817322671E-1,6.392700076E-1,2.710712552E-1
1.560726080E1,-1.817322671E-1,6.392700076E-1,2.710712552E-1
1.561726080E1,-8.805615902E-1,-1.309999466E0,4.647153914E-1
1.562726080E1,-1.003956318E0,-1.777921915E0,4.421133697E-1
1.563726080E1,-1.087644696E0,-2.036317825E0,4.030180275E-1
1.564726080E1,-1.101694584E0,-2.111454010E0,4.115701318E-1
1.565726080E1,-1.101694584E0,-2.111454010E0,4.115701318E-1
1.566726080E1,-1.101694584E0,-2.111454010E0,4.115701318E-1
1.567726080E1,-1.101694584E0,-2.111454010E0,4.115701318E-1
1.568726080E1,3.894262910E-1,-3.943132162E-1,1.738368392E0
1.569726080E1,7.425061464E-1,7.666353136E-2,2.084117889E0
1.570726080E1,9.239329696E-1,5.152644515E-1,2.343124628E0
1.571726080E1,9.550870657E-1,8.451313972E-1,2.502560377E0
1.572726080E1,9.550870657E-1,8.451313972E-1,2.502560377E0
1.573726080E1,6.801979542E-1,6.551524997E-1,1.881310821E0
1.574726080E1,5.128209591E-1,4.346303046E-1,1.443320751E0
1.575726080E1,5.128209591E-1,4.346303046E-1,1.443320751E0
1.576726080E1,-1.496618707E-2,2.312123179E-1,9.741765857E-1
1.577726080E1,-2.251036763E-1,2.703076601E-1,1.082299709E0
1.578726080E1,-3.423897028E-1,3.985892832E-1,1.264337420E0
1.579726080E1,-3.423897028E-1,3.985892832E-1,1.264337420E0
1.580726080E1,-3.423897028E-1,3.985892832E-1,1.264337420E0
1.581726080E1,3.002400398E-1,4.505127668E-1,1.118951559E0
1.582726080E1,4.095848203E-1,3.851502538E-1,7.793107629E-1
1.583726080E1,3.985892832E-1,4.517345130E-1,4.909825623E-1
1.584726080E1,3.222311735E-1,4.572322965E-1,4.066832364E-1
1.585726080E1,1.719584316E-1,3.527744114E-1,4.592176080E-1
1.586726080E1,-3.381136656E-1,1.328630894E-1,5.099193454E-1
1.587726080E1,-5.574141145E-1,8.949168772E-2,4.476111531E-1
1.588726080E1,-6.997455955E-1,1.450803876E-1,2.997818887E-1
1.589726080E1,-7.583886385E-1,2.794706225E-1,1.342375278E-1
1.590726080E1,-7.828232050E-1,4.053087831E-1,6.826414168E-2
1.591726080E1,-8.536835313E-1,5.421425104E-1,1.543960720E-1
1.592726080E1,-1.046716809E0,6.966912746E-1,3.895790279E-1
1.593726080E1,-1.650862098E0,9.978476167E-1,1.126281977E0
1.594726080E1,-1.818238974E0,1.101083755E0,1.472642303E0
1.595726080E1,-1.786473989E0,1.167667985E0,1.660788655E0
1.596726080E1,-1.600160241E0,1.118188024E0,1.631467104E0
1.597726080E1,-1.326492906E0,9.086613655E-1,1.437212110E0
1.598726080E1,-1.047327638E0,6.484329700E-1,1.147051334E0
1.599726080E1,-8.500183225E-1,5.134318471E-1,8.587231636E-1
1.600726080E1,-8.500183225E-1,5.134318471E-1,8.587231636E-1
1.601726080E1,-8.500183225E-1,5.134318471E-1,8.587231636E-1
1.602726080E1,-8.500183225E-1,5.134318471E-1,8.587231636E-1
1.603726080E1,-8.500183225E-1,5.134318471E-1,8.587231636E-1
1.604726080E1,-9.685261250E-1,8.341358304E-1,1.564882874E0
1.605726080E1,-1.105359793E0,9.569196701E-1,1.555719852E0
1.606726080E1,-1.197600365E0,1.019838691E0,1.516624570E0
1.607726080E1,-1.197600365E0,1.019838691E0,1.516624570E0
1.608726080E1,-1.197600365E0,1.019838691E0,1.516624570E0
1.609726080E1,-1.197600365E0,1.019838691E0,1.516624570E0
1.610726080E1,-1.197600365E0,1.019838691E0,1.516624570E0
1.611726080E1,9.202677608E-1,3.234528899E-1,5.306887627E-1
1.612726080E1,9.202677608E-1,3.234528899E-1,5.306887627E-1
1.613726080E1,9.905172586E-1,6.239983439E-1,3.291034102E-1
1.614726080E1,9.905172586E-1,6.239983439E-1,3.291034102E-1
1.615726080E1,9.905172586E-1,6.239983439E-1,3.291034102E-1
1.616726080E1,4.309650958E-1,7.797688842E-1,6.601921320E-1
1.617726080E1,5.922334194E-1,6.368265152E-1,6.870701313E-1
1.618726080E1,8.133664727E-1,4.211912751E-1,6.705768108E-1
1.619726080E1,1.014951825E0,1.988364905E-1,5.777253509E-1
1.620726080E1,1.140179157E0,5.192350596E-3,4.268417656E-1
1.621726080E1,1.140179157E0,5.192350596E-3,4.268417656E-1
1.622726080E1,1.140179157E0,5.192350596E-3,4.268417656E-1
1.623726080E1,6.026180983E-1,-3.191768527E-1,1.824958473E-1
1.624726080E1,4.120282829E-1,-3.430005610E-1,2.197586000E-1
1.625726080E1,3.313941360E-1,-3.894262910E-1,2.270889878E-1
1.626726080E1,3.662134409E-1,-4.511236250E-1,1.556178033E-1
1.627726080E1,4.780016840E-1,-4.981602132E-1,2.611446939E-2
1.628726080E1,4.780016840E-1,-4.981602132E-1,2.611446939E-2
1.629726080E1,5.519163013E-1,-4.822777510E-1,-3.349066079E-1
1.630726080E1,3.894262910E-1,-3.741546869E-1,-3.495673835E-1
1.631726080E1,2.153298408E-1,-2.122755051E-1,-2.671006322E-1
1.632726080E1,1.139262840E-1,-6.688969582E-2,-1.003345400E-1
1.633726080E1,1.298087686E-1,1.291978955E-1,8.903354406E-2
1.634726080E1,2.385426909E-1,2.403752953E-1,2.393062711E-1
1.635726080E1,5.006036758E-1,3.081812859E-1,4.292852283E-1
1.636726080E1,5.232056975E-1,3.375027776E-1,4.751000702E-1
1.637726080E1,4.138608873E-1,4.132500291E-1,5.135845542E-1
1.638726080E1,2.025016695E-1,5.115992427E-1,5.752819180E-1
1.639726080E1,-4.795288667E-2,5.506945848E-1,6.418661475E-1
1.640726080E1,-2.562577724E-1,6.062833071E-1,6.632464528E-1
1.641726080E1,-3.430005610E-1,5.910117030E-1,6.119337678E-1
1.642726080E1,-1.377500147E-1,3.918697536E-1,3.095557392E-1
1.643726080E1,1.618791744E-2,2.916879356E-1,1.592829973E-1
1.644726080E1,5.711585656E-2,2.189950198E-1,1.055268943E-1
1.645726080E1,-1.078176349E-1,2.281579971E-1,1.941022873E-1
1.646726080E1,-4.725039005E-1,3.191768527E-1,3.962985277E-1
1.647726080E1,-9.514219165E-1,4.034761786E-1,6.174315810E-1
1.648726080E1,-1.408348799E0,4.492910504E-1,7.536544204E-1
1.649726080E1,-1.775478482E0,3.576613367E-1,5.716167092E-1
1.650726080E1,-1.644753456E0,2.880227566E-1,2.698495090E-1
1.651726080E1,-1.395520568E0,1.695149690E-1,-5.390881747E-2
1.652726080E1,-1.112079382E0,1.313359290E-2,-3.080285788E-1
1.653726080E1,-8.677334189E-1,-1.585194170E-1,-4.356993139E-1
1.654726080E1,-6.991347671E-1,-2.855792940E-1,-4.240928590E-1
1.655726080E1,-5.989528894E-1,-3.656025827E-1,-2.921460867E-1
1.656726080E1,-5.989528894E-1,-3.656025827E-1,-2.921460867E-1
1.657726080E1,-5.989528894E-1,-3.656025827E-1,-2.921460867E-1
1.658726080E1,-5.989528894E-1,-3.656025827E-1,-2.921460867E-1
1.659726080E1,-5.989528894E-1,-3.656025827E-1,-2.921460867E-1
1.660726080E1,-3.857611120E-1,-1.927278340E-1,-1.718057245E-1
1.661726080E1,-3.973675370E-1,-1.798996776E-1,-2.591593862E-1
1.662726080E1,-3.973675370E-1,-1.798996776E-1,-2.591593862E-1
1.663726080E1,-3.973675370E-1,-1.798996776E-1,-2.591593862E-1
1.664726080E1,-3.973675370E-1,-1.798996776E-1,-2.591593862E-1
1.665726080E1,-3.973675370E-1,-1.798996776E-1,-2.591593862E-1
1.666726080E1,-4.059196413E-1,-1.114828214E-1,-4.943423271E-1
1.667726080E1,-3.307832778E-1,-9.926552325E-2,-5.975784659E-1
1.668726080E1,-2.287688553E-1,-1.304196268E-1,-6.592758298E-1
1.669726080E1,-1.194240674E-1,-2.110537887E-1,-6.482802629E-1
1.670726080E1,-1.194240674E-1,-2.110537887E-1,-6.482802629E-1
1.671726080E1,-1.194240674E-1,-2.110537887E-1,-6.482802629E-1
1.672726080E1,2.751945853E-1,-4.517345130E-1,-6.348412037E-1
1.673726080E1,3.759872615E-1,-5.268708467E-1,-8.003855944E-1
1.674726080E1,4.847212136E-1,-6.093376279E-1,-9.891427755E-1
1.675726080E1,5.989528894E-1,-6.716458201E-1,-1.176678300E0
1.676726080E1,7.107411623E-1,-6.911935210E-1,-1.366657257E0
1.677726080E1,7.107411623E-1,-6.911935210E-1,-1.366657257E0
1.678726080E1,7.107411623E-1,-6.911935210E-1,-1.366657257E0
1.679726080E1,7.131846547E-1,-7.602212429E-1,-1.498604059E0
1.680726080E1,6.172788739E-1,-7.040216327E-1,-1.395367861E0
1.681726080E1,5.543597937E-1,-6.520981789E-1,-1.326951027E0
1.682726080E1,5.574141145E-1,-5.958985686E-1,-1.320842385E0
1.683726080E1,6.258309484E-1,-5.122101307E-1,-1.361770272E0
1.684726080E1,8.677334189E-1,-3.594939113E-1,-1.425300241E0
1.685726080E1,8.677334189E-1,-3.594939113E-1,-1.425300241E0
1.686726080E1,1.050992846E0,-2.580903769E-1,-1.282357931E0
1.687726080E1,1.055268884E0,-2.758054435E-1,-1.092378974E0
1.688726080E1,9.990693331E-1,-3.014617562E-1,-8.797979951E-1
1.689726080E1,9.147700071E-1,-3.246746361E-1,-6.989820004E-1
1.690726080E1,8.261946440E-1,-3.552178741E-1,-5.896372199E-1
1.691726080E1,6.154462695E-1,-3.900371492E-1,-7.173079848E-1
1.692726080E1,4.847212136E-1,-3.765981495E-1,-8.431460857E-1
1.693726080E1,3.546070158E-1,-3.203985691E-1,-9.213368297E-1
1.694726080E1,2.293797284E-1,-2.318231910E-1,-9.286671877E-1
1.695726080E1,1.340848207E-1,-1.853974611E-1,-8.895718455E-1
1.696726080E1,1.090393662E-1,-2.263254076E-1,-8.602503538E-1
1.697726080E1,1.945604384E-1,-3.552178741E-1,-9.396627545E-1
1.698726080E1,4.584540129E-1,-5.262600183E-1,-1.322064042E0
1.699726080E1,4.108065665E-1,-4.193586707E-1,-1.399033070E0
1.700726080E1,2.318231910E-1,-1.463021189E-1,-1.323285818E0
1.701726080E1,1.435532235E-2,1.896735132E-1,-1.147356749E0
1.702726080E1,-1.328630894E-1,4.334085584E-1,-9.757037759E-1
1.703726080E1,-1.463021189E-1,5.323686600E-1,-8.804088831E-1
1.704726080E1,-3.573558852E-2,5.012145638E-1,-8.828523159E-1
1.705726080E1,3.387245238E-1,3.686569035E-1,-1.059392214E0
1.706726080E1,3.387245238E-1,3.686569035E-1,-1.059392214E0
1.707726080E1,3.387245238E-1,3.686569035E-1,-1.059392214E0
1.708726080E1,3.387245238E-1,3.686569035E-1,-1.059392214E0
1.709726080E1,6.490437984E-1,6.569850445E-1,-1.761275887E0
1.710726080E1,6.435460448E-1,7.455604672E-1,-1.835801363E0
1.711726080E1,6.453786492E-1,7.846558094E-1,-1.843742609E0
1.712726080E1,6.453786492E-1,7.846558094E-1,-1.843742609E0
1.713726080E1,6.453786492E-1,7.846558094E-1,-1.843742609E0
1.714726080E1,6.453786492E-1,7.846558094E-1,-1.843742609E0
1.715726080E1,6.453786492E-1,7.846558094E-1,-1.843742609E0
1.716726080E1,6.050615907E-1,6.380482912E-1,-2.113744736E0
1.717726080E1,6.343830824E-1,4.694495797E-1,-2.168111801E0
1.718726080E1,6.704241037E-1,3.002400398E-1,-2.147953272E0
1.719726080E1,6.704241037E-1,3.002400398E-1,-2.147953272E0
1.720726080E1,6.704241037E-1,3.002400398E-1,-2.147953272E0
1.721726080E1,6.704241037E-1,3.002400398E-1,-2.147953272E0
1.722726080E1,3.668242991E-1,1.127045527E-1,-1.924376726E0
1.723726080E1,2.922987938E-1,1.377500147E-1,-1.997069716E0
1.724726080E1,2.440404743E-1,1.646280587E-1,-2.000734806E0
1.725726080E1,2.312123179E-1,1.982256174E-1,-1.892611861E0
1.726726080E1,2.312123179E-1,1.982256174E-1,-1.892611861E0
1.727726080E1,2.312123179E-1,1.982256174E-1,-1.892611861E0
1.728726080E1,6.417134404E-1,3.998109996E-1,-1.261588454E0
1.729726080E1,7.858775258E-1,4.413498044E-1,-1.275638342E0
1.730726080E1,7.858775258E-1,4.413498044E-1,-1.275638342E0
1.731726080E1,9.489784241E-1,3.051269650E-1,-1.335503101E0
1.732726080E1,9.508110285E-1,1.744018942E-1,-1.301905513E0
1.733726080E1,9.508110285E-1,1.744018942E-1,-1.301905513E0
1.734726080E1,6.655371785E-1,7.024944760E-3,-8.895718455E-1
1.735726080E1,5.274817348E-1,1.469129771E-1,-7.619010806E-1
1.736726080E1,4.224129915E-1,3.411679864E-1,-6.947059631E-1
1.737726080E1,3.790415823E-1,4.602866173E-1,-6.782126427E-1
1.738726080E1,4.108065665E-1,4.663952589E-1,-7.069232464E-1
1.739726080E1,4.822777510E-1,4.010327160E-1,-7.240274549E-1
1.740726080E1,6.087267399E-1,1.151480079E-1,-4.466948807E-1
1.741726080E1,6.307178736E-1,-4.673115537E-2,-2.609919906E-1
1.742726080E1,6.276635528E-1,-1.408043355E-1,-1.944077164E-1
1.743726080E1,6.258309484E-1,-1.951712966E-1,-3.049742281E-1
1.744726080E1,6.612611413E-1,-2.287688553E-1,-5.804742575E-1
1.745726080E1,7.351757884E-1,-2.562577724E-1,-9.573778510E-1
1.746726080E1,8.396336436E-1,-2.238819450E-1,-1.307403326E0
1.747726080E1,1.043051600E0,2.159406990E-1,-1.422856808E0
1.748726080E1,1.129794359E0,4.315759540E-1,-1.191339016E0
1.749726080E1,1.242804408E0,5.042688847E-1,-9.170607328E-1
1.750726080E1,1.374751210E0,3.723220825E-1,-7.667880058E-1
1.751726080E1,1.482263446E0,1.261435747E-1,-8.156571984E-1
1.752726080E1,1.503643632E0,-1.786779463E-1,-1.027627230E0
1.753726080E1,1.407127023E0,-3.112356067E-1,-1.302516460E0
1.754726080E1,8.408553600E-1,-4.795288667E-2,-1.439350128E0
1.755726080E1,4.492910504E-1,1.108719558E-1,-1.092989802E0
1.756726080E1,8.032871783E-2,9.071341902E-2,-6.495019794E-1
1.757726080E1,8.032871783E-2,9.071341902E-2,-6.495019794E-1
1.758726080E1,-2.348775119E-1,-5.781835318E-1,-3.049742281E-1
1.759726080E1,-2.000582218E-1,-7.901535630E-1,-3.819431961E-1
1.760726080E1,-1.133154184E-1,-7.699950337E-1,-4.754055142E-1
1.761726080E1,-1.133154184E-1,-7.699950337E-1,-4.754055142E-1
1.762726080E1,-1.133154184E-1,-7.699950337E-1,-4.754055142E-1
1.763726080E1,-1.133154184E-1,-7.699950337E-1,-4.754055142E-1
1.764726080E1,6.875283122E-1,-4.083631039E-1,-4.607447684E-1
1.765726080E1,6.875283122E-1,-4.083631039E-1,-4.607447684E-1
1.766726080E1,4.236347377E-1,-6.734784245E-1,-2.646571696E-1
1.767726080E1,2.134972364E-1,-8.885028362E-1,-1.156061590E-1
1.768726080E1,2.134972364E-1,-8.885028362E-1,-1.156061590E-1
1.769726080E1,2.134972364E-1,-8.885028362E-1,-1.156061590E-1
1.770726080E1,-3.735437989E-1,-1.068097115E0,1.794415265E-1
1.771726080E1,-3.949240744E-1,-1.008843184E0,1.091920808E-1
1.772726080E1,-3.607156575E-1,-9.092722535E-1,-8.093958721E-3
1.773726080E1,-2.293797284E-1,-8.359684348E-1,-1.375972927E-1
1.774726080E1,1.252272818E-2,-8.274163604E-1,-2.475529462E-1
1.775726080E1,1.252272818E-2,-8.274163604E-1,-2.475529462E-1
1.776726080E1,1.325881958E0,-1.046105981E0,-2.652680278E-1
1.777726080E1,1.837786674E0,-9.025527239E-1,-1.137735620E-1
1.778726080E1,2.217133760E0,-7.553343177E-1,1.269071549E-1
1.779726080E1,2.401614904E0,-6.447677612E-1,4.384481907E-1
1.780726080E1,2.374736786E0,-5.366446972E-1,7.090612650E-1
1.781726080E1,2.172540665E0,-4.303542376E-1,8.458949924E-1
1.782726080E1,2.172540665E0,-4.303542376E-1,8.458949924E-1
1.783726080E1,2.172540665E0,-4.303542376E-1,8.458949924E-1
1.784726080E1,8.329141140E-1,6.566796452E-2,3.425424397E-1
1.785726080E1,5.018253922E-1,3.552178741E-1,2.069304436E-1
1.786726080E1,1.572976857E-1,5.940660238E-1,1.660024971E-1
1.787726080E1,-1.249218509E-1,7.626646757E-1,2.081521749E-1
1.788726080E1,-2.532034516E-1,7.870992422E-1,2.551887631E-1
1.789726080E1,-1.041524485E-1,6.954695582E-1,1.934914142E-1
1.790726080E1,1.194240674E-1,7.797688842E-1,1.177441850E-1
1.791726080E1,3.765981495E-1,8.762855530E-1,8.109229803E-2
1.792726080E1,5.781835318E-1,1.088866472E0,1.153007299E-1
1.793726080E1,6.520981789E-1,1.357036114E0,2.173151523E-1
1.794726080E1,5.708531141E-1,1.572671413E0,3.547597229E-1
1.795726080E1,3.723220825E-1,1.660635948E0,4.842630625E-1
1.796726080E1,-1.383608729E-1,1.303890824E0,6.278162599E-1
1.797726080E1,-3.735437989E-1,9.275981784E-1,6.088794470E-1
1.798726080E1,-5.574141145E-1,5.097666383E-1,5.190823674E-1
1.799726080E1,-6.911935210E-1,2.238819450E-1,4.329504073E-1
1.800726080E1,-8.329141140E-1,7.849612087E-2,4.500546157E-1
1.801726080E1,-1.008232355E0,2.107483521E-2,6.217076182E-1
1.802726080E1,-1.247080445E0,-1.252272818E-2,8.703296185E-1
1.803726080E1,-1.942855477E0,-1.353065521E-1,1.073136687E0
1.804726080E1,-2.313650370E0,-1.579085439E-1,9.613484740E-1
1.805726080E1,-2.589150429E0,-2.513708472E-1,7.829759121E-1
1.806726080E1,-2.719875336E0,-4.163043499E-1,5.765036345E-1
1.807726080E1,-2.603200197E0,-4.786125422E-1,3.761399984E-1
1.808726080E1,-2.254396439E0,-5.134318471E-1,1.824958473E-1
1.809726080E1,-1.707061648E0,-2.922987938E-1,3.512472380E-3
1.810726080E1,-1.707061648E0,-2.922987938E-1,3.512472380E-3
1.811726080E1,-1.707061648E0,-2.922987938E-1,3.512472380E-3
1.812726080E1,-1.707061648E0,-2.922987938E-1,3.512472380E-3
1.813726080E1,-1.707061648E0,-2.922987938E-1,3.512472380E-3
1.814726080E1,-5.616901517E-1,9.043853283E-1,-4.046979174E-2
1.815726080E1,-6.924152374E-1,4.920515716E-1,-1.889099330E-1
1.816726080E1,-7.816014886E-1,-1.157588735E-1,-4.253146052E-1
1.817726080E1,-7.816014886E-1,-1.157588735E-1,-4.253146052E-1
1.818726080E1,-7.816014886E-1,-1.157588735E-1,-4.253146052E-1
1.819726080E1,-7.816014886E-1,-1.157588735E-1,-4.253146052E-1
1.820726080E1,-7.816014886E-1,-1.157588735E-1,-4.253146052E-1
1.821726080E1,-5.955931544E-2,-1.207985044E0,-9.738711715E-1
1.822726080E1,1.316413581E-1,-8.555161357E-1,-1.020907760E0
1.823726080E1,2.214384824E-1,-4.816668928E-1,-9.702059627E-1
1.824726080E1,2.214384824E-1,-4.816668928E-1,-9.702059627E-1
1.825726080E1,2.214384824E-1,-4.816668928E-1,-9.702059627E-1
1.826726080E1,3.979783952E-1,-3.967566788E-1,-8.376483321E-1
1.827726080E1,6.398808360E-1,-7.327322960E-1,-1.009912252E0
1.828726080E1,8.756746650E-1,-1.012508392E0,-1.216384530E0
1.829726080E1,1.094364285E0,-1.116355419E0,-1.366046309E0
1.830726080E1,1.259908557E0,-1.021060467E0,-1.388037443E0
1.831726080E1,1.259908557E0,-1.021060467E0,-1.388037443E0
1.832726080E1,1.259908557E0,-1.021060467E0,-1.388037443E0
1.833726080E1,1.259908557E0,-1.021060467E0,-1.388037443E0
1.834726080E1,1.396742344E0,1.157894135E0,-1.235932112E0
1.835726080E1,1.471878648E0,1.078481793E0,-1.434463263E0
1.836726080E1,1.548236728E0,8.353576064E-1,-1.581681609E0
1.837726080E1,1.590997338E0,5.311469436E-1,-1.613446593E0
1.838726080E1,1.590997338E0,5.311469436E-1,-1.613446593E0
1.839726080E1,1.722944140E0,-5.345066637E-2,-1.447291374E0
1.840726080E1,1.810297728E0,-1.130099874E-2,-1.449123979E0
1.841726080E1,1.909868717E0,9.498947114E-2,-1.387426615E0
1.842726080E1,1.973398685E0,2.605338395E-1,-1.264642835E0
1.843726080E1,1.983172536E0,4.676169753E-1,-1.076496482E0
1.844726080E1,1.955072761E0,6.130027771E-1,-8.376483321E-1
1.845726080E1,1.934303284E0,2.953531146E-1,-4.063777924E-1
1.846726080E1,1.987448573E0,3.756818548E-2,-3.013090491E-1
1.847726080E1,2.077856541E0,-3.817904741E-2,-1.675296724E-1
1.848726080E1,2.219577074E0,-6.414080039E-3,9.819651395E-2
1.849726080E1,2.380845547E0,5.222893879E-2,4.250091612E-1
1.850726080E1,2.512792349E0,1.340848207E-1,7.163916826E-1
1.851726080E1,2.518290043E0,2.037234008E-1,9.686788321E-1
1.852726080E1,2.024711370E0,2.141081095E-1,1.289382815E0
1.853726080E1,1.587332129E0,1.524107605E-1,1.423773050E0
1.854726080E1,1.131626964E0,1.090393662E-1,1.540448308E0
1.855726080E1,7.449495792E-1,7.422006875E-2,1.609475970E0
1.856726080E1,4.712821841E-1,5.283980444E-2,1.580765367E0
1.857726080E1,2.971857190E-1,5.650499091E-2,1.432936072E0
1.858726080E1,1.798996776E-1,1.224783882E-1,1.235626698E0
1.859726080E1,7.116574794E-2,4.792234302E-1,9.558506608E-1
1.860726080E1,7.910698652E-2,7.583886385E-1,9.008728266E-1
1.861726080E1,1.017089859E-1,1.058323264E0,8.507819176E-1
1.862726080E1,1.102610901E-1,1.334434152E0,8.611665964E-1
1.863726080E1,9.315688163E-2,1.407737851E0,9.173662066E-1
1.864726080E1,3.145953640E-2,1.324660301E0,9.112575054E-1
1.865726080E1,-1.438586563E-1,1.213482857E0,8.171843290E-1
1.866726080E1,-9.703587294E-1,1.245858669E0,5.251910090E-1
1.867726080E1,-1.484706879E0,1.030834317E0,4.842630625E-1
1.868726080E1,-1.876882076E0,3.930914998E-1,4.995346665E-1
1.869726080E1,-1.876882076E0,3.930914998E-1,4.995346665E-1
1.870726080E1,-2.121227980E0,-1.040608168E0,4.732674956E-1
1.870726080E1,-2.121227980E0,-1.040608168E0,4.732674956E-1
1.871726080E1,-1.946520567E0,-1.258686900E0,4.017963111E-1
1.872726080E1,-1.946520567E0,-1.258686900E0,4.017963111E-1
1.873726080E1,-1.946520567E0,-1.258686900E0,4.017963111E-1
1.874726080E1,-1.946520567E0,-1.258686900E0,4.017963111E-1
1.875726080E1,-1.946520567E0,-1.258686900E0,4.017963111E-1
1.876726080E1,-1.176220179E0,1.328325510E0,3.590357602E-1
1.877726080E1,-1.382081509E0,1.060766697E0,1.757763475E-1
1.878726080E1,-1.464548349E0,4.437932670E-1,-2.580903657E-2
1.879726080E1,-1.456607103E0,-9.162971983E-4,-2.029598206E-1
1.880726080E1,-1.456607103E0,-9.162971983E-4,-2.029598206E-1
1.881726080E1,-1.456607103E0,-9.162971983E-4,-2.029598206E-1
1.882726080E1,-1.190880895E0,-7.544180006E-2,3.352120519E-1
1.883726080E1,-1.200654745E0,1.878409237E-1,3.278816640E-1
1.884726080E1,-1.226921916E0,3.637699783E-1,2.698495090E-1
1.885726080E1,-1.245247841E0,4.725039005E-1,2.191477418E-1
1.886726080E1,-1.231197953E0,5.293143392E-1,1.849393100E-1
1.887726080E1,-1.231197953E0,5.293143392E-1,1.849393100E-1
1.888726080E1,-1.231197953E0,5.293143392E-1,1.849393100E-1
1.889726080E1,-6.472112536E-1,5.073232055E-1,-1.204930767E-1
1.890726080E1,-4.767799675E-1,4.114174247E-1,-1.632536054E-1
1.891726080E1,-2.916879356E-1,5.384773016E-1,-8.323032409E-2
1.892726080E1,-5.039634556E-2,8.017600179E-1,2.222020626E-1
1.893726080E1,1.133154184E-1,1.025947452E0,6.278162599E-1
1.894726080E1,-4.639517963E-1,7.483093441E-2,7.554870248E-1
1.895726080E1,-9.214895368E-1,-6.148353815E-1,3.865246773E-1
1.896726080E1,-1.140789986E0,-9.502001405E-1,-7.589995116E-2
1.897726080E1,-1.038775563E0,-9.483675957E-1,-4.741837978E-1
1.898726080E1,-6.484329700E-1,-7.968730927E-1,-6.617192626E-1
1.899726080E1,-9.193515033E-2,-6.001746655E-1,-6.366738081E-1
1.900726080E1,1.081536055E0,2.287688553E-1,-3.239110410E-1
1.901726080E1,1.081536055E0,2.287688553E-1,-3.239110410E-1
1.902726080E1,1.673464060E0,1.028390884E0,-5.039634649E-3
1.903726080E1,1.706450820E0,1.088255644E0,7.803797722E-2
1.904726080E1,1.598938584E0,9.587522745E-1,1.098029464E-1
1.905726080E1,1.382081509E0,7.382301092E-1,1.543960720E-1
1.906726080E1,1.118188024E0,5.867356062E-1,2.863428593E-1
1.907726080E1,5.006036758E-1,3.979783952E-1,8.428406715E-1
1.908726080E1,5.345066637E-2,2.495382577E-1,1.085353971E0
1.909726080E1,-5.757400393E-1,-1.365282834E-1,1.244178891E0
1.910726080E1,-1.308777809E0,-7.315105796E-1,1.352301955E0
1.911726080E1,-1.969122648E0,-1.014340997E0,1.428049088E0
1.912726080E1,-2.460868835E0,-9.428697824E-1,1.580154419E0
1.913726080E1,-2.760192394E0,-8.622356653E-1,1.796400547E0
1.914726080E1,-2.955058336E0,-2.142608166E0,1.724929452E0
1.915726080E1,-2.790124893E0,-2.640463114E0,1.298545837E0
1.916726080E1,-2.361297846E0,-2.317315578E0,8.697187304E-1
1.917726080E1,-1.734550595E0,-1.682016134E0,7.964149714E-1
1.918726080E1,-1.072983980E0,-1.127961874E0,1.143997073E0
1.919726080E1,-5.329795480E-1,-5.067123175E-1,1.552665591E0
1.920726080E1,-1.652389169E-1,1.261435747E-1,1.772576928E0
1.921726080E1,-1.652389169E-1,1.261435747E-1,1.772576928E0
1.922726080E1,-1.652389169E-1,1.261435747E-1,1.772576928E0
1.923726080E1,-1.652389169E-1,1.261435747E-1,1.772576928E0
1.924726080E1,-1.652389169E-1,1.261435747E-1,1.772576928E0
1.925726080E1,-1.652389169E-1,1.261435747E-1,1.772576928E0
1.926726080E1,-9.471458197E-1,-2.444375515E0,-2.530507445E-1
1.927726080E1,-8.634573817E-1,-2.019213438E0,-7.313578725E-1
1.928726080E1,-8.634573817E-1,-2.019213438E0,-7.313578725E-1
1.929726080E1,-8.634573817E-1,-2.019213438E0,-7.313578725E-1
1.930726080E1,-8.634573817E-1,-2.019213438E0,-7.313578725E-1
1.931726080E1,-8.634573817E-1,-2.019213438E0,-7.313578725E-1
1.932726080E1,-3.634645417E-2,3.448331654E-1,-5.780308247E-1
1.933726080E1,-1.927278340E-1,4.083631039E-1,-5.896372199E-1
1.934726080E1,-4.407389462E-1,4.367683083E-2,-5.352702737E-1
1.935726080E1,-4.407389462E-1,4.367683083E-2,-5.352702737E-1
1.936726080E1,-4.407389462E-1,4.367683083E-2,-5.352702737E-1
1.937726080E1,-4.407389462E-1,4.367683083E-2,-5.352702737E-1
1.938726080E1,-4.407389462E-1,4.367683083E-2,-5.352702737E-1
1.939726080E1,-1.922086000E0,-1.081536055E0,2.753472924E-1
1.940726080E1,-1.999055028E0,-9.349285364E-1,4.329504073E-1
1.941726080E1,-1.989892006E0,-7.932079434E-1,3.498727977E-1
1.942726080E1,-1.989892006E0,-7.932079434E-1,3.498727977E-1
1.943726080E1,-1.989892006E0,-7.932079434E-1,3.498727977E-1
1.944726080E1,-1.164002895E0,-5.311469436E-1,-4.711294472E-1
1.945726080E1,-9.049961567E-1,-5.500837564E-1,-5.316050649E-1
1.946726080E1,-7.400626540E-1,-3.875937164E-1,-5.145008564E-1
1.947726080E1,-6.099484563E-1,-9.926552325E-2,-4.320341051E-1
1.948726080E1,-4.242455959E-1,2.532034516E-1,-3.061959743E-1
1.949726080E1,-4.242455959E-1,2.532034516E-1,-3.061959743E-1
1.950726080E1,4.059196413E-1,7.107411623E-1,1.360701323E-1
1.951726080E1,6.178897023E-1,3.503309488E-1,2.612974048E-1
1.952726080E1,7.015781999E-1,-1.774562150E-1,2.539670467E-1
1.953726080E1,7.015781999E-1,-1.774562150E-1,2.539670467E-1
1.954726080E1,2.098320574E-1,-1.364977360E0,-9.239330143E-2
1.955726080E1,-3.717112243E-1,-2.146884203E0,-2.958112657E-1
1.956726080E1,-1.235473990E0,-2.572657108E0,-6.983711720E-1
1.957726080E1,-1.219591498E0,-2.234237909E0,-7.301361561E-1
1.958726080E1,-9.453132749E-1,-1.735161424E0,-5.248855352E-1
1.959726080E1,-5.054906011E-1,-1.095585942E0,-2.585485280E-1
1.960726080E1,-2.748891478E-3,-3.442223072E-1,-9.422589093E-2
1.961726080E1,5.629118681E-1,4.749473631E-1,-8.017600328E-2
1.962726080E1,1.220813274E0,1.058323264E0,-1.473711282E-1
1.963726080E1,2.642906427E0,1.503643632E0,-8.445205539E-2
1.964726080E1,3.099833250E0,1.838397503E0,4.871646687E-2
1.965726080E1,3.236666918E0,2.269668102E0,1.214093715E-1
1.966726080E1,3.032027245E0,2.752862215E0,4.993819445E-2
1.967726080E1,2.495077133E0,3.186576128E0,-9.972367436E-2
1.968726080E1,1.739437461E0,3.458410978E0,-3.165806830E-1
1.969726080E1,9.428697824E-1,3.630064011E0,-6.342303753E-1
1.970726080E1,-3.992001414E-1,2.865261316E0,-1.413693786E0
1.971726080E1,-3.992001414E-1,2.865261316E0,-1.413693786E0
1.972726080E1,-3.992001414E-1,2.865261316E0,-1.413693786E0
1.973726080E1,-3.992001414E-1,2.865261316E0,-1.413693786E0
1.974726080E1,-3.992001414E-1,2.865261316E0,-1.413693786E0
1.975726080E1,-1.513417482E0,-6.459894776E-1,-1.366046309E0
1.976726080E1,-1.804189086E0,-1.071151376E0,-8.700241446E-1
1.977726080E1,-1.804189086E0,-1.071151376E0,-8.700241446E-1
1.978726080E1,-1.804189086E0,-1.071151376E0,-8.700241446E-1
1.979726080E1,-1.804189086E0,-1.071151376E0,-8.700241446E-1
1.980726080E1,4.431824088E-1,5.170970559E-1,-5.535961986E-1
1.981726080E1,9.660826325E-1,9.092722535E-1,-3.923279047E-1
1.982726080E1,1.336877584E0,1.121242285E0,-2.780961990E-1
1.983726080E1,1.516471863E0,1.118188024E0,-2.787070572E-1
1.984726080E1,1.516471863E0,1.118188024E0,-2.787070572E-1
1.985726080E1,1.516471863E0,1.118188024E0,-2.787070572E-1
1.986726080E1,5.543597937E-1,-8.695660233E-1,-4.497492015E-1
1.987726080E1,9.437860548E-2,-1.316108227E0,-6.207913160E-1
1.988726080E1,-3.246746361E-1,-1.587942958E0,-7.307469845E-1
1.989726080E1,-6.508764029E-1,-1.656359792E0,-7.490729094E-1
1.990726080E1,-8.390227556E-1,-1.670409799E0,-7.173079848E-1
1.991726080E1,-8.390227556E-1,-1.670409799E0,-7.173079848E-1
1.992726080E1,-8.390227556E-1,-1.670409799E0,-7.173079848E-1
1.992726080E1,-5.506945848E-1,-2.226296663E0,-7.582359314E-1
1.994726080E1,-1.090393662E-1,-1.824347615E0,-1.105817914E0
1.995726080E1,1.957821548E-1,-1.397353172E0,-1.259755850E0
1.996726080E1,5.305360556E-1,-7.950404882E-1,-1.457676053E0
1.997726080E1,9.111047983E-1,-1.090393662E-1,-1.603672743E0
1.998726080E1,9.111047983E-1,-1.090393662E-1,-1.603672743E0
1.999726080E1,1.807854295E0,4.822777510E-1,-1.306181669E0
2.000726080E1,1.991113782E0,1.316413581E-1,-1.166293621E0
2.001726080E1,2.072358847E0,-3.032943606E-1,-1.069776893E0
