"Time (s)","Linear Acceleration x (m/s^2)","Linear Acceleration y (m/s^2)","Linear Acceleration z (m/s^2)"
1.906767500E-2,0.000000000E0,0.000000000E0,0.000000000E0
2.906767500E-2,-4.843015671E-1,1.242584288E-1,-2.584099770E-2
3.906767500E-2,-1.102488995E0,1.603319496E-1,9.441196918E-1
4.906767500E-2,-1.402588367E0,2.015599757E-1,2.828324318E0
5.906767500E-2,-1.690235138E0,6.542149782E-1,3.878493309E0
6.906767500E-2,-2.068005085E0,1.258255839E0,4.157227039E0
7.906767500E-2,-9.192039967E-1,1.385515034E-1,4.632818699E0
8.906767500E-2,2.802999020E-1,-5.757522583E-1,4.049208641E0
9.906767500E-2,1.208815098E0,-4.541774988E-1,3.115454674E0
1.090676750E-1,1.719076157E0,1.019445658E-1,2.129334450E0
1.190676750E-1,5.681922436E-1,7.401089072E-1,6.248855591E-1
1.290676750E-1,-1.390638590E0,1.021831155E0,-1.090066910E0
1.390676750E-1,-1.901900768E0,1.147935629E0,-2.103265762E0
1.490676750E-1,-1.108848214E0,1.254039168E0,-2.889549732E0
1.590676750E-1,-4.092376232E-1,1.559584856E0,-3.440434933E0
1.690676750E-1,7.944302559E-1,1.664271832E0,-3.483671188E0
1.790676750E-1,2.144802570E0,1.420919180E0,-3.030086517E0
1.890676750E-1,2.192472696E0,6.105117798E-1,-2.586079121E0
1.990676750E-1,-3.662204742E-1,3.987718225E-1,-2.880559444E0
2.090676750E-1,-2.122174978E0,1.204088926E0,-2.726442337E0
2.190676750E-1,-2.536890984E0,1.189334869E0,-1.854858398E0
2.290676750E-1,-2.120933771E0,8.814293742E-1,-1.277489662E0
2.390676750E-1,-1.635409594E0,6.671497226E-1,-1.248197556E0
2.490676750E-1,-5.966079235E-1,5.247755647E-1,-1.039628983E0
2.590676750E-1,1.594150543E0,6.565459967E-1,-3.355607986E-1
2.690676750E-1,2.901525974E0,6.767248511E-1,2.636914253E-1
2.790676750E-1,2.619318724E0,5.696614981E-1,6.412935257E-1
2.890676750E-1,1.703633785E0,7.572059631E-1,8.532409668E-1
2.990676750E-1,9.137351513E-1,1.001362801E0,9.457554817E-1
3.090676750E-1,4.861412048E-1,1.199477553E0,6.707501411E-1
3.190676750E-1,7.385685444E-1,1.625528932E0,6.830992699E-1
3.290676750E-1,1.358659744E0,2.045908451E0,1.326592922E0
3.390676750E-1,1.588079929E0,1.891271114E0,1.980510712E0
3.490676750E-1,1.147745609E0,1.737485290E0,1.809446335E0
3.590676750E-1,7.981169224E-1,1.228484035E0,2.880517483E0
3.690676750E-1,1.357533932E-1,1.242839813E0,3.699998379E0
3.790676750E-1,-6.511390209E-1,1.796163201E0,4.701467991E0
3.890676750E-1,-1.181503057E0,2.890453577E0,5.969043732E0
3.990676750E-1,-1.400643587E0,4.185026169E0,6.721614838E0
4.090676750E-1,-1.640376210E0,5.206948280E0,6.263167381E0
4.190676750E-1,-1.790202022E0,5.633022308E0,5.296507835E0
4.290676750E-1,-1.666918755E0,4.578531265E0,3.987173080E0
4.390676750E-1,-1.101555347E0,1.100604892E0,2.836811066E0
4.490676750E-1,-9.779757261E-1,-3.100376129E0,2.098297119E0
4.590676750E-1,-2.619307756E0,-5.105830193E0,2.015277863E0
4.690676750E-1,-3.544837952E0,-5.226154327E0,3.065704346E0
4.790676750E-1,-1.706958055E0,-4.113175392E0,5.233104706E0
4.890676750E-1,1.849154949E0,-2.534700632E0,7.210379601E0
4.990676750E-1,5.567973614E0,-1.859665513E0,8.100925446E0
5.090676750E-1,6.607482910E0,-2.312247276E0,7.199775696E0
5.190676750E-1,5.433244228E0,-2.913138390E0,6.069477081E0
5.290676750E-1,3.676289797E0,-3.201089859E0,4.714964867E0
5.390676750E-1,2.259082317E0,-2.831365824E0,2.588084221E0
5.490676750E-1,1.125317812E0,-2.504334688E0,1.971273422E-1
5.590676750E-1,-3.873907328E-1,-1.902380466E0,-1.923784256E0
5.690676750E-1,-1.371586800E0,-6.586615443E-1,-3.066245079E0
5.790676750E-1,-1.540214300E0,4.769575596E-1,-3.832043171E0
5.890676750E-1,-1.103258729E0,1.338622928E0,-4.253938675E0
5.990676750E-1,-4.083949327E-1,1.244457126E0,-4.463860512E0
6.090676750E-1,-4.917883873E-2,2.916952372E-1,-4.680663586E0
6.190676750E-1,-9.018063545E-2,-4.152448773E-1,-4.452274323E0
6.290676750E-1,3.129869699E-1,-7.949376106E-1,-3.753872395E0
6.390676750E-1,1.028702974E0,-8.684397936E-1,-2.832221985E0
6.490676750E-1,1.076400042E0,-7.038035393E-1,-1.440530777E0
6.590676750E-1,3.519207239E-1,-3.218280673E-1,2.864580154E-1
6.690676750E-1,3.264012933E-1,-1.155516133E-1,9.025373459E-1
6.790676750E-1,9.738376141E-1,1.094528139E-1,8.501911163E-1
6.890676750E-1,1.147233963E0,-5.638926849E-2,1.070855141E0
6.990676750E-1,1.041447878E0,-2.549433708E-1,1.461659431E0
7.090676750E-1,9.643086791E-1,-2.706907392E-1,1.460648537E0
7.190676750E-1,3.789925277E-1,-3.757480085E-1,8.075141907E-1
7.290676750E-1,-1.765234768E-1,-5.108709931E-1,-2.323970795E-1
7.390676750E-1,-6.957960129E-1,-6.587425470E-1,-1.453584671E0
7.490676750E-1,-1.287853241E0,-6.980098486E-1,-2.632531166E0
7.590676750E-1,-1.257345796E0,-2.475865185E-1,-2.908416271E0
7.690676750E-1,-4.784991741E-1,5.036309958E-1,-2.500082970E0
7.790676750E-1,3.124251366E-1,1.091756105E0,-2.087823868E0
7.890676750E-1,5.187982321E-1,1.282745361E0,-1.607970715E0
7.990676750E-1,2.520096004E-1,1.202390075E0,-1.217044830E0
8.090676750E-1,-1.513433754E-1,9.490301609E-1,-1.107383728E0
8.190676750E-1,-5.561805964E-1,4.516111612E-1,-1.141689301E0
8.290676750E-1,-8.616421819E-1,1.767218113E-2,-1.227023125E0
8.390676750E-1,-1.078109860E0,-2.991970778E-1,-9.261007309E-1
8.490676750E-1,-8.876341581E-1,-1.729154587E-2,3.615198135E-1
8.590676750E-1,-6.691454649E-1,6.516296864E-1,1.025144577E0
8.690676750E-1,-8.338041306E-1,1.106117606E0,1.281787872E0
8.790676750E-1,-1.279126406E0,1.329102635E0,1.229022026E0
8.890676750E-1,-1.807766080E0,1.301646948E0,1.136701584E0
8.990676750E-1,-2.218858242E0,1.225980043E0,1.276767731E0
9.090676750E-1,-2.194747686E0,1.045690179E0,1.280635834E0
9.190676750E-1,-1.505943060E0,8.687651157E-1,1.077849388E0
9.290676750E-1,-6.302737594E-1,5.990521908E-1,9.843120575E-1
9.390676750E-1,-9.617692232E-2,2.356507778E-1,1.109246254E0
9.490676750E-1,2.494769096E-1,-6.387352943E-3,1.216559410E0
9.590676750E-1,5.200803280E-1,1.118898392E-2,1.237297058E0
9.690676750E-1,7.242900133E-1,1.893433332E-1,1.067230225E0
9.790676750E-1,8.107721806E-1,2.438446283E-1,6.955871582E-1
9.890676750E-1,1.085337877E0,5.589973927E-2,4.756603241E-1
9.990676750E-1,1.720052958E0,-2.204796076E-1,2.739820480E-1
1.009067675E0,2.270347118E0,-4.466208220E-1,3.284368515E-1
1.019067675E0,2.158155680E0,-6.490904689E-1,8.551902771E-1
1.029067675E0,1.454939961E0,-9.599391222E-1,1.482729912E0
1.039067675E0,8.803420067E-1,-1.258838654E0,1.772889137E0
1.049067675E0,5.595989227E-1,-1.384972095E0,1.826920509E0
1.059067675E0,2.210216522E-1,-1.428992987E0,2.102195740E0
1.069067675E0,-2.571041584E-1,-1.572746992E0,2.900444984E0
1.079067675E0,-1.684434414E-1,-1.896040678E0,3.523409843E0
1.089067675E0,3.934639692E-1,-2.093513966E0,3.397526741E0
1.099067675E0,8.761861324E-1,-1.888285160E0,2.956567764E0
1.109067675E0,7.243010998E-1,-1.618989825E0,1.967538834E0
1.119067675E0,2.939046621E-1,-1.133854270E0,1.047269821E0
1.129067675E0,-2.133798599E-1,-4.010353088E-1,1.404685974E-1
1.139067675E0,-5.701462030E-1,2.967235446E-1,-7.544450760E-1
1.149067675E0,-7.403736115E-1,5.949449539E-1,-1.240020752E0
1.159067675E0,-1.655982733E-1,4.904025495E-1,-1.109106064E0
1.169067675E0,1.141953468E-1,-1.915698647E-1,-8.182582855E-1
1.179067675E0,3.157148361E-1,-1.031121373E0,-5.100793839E-1
1.189067675E0,7.546844482E-1,-1.580476880E0,-3.452100754E-1
1.199067675E0,1.142274380E0,-1.749504685E0,-5.507583618E-1
1.209067675E0,1.363730431E0,-1.383120418E0,-8.108930588E-1
1.219067675E0,1.362118721E0,-8.530831337E-1,-9.090976715E-1
1.229067675E0,1.169997931E0,-3.636077940E-1,-1.011336327E0
1.239067675E0,6.716854572E-1,4.775561392E-3,-1.126199722E0
1.249067675E0,1.871943474E-2,2.522503734E-1,-1.705788612E0
1.259067675E0,-3.456935883E-1,4.984868765E-1,-2.229116440E0
1.269067675E0,-2.709873915E-1,7.538450956E-1,-2.461813927E0
1.279067675E0,1.640334129E-1,7.334722877E-1,-2.610630035E0
1.289067675E0,4.988451004E-1,4.492462277E-1,-2.918772697E0
1.299067675E0,5.655668974E-1,1.970313191E-1,-3.214152336E0
1.309067675E0,4.766856432E-1,1.588329077E-1,-3.292264462E0
1.319067675E0,1.415420771E-1,2.300742865E-1,-3.080408096E0
1.329067675E0,-4.112218618E-1,4.114826918E-1,-2.412811279E0
1.339067675E0,-1.182285070E0,5.454156995E-1,-1.525702000E0
1.349067675E0,-1.434384823E0,7.558316588E-1,-9.029092789E-1
1.359067675E0,-1.207349181E0,9.888876081E-1,-5.681076050E-1
1.369067675E0,-8.380488157E-1,1.057018995E0,-4.525022507E-1
1.379067675E0,-4.494822025E-1,1.013382912E0,-5.556726456E-1
1.389067675E0,-2.923012972E-1,8.813825846E-1,-7.000579834E-1
1.399067675E0,-2.260807753E-1,7.563247681E-1,-7.897367477E-1
1.409067675E0,-1.542732716E-1,7.912496328E-1,-7.610311508E-1
1.419067675E0,-3.228646517E-1,9.903179407E-1,-2.365741730E-1
1.429067675E0,-6.103484631E-1,1.160112143E0,4.533739090E-1
1.439067675E0,-1.023119926E0,1.095634937E0,8.876228333E-1
1.449067675E0,-1.453901649E0,9.434861541E-1,1.140271187E0
1.459067675E0,-1.615643978E0,5.844804049E-1,1.359738350E0
1.469067675E0,-1.391559124E0,1.918093562E-1,1.681703568E0
1.479067675E0,-1.020913959E0,-2.767778039E-1,2.335846901E0
1.489067675E0,-5.890285373E-1,-7.413010597E-1,2.691532135E0
1.499067675E0,-2.464388609E-1,-9.148186445E-1,2.829396248E0
1.509067675E0,8.901977539E-2,-7.565945983E-1,2.896810532E0
1.519067675E0,4.498903751E-1,-4.352786541E-1,2.872820854E0
1.529067675E0,8.142254353E-1,-1.492890120E-1,2.482704163E0
1.539067675E0,8.997220993E-1,6.880927086E-2,1.545974731E0
1.549067675E0,2.590962648E-1,7.473349571E-3,2.226991653E-1
1.559067675E0,-9.034973979E-1,-2.545263767E-1,-8.822517395E-1
1.569067675E0,-1.743212104E0,-3.966069818E-1,-7.754707336E-1
1.579067675E0,-1.744014263E0,-5.494729877E-1,5.275592804E-1
1.589067675E0,-1.152150512E0,-8.244941235E-1,2.305082321E0
1.599067675E0,-5.075483918E-1,-1.216656566E0,3.412608147E0
1.609067675E0,-7.609748840E-2,-1.677907228E0,3.488430977E0
1.619067675E0,1.584807634E-1,-2.103436947E0,2.688513756E0
1.629067675E0,2.341001034E-1,-2.333399057E0,1.641206741E0
1.639067675E0,1.759624481E-2,-2.387125015E0,9.985713959E-1
1.649067675E0,-3.519022465E-1,-2.528901577E0,3.677177429E-1
1.659067675E0,-6.901868582E-1,-2.504459858E0,-3.538866043E-1
1.669067675E0,-9.307196140E-1,-2.163247824E0,-1.058417320E0
1.679067675E0,-1.033247948E0,-1.587894678E0,-1.578490257E0
1.689067675E0,-1.071614027E0,-1.035914302E0,-1.686842918E0
1.699067675E0,-7.928449512E-1,-6.695154309E-1,-1.318365097E0
1.709067675E0,-3.604521751E-1,-5.094310641E-1,-6.529340744E-1
1.719067675E0,4.181599617E-2,-5.801380277E-1,-1.279878616E-1
1.729067675E0,3.544574976E-1,-7.440934181E-1,-6.284141541E-2
1.739067675E0,5.379430056E-1,-8.056257367E-1,-2.020759583E-1
1.749067675E0,5.426288843E-1,-7.305220962E-1,-5.902833939E-1
1.759067675E0,5.146248341E-1,-4.409031570E-1,-1.025908470E0
1.769067675E0,4.522145987E-1,-5.113041401E-2,-1.577284813E0
1.779067675E0,3.668628931E-1,2.643940449E-1,-2.106204987E0
1.789067675E0,2.794094086E-1,5.015084147E-1,-2.384174824E0
1.799067675E0,2.527239323E-1,6.344445944E-1,-2.418972969E0
1.809067675E0,2.668111324E-1,6.030675769E-1,-2.287882805E0
1.819067675E0,3.687683344E-1,4.486780167E-1,-2.151980400E0
1.829067675E0,5.291411877E-1,3.081628084E-1,-2.089868546E0
1.839067675E0,6.422735453E-1,2.312884927E-1,-2.056501389E0
1.849067675E0,7.027671337E-1,1.382293701E-1,-2.062384605E0
1.859067675E0,5.953476429E-1,1.263206005E-1,-1.844472885E0
1.869067675E0,3.284256458E-1,1.933821440E-1,-1.442981720E0
1.879067675E0,9.161353111E-3,3.671489954E-1,-8.841075897E-1
1.889067675E0,-1.144666672E-1,6.390575171E-1,-2.167024612E-1
1.899067675E0,-1.440168619E-1,7.944118977E-1,2.805356979E-1
1.909067675E0,-1.861778498E-1,8.087991476E-1,4.735002518E-1
1.919067675E0,-1.334637403E-1,6.949501038E-1,2.820014954E-1
1.929067675E0,9.183323383E-2,5.696653128E-1,-2.140283585E-1
1.939067675E0,-3.552818298E-2,5.226256847E-1,-2.284126282E-1
1.949067675E0,-2.731958032E-1,5.855261087E-1,1.038141251E-1
1.959067675E0,-3.990716934E-1,5.901373625E-1,7.272462845E-1
1.969067675E0,-4.287573099E-1,6.297212839E-1,1.463770866E0
1.979067675E0,-5.489079952E-1,6.032267809E-1,1.947957039E0
1.989067675E0,-4.743925333E-1,5.568052530E-1,1.938255310E0
1.999067675E0,-3.311252594E-1,6.017740965E-1,1.632706642E0
2.009067675E0,-3.291338682E-1,5.990726948E-1,1.042724609E0
2.019067675E0,-4.165307283E-1,5.917518139E-1,6.005764008E-1
2.029067675E0,-4.087101221E-1,4.723978043E-1,4.732341766E-1
2.039067675E0,-1.561030149E-1,3.046779633E-1,6.341724396E-1
2.049067675E0,6.417698860E-1,2.421622276E-1,7.645654678E-1
2.059067675E0,1.537059784E0,3.233292103E-1,7.319164276E-1
2.069067675E0,2.052296400E0,4.195998907E-1,8.694887161E-1
2.079067675E0,1.780498147E0,1.296324730E-1,1.176279068E0
2.089067675E0,1.214858770E0,-3.052241802E-1,1.114132881E0
2.099067675E0,8.157844543E-1,-6.882584095E-1,6.515645981E-1
2.109067675E0,8.953318596E-1,-8.377381563E-1,6.643533707E-1
2.119067675E0,7.803319693E-1,-9.309523702E-1,1.208672523E0
2.129067675E0,9.225788116E-1,-9.975529909E-1,2.169491768E0
2.139067675E0,1.191370130E0,-1.051175356E0,2.621595383E0
2.149067675E0,1.372685075E0,-1.130469561E0,2.534959793E0
2.159067675E0,1.345448375E0,-1.244082212E0,2.205254555E0
2.169067675E0,9.930359125E-1,-1.357889295E0,1.724815369E0
2.179067675E0,1.180904269E0,-1.454019666E0,1.016252518E0
2.189067675E0,1.474581718E0,-1.319243193E0,3.696107864E-1
2.199067675E0,1.337532043E0,-1.175757289E0,1.359024048E-1
2.209067675E0,9.460551739E-1,-1.059408426E0,2.445974350E-1
2.219067675E0,2.959697247E-1,-1.014879465E0,7.590579987E-1
2.229067675E0,-3.964803219E-1,-1.074170828E0,1.090276718E0
2.239067675E0,-7.721598148E-1,-1.142641425E0,1.078499794E0
2.249067675E0,-8.186819553E-1,-1.207688689E0,8.927669525E-1
2.259067675E0,-6.186851263E-1,-1.217695236E0,5.243110657E-1
2.269067675E0,-4.661700130E-1,-1.218961358E0,1.508522034E-2
2.279067675E0,-2.263432741E-1,-1.207386851E0,-5.660228729E-1
2.289067675E0,1.674358845E-1,-9.180498123E-1,-1.034663200E0
2.299067675E0,4.910116196E-1,-5.136429071E-1,-1.258817673E0
2.309067675E0,5.525557995E-1,-2.046852708E-1,-1.398139954E0
2.319067675E0,2.727301121E-1,-2.248805761E-2,-1.493714333E0
2.329067675E0,-2.369552851E-1,1.276813149E-1,-1.675305367E0
2.339067675E0,-7.565870285E-1,4.074578881E-1,-1.978528500E0
2.349067675E0,-7.394742966E-1,7.128872275E-1,-2.260680676E0
2.359067675E0,-1.164308786E0,9.629217982E-1,-2.652661324E0
2.369067675E0,-7.275483608E-1,1.298851371E0,-2.747677803E0
2.379067675E0,-1.970872879E-1,1.482602954E0,-2.594571114E0
2.389067675E0,-2.312572002E-1,1.314741015E0,-2.210945129E0
2.399067675E0,-5.495042801E-1,1.036526442E0,-1.683846951E0
2.409067675E0,-7.975925207E-1,8.118057847E-1,-1.148398399E0
2.419067675E0,-8.813586235E-1,8.128094077E-1,-6.866197586E-1
2.429067675E0,-8.378057480E-1,9.787953496E-1,-4.371767044E-1
2.439067675E0,-7.983160019E-1,1.168887258E0,-4.927825928E-1
2.449067675E0,-8.703775406E-1,1.211098671E0,-4.604024887E-1
2.459067675E0,-1.140969753E0,1.073905230E0,-2.525300980E-1
2.469067675E0,-1.295430303E0,8.395074606E-1,1.089763641E-2
2.479067675E0,-1.137427330E0,5.934418440E-1,-1.549720764E-2
2.489067675E0,-8.165185452E-1,4.156978130E-1,-2.195329666E-1
2.499067675E0,-6.094986200E-1,3.647528887E-1,-6.409444809E-1
2.509067675E0,-5.975511074E-1,3.693188429E-1,-1.359256744E0
2.519067675E0,-8.725311756E-1,4.222952127E-1,-2.097471714E0
2.529067675E0,-1.290041447E0,6.499394178E-1,-2.692583084E0
2.539067675E0,-1.618671179E0,9.445933104E-1,-2.595068455E0
2.549067675E0,-1.638709545E0,1.130131960E0,-1.773463726E0
2.559067675E0,-1.564883709E0,7.836569548E-1,-1.096714020E0
2.569067675E0,-1.458782196E0,3.278573751E-1,-8.210840225E-1
2.579067675E0,-1.483844042E0,1.325980425E-1,-7.997360229E-1
2.589067675E0,-1.495263457E0,1.603559256E-1,-6.593856812E-1
2.599067675E0,-1.063463569E0,3.605300188E-1,-1.659107208E-1
2.609067675E0,5.637145042E-2,7.894222736E-1,6.014270782E-1
2.619067675E0,1.078578353E0,1.295788407E0,1.259900093E0
2.629067675E0,1.012962461E0,1.383731604E0,1.532116890E0
2.639067675E0,-2.982616425E-1,9.426338673E-1,1.591305733E0
2.649067675E0,-1.866318583E0,3.048968315E-1,1.374876022E0
2.659067675E0,-3.103091002E0,-5.119955540E-2,1.993297577E0
2.669067675E0,-3.651505947E0,-4.753782749E-1,3.615196228E0
2.679067675E0,-2.519212008E0,-6.729755402E-1,4.863369942E0
2.689067675E0,-9.551697969E-1,-9.959647655E-1,5.176457405E0
2.699067675E0,7.402884960E-2,-1.693837881E0,4.860361099E0
2.709067675E0,3.339555264E-1,-2.132305861E0,4.114437103E0
2.719067675E0,5.986987352E-1,-2.040385008E0,3.508155823E0
2.729067675E0,6.604530811E-1,-1.709386468E0,2.876190186E0
2.739067675E0,4.236054420E-1,-1.534613132E0,1.690257072E0
2.749067675E0,1.352173090E-1,-1.426096320E0,2.350511551E-1
2.759067675E0,-8.202916980E-1,-1.358572841E0,-9.669189453E-1
2.769067675E0,-1.709391475E0,-1.271046877E0,-1.120984077E0
2.779067675E0,-1.595256567E0,-1.029496074E0,-1.110700607E0
2.789067675E0,-9.618659019E-1,-6.332191825E-1,-4.943132401E-1
2.799067675E0,-9.823632240E-2,-2.656679153E-1,7.140989304E-1
2.809067675E0,9.840998650E-1,-2.123520970E-1,1.181962967E0
2.819067675E0,1.424430132E0,-5.704552531E-1,8.672380447E-1
2.829067675E0,1.164831996E0,-1.019378901E0,6.157178879E-1
2.839067675E0,8.406960964E-1,-1.361065865E0,-4.925251007E-1
2.849067675E0,1.702961922E-1,-1.399676442E0,-1.212358475E0
2.859067675E0,-5.055961609E-1,-1.233817816E0,-1.532436371E0
2.869067675E0,-1.258044958E0,-9.936606884E-1,-2.265082359E0
2.879067675E0,-1.756950259E0,-8.222054839E-1,-2.671899796E0
2.889067675E0,-2.016508579E0,-8.316427469E-1,-2.723678589E0
2.899067675E0,-1.604302645E0,-8.849703074E-1,-2.520156860E0
2.909067675E0,-3.366029263E-1,-3.951338530E-1,-2.895078659E0
2.919067675E0,1.489342213E0,5.636481643E-1,-3.109580994E0
2.929067675E0,1.998287201E0,8.294858932E-1,-2.941502571E0
2.939067675E0,1.391856670E0,3.421545029E-1,-2.885951519E0
2.949067675E0,8.080224991E-1,-1.222062111E-2,-2.693142891E0
2.959067675E0,2.443394661E-1,-1.893961430E-2,-2.351698399E0
2.969067675E0,3.272676468E-2,1.746565700E-1,-1.824473381E0
2.979067675E0,1.995851994E-1,2.558884025E-1,-1.078705311E0
2.989067675E0,4.498660564E-1,9.751760960E-2,-7.152452469E-1
2.999067675E0,9.207351208E-1,-4.667854309E-2,-7.935328484E-1
3.009067675E0,1.269792557E0,-1.748350859E-1,-1.921391487E0
3.019067675E0,1.240612745E0,-2.336276770E-1,-3.496469021E0
3.029067675E0,1.165163994E0,3.230082989E-2,-3.215265274E0
3.039067675E0,1.104993820E0,3.362923861E-1,-1.770992279E0
3.049067675E0,1.008104086E0,1.055267811E0,4.389734268E-1
3.059067675E0,4.237313271E-1,1.260217428E0,2.525531769E0
3.069067675E0,-7.928617001E-1,8.029365540E-2,1.905015945E0
3.079067675E0,1.975232363E-1,-2.517768145E-1,1.642996788E0
3.089067675E0,9.801089764E-1,-2.131285667E-1,1.377344131E0
3.099067675E0,8.516267538E-1,-2.511751652E-1,4.728107452E-1
3.109067675E0,-6.277215481E-2,3.321452141E-1,7.498025894E-1
3.119067675E0,-3.597904444E-1,1.299491644E0,1.256663322E0
3.129067675E0,-3.284987211E-1,2.222432137E0,1.821674347E0
3.139067675E0,7.607626915E-2,2.837798357E0,1.712452888E0
3.149067675E0,6.127820015E-1,2.781562328E0,9.094772339E-1
3.159067675E0,1.150638580E0,2.330760241E0,3.202981949E-1
3.169067675E0,1.256994605E0,1.692154169E0,1.048396111E0
3.179067675E0,-4.667143345E0,1.148610592E0,4.057024002E0
3.189067675E0,-5.774794579E0,1.260993719E0,2.441730499E0
3.199067675E0,-2.124673367E0,9.944775105E-1,3.704274178E0
3.209067675E0,3.539093018E0,-5.204200745E-3,2.862056732E0
3.219067675E0,7.114504337E0,-1.287563324E0,3.341853142E0
3.229067675E0,8.828689575E0,-2.178930521E0,2.847866058E0
3.239067675E0,8.321843147E0,-2.161397696E0,1.973038673E0
3.249067675E0,4.193254471E0,-2.469165325E0,1.971798897E0
3.259067675E0,8.067221642E-1,-1.709277868E0,2.737140656E0
3.269067675E0,-6.379158497E-1,3.104164600E-1,3.249114990E0
3.279067675E0,-1.427304506E0,2.222732782E0,2.480164528E0
3.289067675E0,-1.918424368E0,2.944264174E0,6.769561768E-1
3.299067675E0,-1.439460754E0,1.997203827E0,-7.404384613E-1
3.309067675E0,-5.924463272E-2,5.444085598E-1,-1.839723110E0
3.319067675E0,1.253547192E0,-7.654144764E-1,-2.121620655E0
3.329067675E0,2.032200336E0,-1.889833212E0,-1.304228783E0
3.339067675E0,1.933680773E0,-2.783739090E0,-6.140556335E-1
3.349067675E0,1.459999323E0,-3.225480556E0,2.336502075E-3
3.359067675E0,1.068479061E0,-3.438113689E0,3.582792282E-1
3.369067675E0,1.484172344E-1,-2.256308079E0,7.275581360E-2
3.379067675E0,-5.952539444E-1,-1.571058750E0,-1.699649811E0
3.389067675E0,-2.319014549E0,-1.266032934E0,-2.434773445E0
3.399067675E0,-4.518824577E0,2.516865730E-1,-2.486091137E0
3.409067675E0,-4.578217030E0,1.102269650E0,-2.162920952E0
3.419067675E0,-4.241115093E0,1.738917112E0,-1.893111706E0
3.429067675E0,-2.789234877E0,1.569795847E0,-2.396633148E0
3.439067675E0,-2.085979939E0,1.021147013E0,-3.116159439E0
3.449067675E0,-1.532642126E0,1.244538069E0,-3.539857388E0
3.459067675E0,-4.014396667E-1,9.354786873E-1,-4.111554146E0
3.469067675E0,1.422529221E-1,5.006527901E-2,-4.718386173E0
3.479067675E0,5.742177963E-1,-4.988718033E-2,-2.565106392E0
3.489067675E0,-2.360243797E-1,1.463346481E-1,-1.088164806E0
3.499067675E0,-1.057688236E0,4.012713432E-1,-1.559373856E0
3.509067675E0,-1.995728493E0,9.997563362E-1,-2.214384556E0
3.519067675E0,-2.259867668E0,9.454991817E-1,-2.635190964E0
3.529067675E0,-1.434385300E0,5.318014622E-1,-3.275065422E0
3.539067675E0,-9.257109165E-1,8.009815216E-1,-3.847899437E0
3.549067675E0,-1.559962392E0,1.387858152E0,-3.950988770E0
3.559067675E0,-2.523429155E0,1.379893780E0,-3.168101311E0
3.569067675E0,-1.972575188E0,1.269337654E0,-7.246656418E-1
3.579067675E0,-1.676737785E0,1.192016840E0,2.164690018E0
3.589067675E0,-1.260670900E0,4.085330963E-1,3.449961662E0
3.599067675E0,-1.571767807E0,-5.314954519E-1,2.725740433E0
3.609067675E0,-8.066852093E-1,-4.235477448E-1,2.009420395E0
3.619067675E0,4.088413715E-1,2.950321436E-1,1.227709770E0
3.629067675E0,2.318091393E-1,6.168009043E-1,1.087088585E0
3.639067675E0,-7.449401617E-1,6.601251364E-1,1.144485474E0
3.649067675E0,-1.067471385E0,8.296985626E-1,2.049231529E0
3.659067675E0,-1.142502785E0,9.928503036E-1,3.348520279E0
3.669067675E0,-1.233669758E0,7.470299006E-1,4.007342339E0
3.679067675E0,-1.106716871E0,6.700819731E-1,3.678196907E0
3.689067675E0,-8.393012285E-1,1.167600393E0,2.973059654E0
3.699067675E0,-9.517800808E-1,1.681925297E0,2.386415482E0
3.709067675E0,-1.364894748E0,1.873031378E0,2.002191544E0
3.719067675E0,-1.582643986E0,1.919850469E0,1.205159187E0
3.729067675E0,-7.386190891E-1,1.433633685E0,3.002519608E0
3.739067675E0,4.760398865E-1,5.751475096E-1,2.462888718E0
3.749067675E0,1.500282764E0,-3.128080368E-1,3.537314415E0
3.759067675E0,2.012786627E0,-1.226674795E0,4.874944687E0
3.769067675E0,2.604493618E0,-2.167545319E0,5.015727043E0
3.779067675E0,3.109380960E0,-2.755608082E0,4.548621178E0
3.789067675E0,3.551497459E0,-2.929480076E0,3.800274849E0
3.799067675E0,3.770675898E0,-2.603332281E0,3.239768982E0
3.809067675E0,3.294090033E0,-2.121758699E0,2.675128937E0
3.819067675E0,3.222689927E-1,-1.319576025E0,4.643287659E-1
3.829067675E0,-1.902979612E-2,6.847786903E-2,-6.934871674E-1
3.839067675E0,2.424787283E-1,2.681901455E-1,-9.097623825E-1
3.849067675E0,5.770979524E-1,-7.725627422E-1,-1.280060768E0
3.859067675E0,1.367504597E0,-1.407074451E0,-8.726787567E-1
3.869067675E0,2.422757149E0,-1.157182932E0,-7.378721237E-1
3.879067675E0,2.805009365E0,-8.611365557E-1,-5.233154297E-1
3.889067675E0,2.860502720E0,-1.374601245E0,-1.125688553E-1
3.899067675E0,2.401186705E0,-1.142053127E0,6.553001404E-1
3.909067675E0,1.759515047E0,-3.516490459E-1,1.195604324E0
3.919067675E0,1.080423832E0,2.184168100E-1,1.245041847E0
3.929067675E0,5.253424644E-1,4.624233246E-1,1.356904030E0
3.939067675E0,3.868975639E-1,3.881477118E-1,1.256632805E0
3.949067675E0,6.683058739E-1,-1.385962963E-2,2.968196869E-1
3.959067675E0,9.252159595E-1,-3.255906105E-1,-1.182021141E0
3.969067675E0,8.178246021E-1,-5.286824703E-1,-3.092800140E0
3.979067675E0,1.432157993E0,-3.716146946E-1,-4.545144081E0
3.989067675E0,1.480837822E0,-2.088232040E-1,-4.695771694E0
3.999067675E0,2.524418831E-1,-2.451169491E-1,-3.921333790E0
4.009067675E0,-1.397915721E0,1.319484711E-1,-2.623184681E0
4.019067675E0,-5.011970997E0,1.465181828E0,-1.235696793E0
4.029067675E0,-5.979301453E0,2.238096237E0,-1.527378082E0
4.039067675E0,-5.057630539E0,2.241893530E0,-2.740892410E0
4.049067675E0,-4.567156315E0,1.944012403E0,-3.235312939E0
4.059067675E0,-3.009802341E0,1.326586246E0,-3.799755096E0
4.069067675E0,-4.805371761E-1,1.043467045E0,-3.523649693E0
4.079067675E0,1.522334814E0,1.542132854E0,-2.095527649E0
4.089067675E0,5.552155972E-1,1.919312716E0,-4.021291733E-1
4.099067675E0,-2.319421291E0,2.398872375E-2,6.448326111E-1
4.109067675E0,-2.275390625E0,-1.650121450E0,2.392249107E0
4.119067675E0,3.561794758E-1,-2.379370213E0,4.409170151E0
4.129067675E0,1.521041632E0,-2.251488686E0,5.079887390E0
4.139067675E0,1.936489820E0,-1.560073376E0,4.408343315E0
4.149067675E0,2.247835875E0,-7.750301361E-1,2.622220039E0
4.159067675E0,1.829201460E0,-5.491912365E-1,6.535053253E-1
4.169067675E0,1.294699669E0,-1.629688740E-1,-8.223228455E-1
4.179067675E0,1.961849451E0,6.567478180E-2,-5.886921883E-1
4.189067675E0,2.156046867E0,-6.255049706E-1,2.775955200E-1
4.199067675E0,-1.901559830E-1,-1.746921301E0,-2.256655693E-1
4.209067675E0,-1.582257509E0,-1.931324959E0,-7.887210846E-1
4.219067675E0,-2.010698318E-1,-1.505593538E0,-5.689201355E-1
4.229067675E0,1.133134127E0,-1.519567490E0,-5.612497330E-1
4.239067675E0,6.902709007E-1,-1.426136494E0,-2.021776199E0
4.249067675E0,2.254776955E-1,-4.993345737E-1,-3.613658428E0
4.259067675E0,4.324550629E-1,8.882994652E-1,-3.851386547E0
4.269067675E0,1.439466953E0,2.538741112E0,-2.363221169E0
4.279067675E0,1.519119263E0,2.616648674E0,-1.283602715E-1
4.289067675E0,1.301575899E0,1.173974037E0,2.672966003E0
4.299067675E0,1.946414948E0,1.177935600E-1,5.875402927E0
4.309067675E0,2.245876074E0,-1.942553520E-1,8.164188385E0
4.319067675E0,2.257712603E0,-4.477577209E-1,7.184469223E0
4.329067675E0,3.044250488E0,-1.492118835E-1,4.473326683E0
4.339067675E0,3.296617746E0,-8.494234085E-2,2.008861542E0
4.349067675E0,-2.876958132E0,1.122189045E0,-2.405456543E0
4.359067675E0,3.259980679E-1,3.576057434E0,-2.095636368E0
4.369067675E0,-3.087023497E0,2.348440647E0,-1.640334606E0
4.379067675E0,-8.174350262E-1,7.938523293E-1,-1.693368435E0
4.389067675E0,6.562187672E-1,3.472142220E-1,-2.092832565E0
4.399067675E0,4.839315414E-1,-5.100653172E-1,-6.469421387E-1
4.409067675E0,-2.188699245E-1,-1.690644503E0,1.517386436E0
4.419067675E0,-1.212878346E0,-1.792115211E0,3.101709366E0
4.429067675E0,-3.194867134E0,-1.152717113E0,1.548929214E0
4.439067675E0,-1.873056412E0,-1.251204967E0,-2.223476410E0
4.449067675E0,1.268130541E0,-1.155632734E0,-3.432796478E0
4.459067675E0,1.069254398E0,-1.681307316E0,-3.726763725E0
4.469067675E0,4.208917618E-1,-1.060662746E0,-3.429039001E0
4.479067675E0,8.339004517E-1,-1.088307619E0,-1.563081741E0
4.489067675E0,1.382592201E0,-1.725114822E0,1.539918900E0
4.499067675E0,1.767906904E0,-2.128087997E0,3.834000587E0
4.509067675E0,2.085574627E0,-1.569218397E0,3.739141464E0
4.519067675E0,6.927645206E-1,-1.461627722E0,2.176311970E0
4.529067675E0,1.874120235E-1,-7.895550728E-1,-1.924693108E0
4.539067675E0,1.785011530E0,-2.806911469E-1,-5.396712303E0
4.549067675E0,2.231354475E0,-1.738176346E-1,-4.950097561E0
4.559067675E0,-2.592848778E0,1.165237904E0,-2.746294975E0
4.569067675E0,-3.482613564E0,8.576712608E-1,-6.362321854E0
4.579067675E0,-7.187854767E0,1.049292564E0,-9.659471512E0
4.589067675E0,-1.108927727E1,1.584115505E0,-9.975136757E0
4.599067675E0,-1.355109310E1,2.199326038E0,-5.455596924E0
4.609067675E0,-9.010656357E0,7.501635551E-1,2.465888500E0
4.619067675E0,-4.060224056E0,-1.276555300E0,5.736567497E0
4.629067675E0,-2.994652033E0,-1.426053286E0,5.178848743E0
4.639067675E0,-3.569669247E0,4.219670296E-1,1.461454868E0
4.649067675E0,-2.949139595E0,1.728738308E0,-1.202034950E0
4.659067675E0,-2.489564896E0,2.174833775E0,-1.711882114E0
4.669067675E0,-2.362210274E0,2.432507992E0,-4.768705368E-1
4.679067675E0,-2.413643837E0,2.377557755E0,1.156353474E0
4.689067675E0,-2.688145638E-1,4.747867584E-1,2.105185509E0
4.699067675E0,-8.167676926E-1,1.820840836E0,-5.494585037E-1
4.709067675E0,-2.669273615E0,2.995676041E0,5.078372955E-1
4.719067675E0,-3.855725288E0,4.589617729E0,6.642932892E-1
4.729067675E0,-3.722903490E0,4.888571739E0,4.902954102E-1
4.739067675E0,-1.829496622E0,3.281318903E0,9.986782074E-1
4.749067675E0,1.272284746E0,-6.857419014E-2,3.097816467E0
4.759067675E0,4.678531170E0,-2.740666628E0,5.915273666E0
4.769067675E0,5.711244583E0,-4.140789032E0,8.346736908E0
4.779067675E0,6.238791466E0,-5.468225479E0,9.162793159E0
4.789067675E0,8.219247818E0,-7.435791969E0,9.575756073E0
4.799067675E0,9.110841751E0,-7.284374237E0,7.499444962E0
4.809067675E0,6.639060974E0,-5.325123310E0,3.717417717E0
4.819067675E0,2.049118757E0,-2.449851274E0,-2.865905762E-1
4.829067675E0,2.301299572E-1,-1.913232803E-1,-3.519950867E0
4.839067675E0,3.732891083E-1,-2.038762569E-1,-4.540493488E0
4.849067675E0,7.680885792E-1,-8.341796398E-1,-4.656786919E0
4.859067675E0,6.931900978E-2,-6.459867954E-1,-4.372016907E0
4.869067675E0,-1.520892859E0,7.394006252E-1,-4.531707764E0
4.879067675E0,-2.824963570E0,1.913330317E0,-4.488264084E0
4.889067675E0,-2.845294476E0,2.283607483E0,-3.946903229E0
4.899067675E0,-1.574695349E0,1.770597577E0,-1.677891731E0
4.909067675E0,3.401966095E-1,5.263160467E-1,-7.841396332E-2
4.919067675E0,1.978523970E0,-9.211227298E-1,2.340126038E0
4.929067675E0,1.394542456E0,-5.620931387E-1,2.538185120E0
4.939067675E0,-8.139896393E-2,1.239751816E0,3.916581154E0
4.949067675E0,-4.644212723E-1,8.506127596E-1,4.215851784E0
4.959067675E0,-1.258902550E-1,3.403196335E-1,4.097723961E0
4.969067675E0,7.622156143E-1,-3.594032526E-1,3.442953110E0
4.979067675E0,1.099254847E0,-9.636262059E-1,1.541634560E0
4.989067675E0,1.982629538E0,-7.306839824E-1,3.485622406E-1
4.999067675E0,1.778275967E0,-5.266317129E-1,-3.052511215E-1
5.009067675E0,1.390845776E0,-3.747440577E-1,-4.275522232E-1
5.019067675E0,1.047214746E0,-1.440277398E-1,3.637399673E-1
5.029067675E0,2.541284561E-1,1.561644077E-1,3.640241623E-1
5.039067675E0,-5.890095234E-1,2.351919115E-1,-1.131814957E0
5.049067675E0,-9.987180233E-1,3.847171366E-1,-3.036568642E0
5.059067675E0,-6.584565639E-1,1.689184755E-1,-4.017376423E0
5.069067675E0,1.540253162E-1,-1.175737381E-2,-4.829224110E0
5.079067675E0,8.221340179E-2,-1.045056134E-1,-3.330021858E0
5.089067675E0,-3.694133759E-1,-8.009205759E-2,-1.756187916E0
5.099067675E0,-1.271662354E0,2.774018943E-1,-4.589929581E-1
5.109067675E0,-2.133490086E0,9.983637333E-1,3.578500748E-1
5.119067675E0,-2.594267368E0,1.942280054E0,-7.676515579E-1
5.129067675E0,-3.624683142E0,2.064217091E0,-3.420944691E0
5.139067675E0,-2.187779188E0,1.311162233E0,-5.478685379E0
5.149067675E0,-5.236604214E-1,9.489412904E-1,-5.156939983E0
5.159067675E0,-2.040290833E-2,3.524933457E-1,-2.559726238E0
5.169067675E0,-1.071584582E0,3.408535123E-1,8.145084381E-1
5.179067675E0,-1.232834816E0,1.382605553E0,8.646623611E0
5.189067675E0,-4.388134003E0,8.585792184E-1,3.630879402E0
5.199067675E0,-4.435465813E0,2.473232746E-1,-3.217825890E0
5.209067675E0,-2.755936623E0,6.976746321E-1,-6.117672920E0
5.219067675E0,-3.242646217E0,8.752509952E-2,-6.291803360E0
5.229067675E0,-2.672080994E-1,-5.527812243E-2,-3.035344601E0
5.239067675E0,3.453485727E0,-8.740881085E-2,-3.908376694E-1
5.249067675E0,5.517108440E0,-2.052308321E0,6.278095245E-1
5.259067675E0,3.934689760E0,-3.568903923E0,3.220089912E0
5.269067675E0,2.621444225E0,-4.640209675E0,6.459223747E0
5.279067675E0,2.536062717E0,-4.850739479E0,8.629762650E0
5.289067675E0,2.958230972E0,-5.131361008E0,9.844033241E0
5.299067675E0,4.800798416E0,-5.038213253E0,5.156447411E0
5.309067675E0,5.734055519E0,-3.862751484E0,1.545371056E0
5.319067675E0,4.731403351E0,-2.661455154E0,2.367527962E0
5.329067675E0,2.608242512E0,-2.485248566E0,3.845369339E0
5.339067675E0,2.217780113E0,-1.813601732E0,4.169436455E0
5.349067675E0,9.663912654E-1,-1.127659082E0,3.590216637E0
5.359067675E0,-3.252738714E-2,-5.792711973E-1,2.254904747E0
5.369067675E0,-4.971457720E-1,-9.093444049E-2,-1.706342697E-1
5.379067675E0,-9.016228914E-1,1.209800243E-1,-2.927602768E0
5.389067675E0,-5.761234164E-1,9.915477037E-2,-4.877621651E0
5.399067675E0,3.440788686E-1,3.420527577E-1,-4.735126972E0
5.409067675E0,1.315048695E0,4.394869506E-1,-3.494186878E0
5.419067675E0,1.536152840E0,-1.061272919E-1,-2.080488205E0
5.429067675E0,1.371439338E0,-6.529957652E-1,-3.003358841E-1
5.439067675E0,6.365025640E-1,-7.181788087E-1,-7.496261597E-2
5.449067675E0,-5.484379530E-1,-3.432411253E-1,-4.224176407E-1
5.459067675E0,-1.631793857E0,2.780676186E-1,-3.609352112E-1
5.469067675E0,-1.650483131E0,4.987687767E-1,-5.227575302E-1
5.479067675E0,-1.158653736E0,5.262954235E-1,-1.103679657E0
5.489067675E0,-8.490705490E-2,8.981059194E-1,-4.836397171E-1
5.499067675E0,5.607148409E-1,7.724380493E-1,1.503200531E-1
5.509067675E0,8.043898940E-1,3.207554817E-1,-2.465267181E-1
5.519067675E0,1.032147884E0,8.407061547E-2,-8.775386810E-1
5.529067675E0,9.888718724E-1,1.895893216E-1,-1.254939079E0
5.539067675E0,4.426061213E-1,4.903030694E-1,-1.522403717E0
5.549067675E0,7.423162460E-3,7.798610330E-1,-1.898137569E0
5.559067675E0,-5.486799479E-1,1.029704928E0,-2.456982613E0
5.569067675E0,-5.813345909E-1,1.834083319E0,-2.692246437E0
5.579067675E0,-8.158813715E-1,1.825295687E0,-2.904161453E0
5.589067675E0,-1.145921469E0,1.876916647E0,-2.921602249E0
5.599067675E0,-7.203726768E-1,1.845093250E0,-2.441467285E0
5.609067675E0,-1.573026776E-1,1.667523503E0,-1.915911674E0
5.619067675E0,-4.794144630E-2,1.352069139E0,-1.494490623E0
5.629067675E0,-6.063382626E-1,1.081775188E0,-1.350637436E0
5.639067675E0,-1.310227633E0,9.946887493E-1,-1.455255508E0
5.649067675E0,-1.497534513E0,8.668002486E-1,-1.877550125E0
5.659067675E0,-9.732392430E-1,5.231320262E-1,-2.166290760E0
5.669067675E0,1.013740301E-1,4.354169965E-1,-1.798373222E0
5.679067675E0,1.509771585E0,1.409149766E-1,-5.924205780E-1
5.689067675E0,2.269744873E0,-4.880424738E-1,1.279538155E0
5.699067675E0,1.806534529E0,-1.031825662E0,2.834182739E0
5.709067675E0,2.078258991E-1,-1.045773745E0,2.987887383E0
5.719067675E0,-1.010813594E0,-3.993856013E-1,1.661654472E0
5.729067675E0,-1.243780732E0,2.166646123E-1,5.462894440E-1
5.739067675E0,-1.039035678E0,-1.668024808E-2,-6.115341187E-2
5.749067675E0,3.337396383E-1,-7.372975945E-1,4.167861938E-1
5.759067675E0,1.548986077E0,-7.904032469E-1,1.820329666E0
5.769067675E0,1.404123187E0,-6.016390324E-1,2.514831543E0
5.779067675E0,-2.532787323E-1,-6.224449873E-1,2.495676994E0
5.789067675E0,-1.465329528E0,-8.460170031E-1,2.755615234E0
5.799067675E0,-1.781513214E0,-8.901185989E-1,3.399855614E0
5.809067675E0,-6.110990047E-1,-1.143297553E0,3.537611961E0
5.819067675E0,2.177710533E-1,-1.603584528E0,3.640491486E0
5.829067675E0,6.132459641E-1,-1.991464615E0,3.975180626E0
5.839067675E0,6.079217792E-1,-1.824950099E0,4.493278503E0
5.849067675E0,1.084107161E-1,-9.078913927E-1,4.715018272E0
5.859067675E0,-1.220903873E0,-7.422564030E-1,4.190752983E0
5.869067675E0,-1.729785323E0,-6.728909016E-1,3.609457970E0
5.879067675E0,-2.250397205E0,-7.178115845E-1,2.996648788E0
5.889067675E0,-2.409437656E0,-1.051610231E0,2.348750114E0
5.899067675E0,-2.124764204E0,-1.470900536E0,1.694751740E0
5.909067675E0,-1.599983931E0,-1.734739780E0,1.029489517E0
5.919067675E0,-8.568065166E-1,-1.734372258E0,6.797504425E-1
5.929067675E0,-3.193749189E-1,-1.380185366E0,8.075160980E-1
5.939067675E0,-4.320230484E-1,-8.864291310E-1,1.347409248E0
5.949067675E0,-5.071054697E-1,-3.918085098E-1,4.901061058E0
5.959067675E0,-9.170837402E-1,4.128456712E-1,1.080049133E1
5.969067675E0,-1.426614761E0,8.069506884E-1,1.330212307E1
5.979067675E0,-1.707697272E0,1.702889353E-1,1.007298946E1
5.989067675E0,-2.065584421E0,-4.287833571E-1,2.887343407E0
5.999067675E0,-1.235716939E0,-2.970169857E-2,-3.208924294E0
6.009067675E0,-3.112015724E-1,6.529463530E-1,-6.127971172E0
6.019067675E0,8.473532796E-1,3.181304336E-1,-7.663807869E0
6.029067675E0,1.114100575E0,1.865586340E-1,-8.517123222E0
6.039067675E0,1.331566811E0,5.235712528E-1,-8.261960030E0
6.049067675E0,1.351398110E0,7.214304209E-1,-8.148553848E0
6.059067675E0,9.602410793E-1,7.942106724E-1,-8.296695709E0
6.069067675E0,5.297064185E-1,8.679360151E-1,-8.397632599E0
6.079067675E0,1.907747537E-1,8.748180866E-1,-8.452928543E0
6.089067675E0,-4.196463525E-2,7.607701421E-1,-8.019991875E0
6.099067675E0,-3.946505487E-2,4.184535146E-1,-7.045485973E0
6.109067675E0,7.688699663E-2,-2.920967340E-2,-6.078108788E0
6.119067675E0,2.120027840E-1,-3.007117808E-1,-5.422605038E0
6.129067675E0,1.592543721E-1,-2.727271318E-1,-5.101221085E0
6.139067675E0,1.929343641E-1,-1.607398391E-1,-3.725193977E0
6.149067675E0,5.134292841E-1,2.807457745E-1,-2.322425842E-1
6.159067675E0,-1.478144526E-1,4.824495912E-1,3.075189590E-1
6.169067675E0,-9.007137418E-1,3.175947666E-1,-8.012151718E-1
6.179067675E0,-9.317492247E-1,1.327729523E-1,-1.045539856E0
6.189067675E0,-1.096049905E0,4.550033808E-1,-1.556959152E-1
6.199067675E0,-1.387043118E0,8.651313782E-1,1.454169273E0
6.209067675E0,-1.914002538E0,1.283930302E0,2.684926987E0
6.219067675E0,-2.404670238E0,1.639941335E0,3.132802963E0
6.229067675E0,-2.103067398E0,1.687844157E0,2.500177383E0
6.239067675E0,-1.433130383E0,1.552634716E0,1.443037033E0
6.249067675E0,-9.766492844E-1,1.365521431E0,2.303409576E-2
6.259067675E0,-1.428696632E0,1.368542910E0,-1.287136078E0
6.269067675E0,-1.700293541E0,1.424070239E0,-1.630564213E0
6.279067675E0,-9.558111429E-1,1.048631310E0,-1.790080070E0
6.289067675E0,6.014502048E-1,2.554961443E-1,-1.576297760E0
6.299067675E0,2.071137905E0,-8.090118170E-1,-5.324258804E-1
6.309067675E0,3.317144632E0,-1.572623491E0,1.321680069E0
6.319067675E0,3.607432842E0,-1.494609118E0,3.758894920E0
6.329067675E0,2.662724018E0,-9.123742580E-1,5.068940163E0
6.339067675E0,1.026801109E0,-2.070547044E-1,4.734029770E0
6.349067675E0,-2.538969517E-1,-8.897548914E-2,3.861447334E0
6.359067675E0,-5.428379774E-1,-3.169046640E-1,3.605199814E0
6.369067675E0,-4.040998816E-1,-4.808329940E-1,3.417229652E0
6.379067675E0,1.491007209E-1,-4.952404201E-1,3.407615662E0
6.389067675E0,4.908142686E-1,-8.774213791E-1,3.588396072E0
6.399067675E0,9.989500046E-3,-1.791260719E0,3.124520302E0
6.409067675E0,-5.677786469E-1,-2.569722176E0,2.361618042E0
6.419067675E0,-7.706936598E-1,-3.069886684E0,2.101701736E0
6.429067675E0,-3.638619184E-2,-2.797299385E0,1.644596100E0
6.439067675E0,1.758158565E0,-1.624669790E0,6.790180206E-1
6.449067675E0,2.063184500E0,-9.625356197E-1,-6.604576111E-1
6.459067675E0,1.280973434E0,-9.721676111E-1,-1.647328377E0
6.469067675E0,2.576793432E-1,-1.044783115E0,-1.897730827E0
6.479067675E0,-6.479556561E-1,-7.012687922E-1,-1.641243935E0
6.489067675E0,-1.440862656E0,-2.644339204E-1,-1.060829163E0
6.499067675E0,-1.736096144E0,-2.211325169E-1,-7.044906616E-1
6.509067675E0,-1.286217451E0,-7.463859916E-1,-1.034692764E0
6.519067675E0,-5.655272603E-1,-1.143316031E0,-1.582210541E0
6.529067675E0,-1.668899059E-1,-1.188787103E0,-1.953145504E0
6.539067675E0,-3.595130444E-1,-1.009048462E0,-2.207267761E0
6.549067675E0,-1.114536762E0,-5.409465432E-1,-2.599959373E0
6.559067675E0,-1.624137878E0,-1.002315283E-1,-2.552371025E0
6.569067675E0,-1.047821045E0,3.813980818E-1,-2.756577015E0
6.579067675E0,-5.030870438E-1,5.733923912E-1,-3.016541481E0
6.589067675E0,-2.657722831E-1,5.707528591E-1,-3.137464046E0
6.599067675E0,-2.045387775E-1,5.934820175E-1,-3.160598755E0
6.609067675E0,-1.865582615E-1,7.229449749E-1,-2.956713676E0
6.619067675E0,-2.109645903E-1,7.907298803E-1,-2.933645248E0
6.629067675E0,-5.003539920E-1,8.790937662E-1,-3.052303314E0
6.639067675E0,-4.690307081E-1,1.063160300E0,-2.679444313E0
6.649067675E0,-2.130451053E-1,1.181142926E0,-1.812465668E0
6.659067675E0,-1.205691099E-1,1.063109756E0,-1.011540413E0
6.669067675E0,-2.688582540E-1,9.401612282E-1,-4.635658264E-1
6.679067675E0,-6.404445767E-1,9.560715556E-1,-2.548789978E-2
6.689067675E0,-9.368125200E-1,1.295782208E0,2.501277924E-1
6.699067675E0,-1.351454020E0,1.677123785E0,2.089414597E-1
6.709067675E0,-1.792940140E0,1.614361286E0,-1.093482971E-2
6.719067675E0,-1.446348667E0,1.071455836E0,-3.718366623E-1
6.729067675E0,-2.893992662E-1,5.765109062E-1,-8.629531860E-1
6.739067675E0,4.979184270E-1,2.733711004E-1,-9.697647095E-1
6.749067675E0,9.850212336E-1,3.643926978E-1,-4.366207123E-1
6.759067675E0,5.854628086E-1,8.794357777E-1,5.253639221E-1
6.769067675E0,-4.306682348E-1,1.524853706E0,1.418448448E0
6.779067675E0,-8.050287366E-1,1.980656743E0,2.267690659E0
6.789067675E0,-1.465829611E-1,1.902171254E0,3.051720619E0
6.799067675E0,1.223816276E0,1.126880765E0,3.457101822E0
6.809067675E0,2.137700081E0,-1.538509130E-1,2.960618019E0
6.819067675E0,2.207103729E0,-1.559074640E0,2.514172554E0
6.829067675E0,2.286909819E0,-1.844599724E0,2.595460892E0
6.839067675E0,1.887318969E0,-1.310095310E0,3.647472382E0
6.849067675E0,7.762328386E-1,-5.203161240E-1,5.816579819E0
6.859067675E0,9.586557150E-1,1.555788517E-1,6.982519150E0
6.869067675E0,1.933570743E0,-7.579251528E-1,7.053348541E0
6.879067675E0,2.929052114E0,-2.454457998E0,5.507115364E0
6.889067675E0,3.385390520E0,-4.476907730E0,4.589755058E0
6.899067675E0,3.239245176E0,-6.110770226E0,5.786423683E0
6.909067675E0,2.273900747E0,-6.027141571E0,6.213021278E0
6.919067675E0,1.921708107E0,-4.855290413E0,6.197855949E0
6.929067675E0,7.118158340E-1,-4.002941608E0,6.796772003E0
6.939067675E0,-4.237108231E-1,-2.853944302E0,7.160529137E0
6.949067675E0,-1.319835544E0,-1.953444004E0,7.162949562E0
6.959067675E0,-2.281071424E0,-1.438117981E0,6.148630142E0
6.969067675E0,-3.264338970E0,-2.122337371E-1,1.040160179E0
6.979067675E0,-2.989650726E0,1.885065794E0,-3.820166588E0
6.989067675E0,-3.020346880E0,1.756277323E0,-2.674938202E0
6.999067675E0,-3.820127010E0,1.062028646E0,-2.649703979E0
7.009067675E0,-3.372408628E0,1.064272404E0,-3.646232605E0
7.019067675E0,-2.857583284E0,1.306154251E0,-5.005118370E0
7.029067675E0,-1.928628564E0,1.307268143E0,-5.964568138E0
7.039067675E0,-1.999644995E0,8.627437353E-1,-7.360921860E0
7.049067675E0,-2.453091621E0,4.398409128E-1,-8.166008949E0
7.059067675E0,-2.928813934E0,9.770143032E-2,-8.424060822E0
7.069067675E0,-2.973543882E0,-3.269166350E-1,-8.229077339E0
7.079067675E0,1.386423349E0,1.843333244E-2,-2.560906410E0
7.089067675E0,4.536953926E0,9.058058858E-1,-1.423768997E0
7.099067675E0,4.431310654E0,-2.114051282E-1,-2.701119423E0
7.109067675E0,2.256962538E0,-1.644655108E0,-2.933942795E0
7.119067675E0,3.519631147E0,-1.995290160E0,-2.137851715E-2
7.129067675E0,4.220217705E0,-1.541450381E0,7.266464233E-1
7.139067675E0,3.405076265E0,-8.696234226E-1,2.779893875E-1
7.149067675E0,1.770935059E0,-5.805673599E-1,-9.802961349E-1
7.159067675E0,8.022050858E-1,-3.784690499E-1,-1.926930428E0
7.169067675E0,9.460010529E-1,-2.068232894E-1,-1.071900368E0
7.179067675E0,1.452576876E0,3.721185923E-1,9.191751480E-1
7.189067675E0,1.420836687E0,1.160453439E0,1.719092369E0
7.199067675E0,6.076486111E-1,1.681602359E0,1.446269989E0
7.209067675E0,3.974215984E-1,1.907551050E0,8.877620697E-1
7.219067675E0,2.868943214E-1,1.678573370E0,9.465808868E-1
7.229067675E0,-1.081261158E0,9.808629155E-1,8.526439667E-1
7.239067675E0,-2.134485245E0,2.609424591E-1,1.201558113E0
7.249067675E0,-2.464993000E0,1.045467257E-1,2.015345573E0
7.259067675E0,-2.909502029E0,5.565309525E-1,2.922802925E0
7.269067675E0,-3.200212717E0,1.059261799E0,2.723073959E0
7.279067675E0,-3.003050804E0,1.219332457E0,1.178451538E0
7.289067675E0,-2.490856647E0,1.310216308E0,-3.383216858E-1
7.299067675E0,-2.168517351E0,1.053142667E0,-1.591379642E0
7.309067675E0,-2.033928394E0,8.569121361E-1,-2.649086952E0
7.319067675E0,-1.666557789E0,7.273147106E-1,-2.901397228E0
7.329067675E0,-1.421885967E0,7.446734905E-1,-2.918231010E0
7.339067675E0,-1.155471802E0,7.679433823E-1,-2.798319817E0
7.349067675E0,-6.212821007E-1,3.648551702E-1,-2.884819984E0
7.359067675E0,2.621173859E-3,-1.310616732E-1,-2.832429886E0
7.369067675E0,2.346596718E-1,-4.138263464E-1,-2.688469887E0
7.379067675E0,3.235883713E-1,-5.103282332E-1,-2.485568523E0
7.389067675E0,9.237313271E-1,-3.512740731E-1,-1.708248615E0
7.399067675E0,1.814155102E0,-2.256183624E-1,-6.334857941E-1
7.409067675E0,2.328682423E0,-1.414308548E-1,4.643411636E-1
7.419067675E0,2.180284500E0,-3.990955949E-1,1.495898724E0
7.429067675E0,8.304400444E-1,-1.141174436E0,2.426952839E0
7.439067675E0,-5.610322952E-2,-2.192524433E0,1.472857475E0
7.449067675E0,-1.075472832E-1,-3.064290524E0,2.068278313E0
7.459067675E0,3.105707169E-1,-3.162268400E0,5.534202576E0
7.469067675E0,1.170754433E-1,-3.128820658E0,6.383504868E0
7.479067675E0,1.288394928E-1,-3.126694441E0,4.152229309E0
7.489067675E0,5.293622017E-1,-2.064137220E0,7.178173065E-1
7.499067675E0,1.225663424E0,8.844280243E-2,-3.957108974E0
7.509067675E0,9.147770405E-1,-1.588776112E-1,-2.813373566E0
7.519067675E0,1.225268841E-1,-1.218565464E0,-4.819392204E0
7.529067675E0,1.138904572E0,-1.466556430E0,-3.209553242E0
7.539067675E0,2.037697077E0,-2.051459551E0,-6.398763657E-1
7.549067675E0,1.745547295E0,-2.788778782E0,2.140417099E-1
7.559067675E0,-3.885316849E-1,-3.323005676E0,-4.750204086E-1
7.569067675E0,-1.922064185E0,-2.671580315E0,-1.212757111E0
7.579067675E0,-1.022422791E0,-1.305160522E0,-3.326505661E0
7.589067675E0,5.063300133E-1,-6.915671825E-1,-5.860937119E0
7.599067675E0,1.549403667E-1,-1.307468057E0,-6.719239235E0
7.609067675E0,8.137407303E-1,-1.409240484E0,-4.373641968E0
7.619067675E0,1.996541262E0,-9.614114761E-1,-1.541230202E0
7.629067675E0,2.468559980E0,-1.019735336E0,5.849285126E-1
7.639067675E0,7.472151518E-1,-2.107183456E0,2.180656433E0
7.649067675E0,-3.875586987E-1,-2.818338633E0,1.399827957E0
7.659067675E0,6.588118076E-1,-2.374229908E0,-3.977680206E-1
7.669067675E0,1.784492970E0,-1.590350389E0,-1.769727230E0
7.679067675E0,1.751206636E0,-9.959371090E-1,-2.650891304E0
7.689067675E0,1.533991814E0,1.895112157E0,-2.238024712E0
7.699067675E0,-2.203571558E0,6.655053139E0,-3.446238041E0
7.709067675E0,-1.579470873E0,-1.940286636E0,-3.680640697E0
7.719067675E0,-1.791696429E0,7.618439198E-2,-1.157788277E0
7.729067675E0,-6.050827503E-1,1.332788110E0,4.225234985E0
7.739067675E0,-2.011889219E0,6.810383797E-1,1.105795097E1
7.749067675E0,-3.116872311E0,-2.270487547E-1,1.402133179E1
7.759067675E0,-2.986942530E-1,5.231451988E-1,9.680995941E0
7.769067675E0,1.013084054E0,5.270789862E-1,1.729526520E0
7.779067675E0,8.190056086E-1,8.028138876E-1,-2.802901268E0
7.789067675E0,-1.095884800E0,1.152124763E0,-4.607733727E0
7.799067675E0,-3.699367046E0,2.299116611E0,-4.989932537E0
7.809067675E0,-3.835131168E0,4.233127594E0,-4.755044937E0
7.819067675E0,2.424124479E-1,6.108301640E0,-4.852620125E0
7.829067675E0,4.530932903E0,7.444230556E0,-6.404164314E0
7.839067675E0,-1.735669374E0,4.836184978E0,-6.809524536E0
7.849067675E0,-5.521856308E0,3.867500782E0,-3.892611504E0
7.859067675E0,-2.921447277E0,3.112427235E0,-1.537295341E0
7.869067675E0,-7.162866592E-1,4.170854092E-1,-2.089643002E0
7.879067675E0,5.775972009E-1,-1.170744896E-1,-9.401798248E-1
7.889067675E0,-1.573085785E0,4.121561050E-1,8.732032776E-1
7.899067675E0,-3.143360615E0,3.986091614E-1,2.220959663E0
7.909067675E0,-2.484267950E0,3.570270538E-1,2.276605606E0
7.919067675E0,-1.099720836E0,5.681799650E-1,1.265856743E0
7.929067675E0,-3.389447331E-1,8.878087997E-1,1.352494240E0
7.939067675E0,-1.737280607E0,3.697043657E-1,1.989706993E0
7.949067675E0,-3.030763626E0,-5.082578659E-1,2.794190407E0
7.959067675E0,-3.699581146E0,-1.427645922E0,4.196081161E0
7.969067675E0,-3.362298965E0,-2.334794044E0,4.796450615E0
7.979067675E0,-2.175860405E0,-2.905994177E0,4.368987083E0
7.989067675E0,-9.460176229E-1,-2.961346626E0,4.352919579E0
7.999067675E0,-4.995677471E-1,-2.502007008E0,4.785187721E0
8.009067675E0,-1.453725815E0,-2.100288391E0,5.064607620E0
8.019067675E0,-2.440405607E0,-1.629444838E0,4.981585503E0
8.029067675E0,-4.022001266E0,-1.439355969E0,4.549991608E0
8.039067675E0,-4.539325714E0,-1.116100192E0,2.469228745E0
8.049067675E0,-3.227799892E0,-1.127758384E0,1.075105667E-1
8.059067675E0,-1.267444849E0,-1.432891130E0,-1.525514603E0
8.069067675E0,1.354295969E0,-2.509627819E0,-2.136714935E0
8.079067675E0,1.370869040E0,-1.424839020E0,-1.524291039E0
8.089067675E0,7.314720154E-1,-3.744568825E-1,-6.000146866E-1
8.099067675E0,-2.904719114E-1,2.525224686E-1,-6.803960800E-1
8.109067675E0,-1.720336676E-1,5.845376253E-1,-4.057607651E-1
8.119067675E0,9.537907839E-1,2.077453136E-1,3.344125748E-1
8.129067675E0,2.784410477E0,-5.617640615E-1,4.941520691E-1
8.139067675E0,3.804951191E0,-8.764497042E-1,-2.266263962E-1
8.149067675E0,3.866213799E0,-6.303817630E-1,-1.262252808E0
8.159067675E0,3.423426628E0,-3.262698650E-2,-2.309363365E0
8.169067675E0,3.075776339E0,5.891062021E-1,-3.528850555E0
8.179067675E0,2.700321913E0,9.209227562E-1,-4.543403625E0
8.189067675E0,2.302864075E0,1.300058246E0,-4.575833321E0
8.199067675E0,1.648177624E0,1.413439512E0,-3.913922787E0
8.209067675E0,1.290172100E0,1.298778057E0,-2.127490997E0
8.219067675E0,8.184744120E-1,1.092899919E0,-2.004384995E-1
8.229067675E0,4.540646076E-1,1.106892705E0,1.011753082E0
8.239067675E0,6.503013372E-1,1.278286338E0,9.063510895E-1
8.249067675E0,1.045987844E0,1.150403380E0,-4.549102783E-1
8.259067675E0,1.817200541E0,1.056662798E0,-2.470763206E0
8.269067675E0,2.803357124E0,1.037724972E0,-4.075617790E0
8.279067675E0,3.052549362E0,6.194868088E-1,-4.604251862E0
8.289067675E0,2.846801758E0,1.902762651E-1,-4.166273594E0
8.299067675E0,2.407835722E0,2.211464643E-1,-3.221965790E0
8.309067675E0,1.707843542E0,1.084802151E-1,-2.387399673E0
8.319067675E0,1.170145392E0,-9.522104263E-2,-2.093189240E0
8.329067675E0,6.602823734E-1,-1.684731245E-1,-2.139313698E0
8.339067675E0,3.162585497E-1,-2.701874971E-1,-2.029475212E0
8.349067675E0,7.515590191E-1,-5.342352390E-1,-1.533691406E0
8.359067675E0,1.376111984E0,-7.599812150E-1,-7.742633820E-1
8.369067675E0,1.378373742E0,-8.122731447E-1,4.293441772E-2
8.379067675E0,1.087053180E0,-5.119388103E-1,8.425188065E-1
8.389067675E0,9.832125306E-1,-2.174299955E-1,1.397191048E0
8.399067675E0,1.404756308E0,8.633553982E-2,1.534924507E0
8.409067675E0,2.018646002E0,3.409460783E-1,1.373006821E0
8.419067675E0,2.703124523E0,3.000520468E-1,1.784068108E0
8.429067675E0,3.122550964E0,2.472609282E-1,2.448970795E0
8.439067675E0,3.094739199E0,6.015237570E-1,2.983505249E0
8.449067675E0,3.195333004E0,1.006104589E0,2.836840630E0
8.459067675E0,2.605946541E0,9.318757057E-1,2.199055672E0
8.469067675E0,1.533602476E0,4.031360149E-1,2.099544525E0
8.479067675E0,6.024562120E-1,-5.756269693E-1,2.837452888E0
8.489067675E0,-2.617006302E-1,-1.444695950E0,4.160393715E0
8.499067675E0,-9.710152149E-1,-1.896929026E0,4.990634918E0
8.509067675E0,-1.308088303E0,-2.181957722E0,5.061425209E0
8.519067675E0,-6.901438236E-1,-2.508050442E0,4.483440399E0
8.529067675E0,1.735684872E-1,-2.691788673E0,3.657676697E0
8.539067675E0,3.172731400E-2,-2.595056772E0,2.900611877E0
8.549067675E0,-5.025424957E-1,-2.502580643E0,2.802982330E0
8.559067675E0,-4.666690826E-1,-2.414579153E0,2.934900284E0
8.569067675E0,-5.735321045E-1,-2.464878082E0,2.642113686E0
8.579067675E0,-1.147801161E0,-2.207046509E0,2.688315392E0
8.589067675E0,-1.255327940E0,-1.990177631E0,3.152455330E0
8.599067675E0,-9.969675541E-1,-2.138684511E0,3.668491364E0
8.609067675E0,-4.869394302E-1,-1.986034870E0,3.658289909E0
8.619067675E0,-1.307091713E-1,-1.721267462E0,2.870880127E0
8.629067675E0,2.526144981E-1,-1.347160459E0,1.740300179E0
8.639067675E0,3.729634285E-1,-8.508629203E-1,5.045404434E-1
8.649067675E0,-1.238155365E-1,-2.835666537E-1,-7.222909927E-1
8.659067675E0,-6.353032589E-1,4.972867370E-1,-2.128960609E0
8.669067675E0,-1.047063112E0,1.322824955E0,-3.228379250E0
8.679067675E0,-1.455491066E0,1.733434677E0,-3.463963509E0
8.689067675E0,-1.611418486E0,1.618587732E0,-3.010087967E0
8.699067675E0,-1.277136326E0,1.199642420E0,-1.926998138E0
8.709067675E0,-4.745054245E-1,4.595476389E-1,-9.033603668E-1
8.719067675E0,2.540752888E-1,-1.244915128E-1,-4.600048065E-1
8.729067675E0,7.588143349E-1,-3.934084177E-1,-7.493152618E-1
8.739067675E0,8.252582550E-1,-4.287174046E-1,-1.671101093E0
8.749067675E0,5.895307064E-1,1.049680710E-1,-2.674126625E0
8.759067675E0,-2.204439640E-1,5.365811586E-1,-3.125619888E0
8.769067675E0,-8.291504383E-1,9.658706188E-2,-3.065415382E0
8.779067675E0,-3.439586163E-1,-3.907806277E-1,-2.719289780E0
8.789067675E0,1.803450584E-1,-6.802420020E-1,-2.364946842E0
8.799067675E0,4.598679543E-1,-9.930288792E-1,-2.558821201E0
8.809067675E0,9.100277424E-1,-6.990220547E-1,-3.144414902E0
8.819067675E0,3.801600933E-1,-5.533505678E-1,-3.606151581E0
8.829067675E0,2.938175201E-2,-5.756733418E-1,-3.929018974E0
8.839067675E0,-7.259392738E-2,-6.276320219E-1,-3.390817642E0
8.849067675E0,-6.483864784E-2,-6.722285748E-1,-2.158653736E0
8.859067675E0,5.649425983E-1,-6.420909762E-1,-9.791250229E-1
8.869067675E0,7.910447121E-1,-2.357675880E-1,-1.356220245E-2
8.879067675E0,1.824616194E-1,1.700087190E-1,2.961158752E-2
8.889067675E0,3.553562164E-1,3.382617831E-1,-1.051012039E0
8.899067675E0,1.068789244E0,2.105638087E-1,-1.838880539E0
8.909067675E0,1.771632195E0,-1.027650535E-1,-1.072672844E0
8.919067675E0,1.947912812E0,7.802173495E-2,8.591547012E-1
8.929067675E0,8.307725787E-1,2.252619714E-1,1.825531006E0
8.939067675E0,-8.078844547E-1,-1.059524268E-1,2.321663857E0
8.949067675E0,-1.185151458E0,-1.178959981E-1,3.735477448E0
8.959067675E0,-6.138432026E-1,-2.475561649E-1,4.881701469E0
8.969067675E0,9.385805130E-1,-6.762300730E-1,4.840806007E0
8.979067675E0,3.069127321E0,-5.755600929E-1,4.765083313E0
8.989067675E0,3.693752289E0,-1.361200213E-1,3.737978935E0
8.999067675E0,1.016162872E0,-5.058900118E-1,1.452477455E0
9.009067675E0,-1.581512213E0,-6.839704514E-1,1.821346283E-1
9.019067675E0,-2.606362820E0,-5.722650290E-1,3.224353790E-1
9.029067675E0,-2.065726042E0,-9.780732989E-1,3.399435997E0
9.039067675E0,-6.065412164E-1,-1.618000031E0,7.052307129E0
9.049067675E0,1.088688970E-1,-2.246045589E0,8.660943031E0
9.059067675E0,-5.342721939E-1,-2.742845058E0,8.503330231E0
9.069067675E0,-1.693036556E0,-2.857176304E0,6.594593048E0
9.079067675E0,-3.548862934E0,-2.379209995E0,2.738540649E0
9.089067675E0,-5.916667938E0,-1.681057811E0,-1.377217293E0
9.099067675E0,-6.193402767E0,-3.841234148E-1,-4.172256470E0
9.109067675E0,-5.109663010E0,1.187076092E0,-4.522306442E0
9.119067675E0,-3.857543468E0,1.713864326E0,-3.369611740E0
9.129067675E0,-1.975779414E0,1.234474897E0,-2.217315197E0
9.139067675E0,-6.858073473E-1,1.107245207E0,-1.353838921E0
9.149067675E0,-1.169616103E0,1.010821342E0,-1.374011993E0
9.159067675E0,-2.576086521E0,1.072647810E0,-1.374168396E0
9.169067675E0,-3.018831730E0,1.275929928E0,-8.617906570E-1
9.179067675E0,-2.502401590E0,1.229635239E0,-7.373094559E-1
9.189067675E0,-1.250782371E0,8.935461044E-1,-6.152305603E-1
9.199067675E0,1.267359853E-1,5.041214824E-1,-8.107271194E-1
9.209067675E0,9.859484434E-1,4.047550857E-1,-1.183071136E0
9.219067675E0,1.143369913E0,-5.831328034E-2,-2.356328487E0
9.229067675E0,1.163704634E0,-6.745279431E-1,-3.548358917E0
9.239067675E0,1.246830702E0,-8.330762386E-1,-3.730192184E0
9.249067675E0,1.246739268E0,-7.090908289E-1,-3.160834312E0
9.259067675E0,1.122933149E0,-6.415784359E-1,-2.527955055E0
9.269067675E0,9.055625200E-1,-5.063925982E-1,-1.679353237E0
9.279067675E0,6.795821786E-1,-6.127583385E-1,-1.140501976E0
9.289067675E0,1.077494383E0,-8.478988409E-1,-1.854924202E0
9.299067675E0,1.379294157E0,-7.559073567E-1,-2.968498230E0
9.309067675E0,1.143029928E0,-1.797282696E-1,-4.230222702E0
9.319067675E0,1.827216148E-2,4.738331437E-1,-4.926293373E0
9.329067675E0,-1.033217430E0,8.964356780E-1,-5.074308395E0
9.339067675E0,-5.068018436E-1,2.071709156E0,-3.987257004E0
9.349067675E0,1.783964038E-2,2.199755669E0,-3.521286011E0
9.359067675E0,8.728175163E-1,1.744138718E0,-3.636313438E0
9.369067675E0,1.724814415E0,9.772205949E-1,-4.123673916E0
9.379067675E0,2.321366787E0,4.420030713E-1,-4.371773720E0
9.389067675E0,1.895979881E0,4.682454467E-1,-3.825118065E0
9.399067675E0,6.313920617E-1,4.440244436E-1,-2.225632668E0
9.409067675E0,3.456329703E-1,5.461909771E-1,-9.783458710E-2
9.419067675E0,2.804571092E-1,6.201266050E-1,1.750877380E0
9.429067675E0,8.769121170E-1,2.575218976E-1,3.334791183E0
9.439067675E0,2.541023254E0,-5.528527498E-2,3.667062759E0
9.449067675E0,2.359293699E0,-3.413174748E-1,2.845802307E0
9.459067675E0,1.036826372E0,-3.322657049E-1,1.984957695E0
9.469067675E0,-1.981064677E-1,6.394684315E-2,1.832745552E0
9.479067675E0,-1.269971371E0,3.901677728E-1,2.505825996E0
9.489067675E0,8.758068085E-3,8.468322754E-1,3.529532433E0
9.499067675E0,2.886949539E0,1.201436758E0,5.187468529E0
9.509067675E0,5.258745670E0,1.450512886E0,6.883036613E0
9.519067675E0,4.985499382E0,1.139876366E0,6.599809647E0
9.529067675E0,2.547777176E0,5.142252445E-1,4.623596191E0
9.539067675E0,-2.076754808E0,-8.831217885E-2,2.697268486E0
9.549067675E0,-6.071836948E0,1.028816402E-1,1.874261856E0
9.559067675E0,-7.088317394E0,-8.218702674E-2,2.605263710E0
9.569067675E0,-5.723988056E0,-7.718626261E-1,4.812335968E0
9.579067675E0,-3.838293552E0,-1.281386137E0,7.429650307E0
9.589067675E0,-1.419952989E0,-1.473098278E0,7.979234695E0
9.599067675E0,-1.509271860E-1,-1.456414580E0,6.557354927E0
9.609067675E0,-2.421951294E-2,-7.722214460E-1,4.233950615E0
9.619067675E0,-7.661037445E-1,-2.704609334E-1,1.304737091E0
9.629067675E0,-1.090622306E0,-2.917532027E-1,-8.118972778E-1
9.639067675E0,-7.779290676E-1,-6.490771770E-1,-8.224744797E-1
9.649067675E0,2.120854855E-1,-1.552478194E0,1.114645004E-1
9.659067675E0,1.136073589E0,-2.390303612E0,4.774236679E-1
9.669067675E0,1.164860487E0,-2.696047544E0,3.826894760E-1
9.679067675E0,9.771597385E-2,-2.686849594E0,-2.938270569E-3
9.689067675E0,-7.948297262E-1,-2.429273129E0,-4.323062897E-1
9.699067675E0,-9.492505789E-1,-2.302044153E0,-1.104954720E0
9.709067675E0,-3.921319246E-1,-2.393578291E0,-1.751465797E0
9.719067675E0,2.509204149E-1,-2.626015425E0,-2.395028114E0
9.729067675E0,6.996320486E-1,-2.562004089E0,-3.103186607E0
9.739067675E0,8.387546539E-1,-1.975930452E0,-3.792057514E0
9.749067675E0,7.509704828E-1,-8.444286585E-1,-4.077554703E0
9.759067675E0,6.341186762E-1,3.473248184E-1,-3.541768074E0
9.769067675E0,2.904359102E-1,1.078195214E0,-2.333725929E0
9.779067675E0,-4.173591137E-1,1.110535145E0,-1.762489319E0
9.789067675E0,-1.009908915E0,1.033185840E0,-1.388734818E0
9.799067675E0,-1.284052134E0,9.967868328E-1,-7.647752762E-1
9.809067675E0,-1.584352732E0,9.534458518E-1,-8.327646255E-1
9.819067675E0,-1.523465276E0,9.475860000E-1,-1.461867332E0
9.829067675E0,-9.496870041E-1,1.073001266E0,-2.448901176E0
9.839067675E0,-4.386991262E-1,9.751121998E-1,-3.734189987E0
9.849067675E0,2.292678356E-1,7.299692631E-1,-4.765995026E0
9.859067675E0,1.061613560E0,9.043300152E-1,-5.096665859E0
9.869067675E0,1.163630366E0,1.209398985E0,-5.309723854E0
9.879067675E0,1.283556223E0,9.856930971E-1,-6.007642269E0
9.889067675E0,1.952704430E0,7.368052006E-1,-6.527274132E0
9.899067675E0,2.065100431E0,8.159211874E-1,-6.208217144E0
9.909067675E0,1.915190935E0,1.019669414E0,-5.582010746E0
9.919067675E0,2.089631081E0,1.271104693E0,-5.300997734E0
9.929067675E0,2.267633915E0,1.345058799E0,-4.809179306E0
9.939067675E0,2.996759653E0,1.958643198E0,-3.821341515E0
9.949067675E0,3.713038445E0,3.146817684E0,-3.146557808E0
9.959067675E0,3.391753674E0,3.988704205E0,-3.216401100E0
9.969067675E0,1.955443621E0,4.334633827E0,-3.744343758E0
9.979067675E0,-1.517065048E0,3.867876053E0,-3.825186729E0
9.989067675E0,-4.641432285E0,3.047147512E0,-3.056977749E0
9.999067675E0,-7.592132568E0,2.350390196E0,-1.246949196E0
1.000906768E1,-8.728683472E0,9.271482825E-1,1.161019325E0
1.001906768E1,-6.070247173E0,-7.414714694E-1,3.595893860E0
1.002906768E1,-1.462669373E0,-9.343066812E-1,6.157031059E0
1.003906768E1,2.382831335E0,-2.442517877E-1,6.735537529E0
1.004906768E1,4.580045700E0,1.032131314E0,5.888799667E0
1.005906768E1,4.413827419E0,2.364040613E0,4.818978310E0
1.006906768E1,9.799513817E-1,2.372373104E0,2.415438652E0
1.007906768E1,-4.665796280E0,1.044888258E0,-6.712846756E-1
1.008906768E1,-8.254117966E0,-6.700750589E-1,-1.257443428E0
1.009906768E1,-8.091052055E0,-1.358831882E0,2.728574753E0
1.010906768E1,-6.329930305E0,-2.649641037E0,7.972276688E0
1.011906768E1,-3.605581760E0,-4.180329800E0,1.142907906E1
1.012906768E1,-2.108779907E0,-5.503370762E0,1.156335449E1
1.013906768E1,-1.654251099E0,-6.695552826E0,8.318357468E0
1.014906768E1,-1.402850628E0,-6.322705269E0,4.867990494E0
1.015906768E1,-1.412269354E0,-5.222688675E0,1.737401009E0
1.016906768E1,-1.681198359E0,-3.595870018E0,-5.252685547E-1
1.017906768E1,-1.574687004E0,-1.614032388E0,-1.133412361E0
1.018906768E1,-6.415936947E-1,-7.884374857E-1,-6.436471939E-1
1.019906768E1,6.549377441E-1,-7.236487865E-1,7.449998856E-1
1.020906768E1,2.271214247E0,-5.649791956E-1,2.150815964E0
1.021906768E1,3.246634960E0,-1.595755368E-1,2.568209648E0
1.022906768E1,3.643333197E0,-9.680429101E-2,9.808406830E-1
1.023906768E1,3.647688866E0,-8.055537939E-2,-1.468729019E0
1.024906768E1,2.146251678E0,-1.780858040E-1,-3.267444611E0
1.025906768E1,6.590402126E-1,-5.920552015E-1,-4.023776531E0
1.026906768E1,-3.466725349E-2,-7.642416954E-1,-3.482321739E0
1.027906768E1,9.961175919E-2,-7.132413983E-1,-2.275950432E0
1.028906768E1,1.296806097E0,-1.941853464E-1,-1.549135208E0
1.029906768E1,1.936392665E0,3.276079893E-2,-2.196866989E0
1.030906768E1,1.866578579E0,-2.074039280E-1,-3.754532814E0
1.031906768E1,1.068450809E0,-3.566577137E-1,-4.454861641E0
1.032906768E1,2.865455151E-1,-4.054808617E-1,-4.332507133E0
1.033906768E1,1.038920879E-1,-3.393155932E-1,-3.902571201E0
1.034906768E1,4.554662704E-1,-7.566863298E-2,-3.369741440E0
1.035906768E1,1.180444241E0,5.857473016E-1,-3.077130318E0
1.036906768E1,1.619860172E0,9.851959348E-1,-3.579020023E0
1.037906768E1,1.582414508E0,8.362794518E-1,-4.506856441E0
1.038906768E1,1.108290315E0,3.832468390E-1,-4.929164886E0
1.039906768E1,3.770887852E-1,4.352732897E-1,-5.010669708E0
1.040906768E1,-4.205312729E-1,8.037850857E-1,-5.167252541E0
1.041906768E1,-8.021199703E-1,1.038271904E0,-5.516893387E0
1.042906768E1,7.591485977E-3,2.175529957E0,-4.498999596E0
1.043906768E1,7.235939503E-1,2.842988253E0,-3.431900501E0
1.044906768E1,1.206804276E0,2.343664885E0,-3.040398598E0
1.045906768E1,1.137137294E0,1.402701735E0,-2.932182312E0
1.046906768E1,2.368447781E-1,6.815317273E-1,-3.082960606E0
1.047906768E1,-1.462437391E0,2.468689382E-1,-3.173101425E0
1.048906768E1,-2.550589800E0,2.520720363E-1,-1.746132851E0
1.049906768E1,-2.229029655E0,6.891991496E-1,1.294582367E0
1.050906768E1,-2.709081173E-1,7.908154726E-1,4.273011208E0
1.051906768E1,2.418410063E0,1.005403519E0,6.540596962E0
1.052906768E1,3.743185520E0,1.026473403E0,6.961764336E0
1.053906768E1,4.325203896E0,3.856314719E-1,5.620448112E0
1.054906768E1,3.469895363E0,-1.153800368E0,3.530019760E0
1.055906768E1,1.823064685E0,-2.111824512E0,2.760210037E0
1.056906768E1,5.867018700E-1,-9.005510211E-1,4.817782402E0
1.057906768E1,4.528403282E-2,1.441885233E0,7.904161453E0
1.058906768E1,-3.184781075E-1,2.883100033E0,9.683347702E0
1.059906768E1,-1.342898846E0,2.404011726E0,9.164700508E0
1.060906768E1,-2.984113216E0,7.162523866E-1,7.234917641E0
1.061906768E1,-4.530545235E0,-9.688715339E-1,4.864068031E0
1.062906768E1,-5.621150494E0,-2.133107185E0,3.916848183E0
1.063906768E1,-5.980154991E0,-2.532916546E0,4.802339554E0
1.064906768E1,-4.753816128E0,-2.356954575E0,5.866132736E0
1.065906768E1,-3.035075188E0,-2.107526302E0,6.167676926E0
1.066906768E1,-1.545847654E0,-1.819156170E0,5.596398354E0
1.067906768E1,-2.724435329E-1,-1.699389696E0,3.713664055E0
1.068906768E1,7.394006252E-1,-1.569017768E0,7.396306992E-1
1.069906768E1,6.401286125E-1,-1.572099209E0,-2.828651428E0
1.070906768E1,1.407110691E-1,-1.386842489E0,-4.946475029E0
1.071906768E1,8.929443359E-2,-1.356926680E0,-4.794821739E0
1.072906768E1,8.130471706E-1,-1.482398748E0,-3.226550102E0
1.073906768E1,9.104154110E-1,-1.708213329E0,-1.649479866E0
1.074906768E1,3.171041012E-1,-1.356010675E0,-5.562496185E-1
1.075906768E1,-9.197716713E-1,-3.950661421E-1,-6.891498566E-1
1.076906768E1,-1.820894957E0,6.797324419E-1,-1.665090561E0
1.077906768E1,-2.003287554E0,1.165041685E0,-3.227103233E0
1.078906768E1,-1.465516329E0,1.159746408E0,-4.466673851E0
1.079906768E1,-7.618579865E-1,1.139943123E0,-4.410343647E0
1.080906768E1,-2.480893135E-1,8.548489809E-1,-3.738456249E0
1.081906768E1,2.177925110E-1,1.024087429E0,-1.766587257E0
1.082906768E1,1.386622429E0,1.282042265E0,3.451538086E-2
1.083906768E1,2.568807125E0,1.160572052E0,1.468337059E0
1.084906768E1,3.201485634E0,5.034262538E-1,2.315279007E0
1.085906768E1,3.427119017E0,-4.720607698E-1,2.343047142E0
1.086906768E1,2.406662703E0,-1.308251262E0,1.255065918E0
1.087906768E1,9.728169441E-2,-2.035544157E0,-3.637838364E-1
1.088906768E1,-2.724162102E0,-2.892972469E0,-2.294178009E0
1.089906768E1,-5.126239300E0,-4.468475342E0,-4.124555588E0
1.090906768E1,-3.733031034E0,-5.561043739E0,-5.598031044E0
1.091906768E1,1.189517498E0,-4.153586864E0,-6.072567940E0
1.092906768E1,4.840268135E0,-2.693145275E0,-6.622004509E0
1.093906768E1,6.647138596E0,-2.629768848E0,-8.615951538E0
1.094906768E1,7.097388268E0,-1.395950794E0,-1.044527245E1
1.095906768E1,6.735960484E0,3.641317487E-1,-1.078449059E1
1.096906768E1,5.439630508E0,1.317773223E0,-1.049609756E1
1.097906768E1,5.385983467E0,2.177140236E0,-1.055448914E1
1.098906768E1,5.546109200E0,3.398885489E0,-9.776016235E0
1.099906768E1,4.598896980E0,4.787823677E0,-7.391201496E0
1.100906768E1,3.160138130E0,4.951889992E0,-5.088886738E0
1.101906768E1,1.008373976E0,3.808076382E0,-3.760299683E0
1.102906768E1,-1.187969685E0,2.525915861E0,-2.030392647E0
1.103906768E1,-2.876975060E0,1.596892834E0,7.086992264E-1
1.104906768E1,-3.549715519E0,1.651902437E0,4.264278412E0
1.105906768E1,-4.772179604E0,1.806728601E0,6.054589272E0
1.106906768E1,-5.428929329E0,1.602223158E0,4.535845757E0
1.107906768E1,-5.344582081E0,2.441423416E0,3.291326523E0
1.108906768E1,-4.526587009E0,4.138022423E0,3.244277000E0
1.109906768E1,-2.322130203E0,5.877572060E0,3.577599049E0
1.110906768E1,-5.987162590E-1,6.840735912E0,4.165077209E0
1.111906768E1,-1.779544830E0,4.465656281E0,2.644556522E0
1.112906768E1,-5.137734890E0,5.109407306E-1,-1.852431297E-1
1.113906768E1,-9.016349792E0,-1.593591809E0,-7.889494896E-1
1.114906768E1,-1.177974510E1,-1.811956286E0,1.976873875E0
1.115906768E1,-1.216375160E1,-2.352472305E0,6.535789013E0
1.116906768E1,-9.345891953E0,-3.764919758E0,1.030693722E1
1.117906768E1,-4.979288578E0,-6.004819870E0,1.093149853E1
1.118906768E1,-1.627931118E0,-7.982642651E0,8.275875092E0
1.119906768E1,5.614852905E-2,-9.013654709E0,4.317848682E0
1.120906768E1,5.833892822E-1,-8.441826820E0,2.066617489E0
1.121906768E1,-2.467722893E-1,-7.592269897E0,4.656677246E-1
1.122906768E1,-6.571478844E-1,-6.667535782E0,-4.057512283E-1
1.123906768E1,-2.848763466E-1,-5.965154648E0,6.059303284E-1
1.124906768E1,5.879359245E-1,-5.176979065E0,3.167970657E0
1.125906768E1,1.460605145E0,-4.479945660E0,5.633734703E0
1.126906768E1,2.048192978E0,-3.847365618E0,7.130437851E0
1.127906768E1,2.591621876E0,-3.805453300E0,6.907442093E0
1.128906768E1,3.207414389E0,-4.314352989E0,4.894225597E0
1.129906768E1,3.245800018E0,-3.750428677E0,2.804969311E0
1.130906768E1,2.360809326E0,-2.505723953E0,1.459206104E0
1.131906768E1,1.053806305E0,-1.357733607E0,5.550179482E-1
1.132906768E1,2.204084396E-2,-3.778228760E-1,6.363725662E-2
1.133906768E1,-5.131192207E-1,2.743641138E-1,-1.019177437E-1
1.134906768E1,-3.514933586E-1,4.216395617E-1,-3.267040253E-1
1.135906768E1,1.504793167E-1,3.680547476E-1,-1.281711578E0
1.136906768E1,2.227797508E-1,7.135334015E-1,-2.665651321E0
1.137906768E1,-1.396679878E-1,1.471877337E0,-4.034532547E0
1.138906768E1,-7.127642632E-1,2.168508530E0,-5.052860260E0
1.139906768E1,-1.199161530E0,2.703351736E0,-5.584137440E0
1.140906768E1,-1.252526760E0,3.313127995E0,-5.483165741E0
1.141906768E1,-8.007922173E-1,3.493975639E0,-5.074130535E0
1.142906768E1,-1.158542633E-1,3.189137459E0,-5.160261154E0
1.143906768E1,4.721226692E-1,2.912177801E0,-5.410550594E0
1.144906768E1,5.519704819E-1,2.733642817E0,-5.673730850E0
1.145906768E1,2.641520500E-1,2.628318310E0,-6.137225151E0
1.146906768E1,-4.745912552E-2,2.515973806E0,-6.357347012E0
1.147906768E1,1.930704117E-1,2.189117670E0,-5.700170040E0
1.148906768E1,6.432762146E-1,1.404663563E0,-4.061689854E0
1.149906768E1,8.506603241E-1,7.291790843E-1,-1.978524208E0
1.150906768E1,4.615569115E-1,3.889767528E-1,2.990818024E-1
1.151906768E1,3.657169342E-1,8.725526929E-1,1.767144203E0
1.152906768E1,1.421680450E-1,1.183410525E0,1.316032410E0
1.153906768E1,-9.239816666E-2,2.943532467E-1,-2.295475006E-1
1.154906768E1,-1.934652328E-1,-4.142602682E-1,-8.898086548E-1
1.155906718E1,-8.743185997E-1,-1.150204778E0,-8.449840546E-2
1.156906718E1,-6.055278778E-1,-2.407293797E0,1.880993843E0
1.157906718E1,1.153428555E0,-3.254113197E0,4.311696053E0
1.158906718E1,3.204778671E0,-3.610200644E0,6.137782097E0
1.159906718E1,4.886461735E0,-2.499294758E0,6.651763916E0
1.160906718E1,4.132174492E0,-6.656218767E-1,5.224380493E0
1.161906718E1,1.149083376E0,5.557858944E-2,2.454585075E0
1.162906718E1,-2.403755665E0,-5.015206337E-1,-7.123947144E-4
1.163906718E1,-6.845025063E0,-1.307159424E0,-6.317453384E-1
1.164906718E1,-9.749127388E0,-1.900923014E0,1.149613380E0
1.165906718E1,-9.471029282E0,-1.217742801E0,6.008045197E0
1.166906718E1,-4.121041775E0,-1.997557402E0,9.209856987E0
1.167906718E1,1.534674883E0,-3.119699955E0,9.469212532E0
1.168906718E1,3.155514956E0,-2.620337486E0,9.199974060E0
1.169906718E1,5.769109726E-2,-2.044391870E0,9.167821884E0
1.170906718E1,-3.690637589E0,-1.950599313E0,8.170921326E0
1.171906718E1,-5.087101936E0,-1.602443099E0,3.487697601E0
1.172906718E1,-6.256853104E0,-9.183262587E-1,-1.919068336E0
1.173906718E1,-6.947371960E0,1.016623616E0,-5.730732441E0
1.174906718E1,-6.241469383E0,3.114470482E0,-7.049993038E0
1.175906718E1,-3.473862171E0,3.163522482E0,-7.724366188E0
1.176906718E1,4.071159363E-1,1.290881634E0,-8.187415123E0
1.177906718E1,3.906830072E0,-4.527445436E-1,-6.926686764E0
1.178906718E1,6.277992249E0,-8.798395991E-1,-6.678400993E0
1.179906718E1,6.202983379E0,-1.506283283E0,-6.745358467E0
1.180906718E1,4.705588341E0,-2.106484413E0,-6.651258469E0
1.181906718E1,3.032907009E0,-1.448224545E0,-6.319189548E0
1.182906718E1,2.321296930E0,-1.339999437E0,-5.078207493E0
1.183906718E1,1.399686337E0,-1.159345150E0,-1.682677269E0
1.184906718E1,9.411082268E-1,-4.530505538E-1,2.277487278E0
1.185906718E1,2.189342260E0,-1.033946872E-1,4.089108467E0
1.186906718E1,4.180912018E0,-1.358287692E0,3.010715961E0
1.187906718E1,5.239068508E0,-2.256443024E0,1.113837242E0
1.188906718E1,4.976805210E0,-1.969534993E0,-7.024841309E-1
1.189906718E1,4.187260628E0,-1.501955032E0,-2.451836586E0
1.190906718E1,3.298549652E0,-1.072812080E0,-3.443513393E0
1.191906718E1,2.144731045E0,-8.327748775E-1,-2.977838039E0
1.192906718E1,1.471287251E0,-1.589951992E0,-2.134617329E0
1.193906718E1,3.288511992E0,-4.182425737E-1,-6.771955490E-1
1.194906718E1,1.244650841E0,2.183423340E-1,-1.091038227E0
1.195906718E1,3.029110909E0,2.067760706E0,-9.516754150E-1
1.196906718E1,4.670205116E-1,1.931612611E0,1.045894146E0
1.197906718E1,-3.182003498E0,6.882369518E-1,1.777524471E0
1.198906718E1,-1.852493763E0,9.551066756E-1,2.355194092E0
1.199906718E1,-6.472187042E-1,-8.273464441E-2,2.997720718E0
1.200906718E1,-3.956432343E-1,-4.574466646E-1,2.527332783E0
1.201906718E1,-1.479421139E0,2.982285619E-1,7.935280800E-1
1.202906718E1,-2.665034771E0,1.856077552E0,4.429388046E-2
1.203906718E1,-2.888202190E0,3.170125723E0,5.444340706E-1
1.204906718E1,-1.873744488E0,3.386876583E0,9.943351746E-1
1.205906718E1,1.035037041E-1,2.985985756E0,1.011921406E0
1.206906718E1,1.741466999E0,2.713917255E0,9.850182533E-1
1.207906718E1,2.015655994E0,3.219709873E0,1.013660431E0
1.208906718E1,1.101335049E0,3.519882679E0,4.465198517E-2
1.209906718E1,-6.568303108E-1,2.804422855E0,-6.970052719E-1
1.210906718E1,-2.894435883E0,1.977254033E0,-9.625291824E-1
1.211906718E1,-3.805214405E0,1.962857366E0,-1.356438637E0
1.212906718E1,-2.317740440E0,2.413831711E0,-1.679621696E0
1.213906718E1,-6.337828636E-1,3.664791584E0,-8.175368309E-1
1.214906718E1,-1.628870010E0,3.502197266E0,-1.221834183E0
1.215906718E1,-2.963193893E0,1.957325220E0,-2.575659752E0
1.216906718E1,-2.471208096E0,1.114652991E0,-3.219499111E0
1.217906718E1,-1.121898174E0,3.510373831E-1,-3.592447281E0
1.218906718E1,-4.118995667E-1,-6.172901392E-1,-3.091280937E0
1.219906718E1,-5.641617775E-1,-1.270379066E0,-1.801177979E0
1.220906718E1,-1.234498978E0,-1.645322919E0,-8.599243164E-1
1.221906718E1,-2.480970860E0,-1.639906168E0,-7.181563377E-1
1.222906718E1,-2.920204639E0,-7.813657522E-1,-1.365649223E0
1.223906718E1,-3.201165199E0,-5.827557445E-1,-2.921835423E0
1.224906718E1,-3.277435303E0,-1.631201029E0,-3.716737747E0
1.225906718E1,-2.689623356E0,-2.821970701E0,-3.009559631E0
1.226906718E1,-1.354378700E0,-4.058234215E0,-1.980919838E0
1.227906718E1,-3.823184967E-2,-5.219118595E0,-1.856353283E0
1.228906718E1,1.558100700E0,-5.621700764E0,-2.236938477E0
1.229906718E1,3.434817314E0,-4.937538624E0,-2.383768559E0
1.230906718E1,4.285000801E0,-3.794598579E0,-1.884312630E0
1.231906718E1,3.567302465E0,-3.172604799E0,-3.548550606E-1
1.232906718E1,2.515002728E0,-2.811104536E0,2.186901569E0
1.233906718E1,1.774406433E0,-2.485926867E0,4.852196693E0
1.234906718E1,2.029096127E0,-2.139147282E0,6.454356670E0
1.235906718E1,2.932003021E0,-2.185256958E0,6.078940868E0
1.236906718E1,2.965125322E0,-2.735779047E0,3.177029610E0
1.237906718E1,2.410793304E0,-2.587514877E0,-3.132300377E-1
1.238906718E1,2.058561325E0,-1.733996987E0,-2.108142376E0
1.239906718E1,1.896554470E0,-9.170063138E-1,-1.948364258E0
1.240906718E1,2.172324896E0,-1.466293335E-1,-3.295192719E-1
1.241906718E1,2.672826767E0,3.528659344E-1,1.389869213E0
1.242906718E1,3.243235350E0,-1.410686970E-2,1.608039379E0
1.243906718E1,3.822957516E0,-7.357618809E-1,5.573282242E-1
1.244906718E1,3.740604639E0,-1.107445717E0,-1.171445370E0
1.245906718E1,2.933621883E0,-7.323937416E-1,-2.478031158E0
1.246906718E1,1.695003033E0,4.897701740E-2,-3.377390862E0
1.247906718E1,2.092456818E-1,9.641926289E-1,-3.308516026E0
1.248906718E1,-8.868799210E-1,1.589418411E0,-2.092905521E0
1.249906718E1,-9.712076187E-1,1.803456068E0,-6.480703354E-1
1.250906718E1,-5.085358620E-1,1.403892040E0,5.626387596E-1
1.251906718E1,6.986007690E-1,5.264382362E-1,-5.727739334E-1
1.252906718E1,1.220385551E0,2.589257956E-1,-2.873420715E0
1.253906718E1,1.161488533E0,8.996313214E-1,-4.324143887E0
1.254906718E1,-3.522253036E-1,2.507334948E0,-3.015587330E0
1.255906718E1,-2.181977749E0,3.359622002E0,-1.626044273E0
1.256906718E1,-2.465324879E0,3.679823875E0,8.032846451E-1
1.257906718E1,-2.261569023E0,2.881677628E0,3.374410152E0
1.258906718E1,-1.826245308E0,1.574132323E0,4.195679188E0
1.259906718E1,-1.682447910E0,1.898007393E-1,4.323485374E0
1.260906718E1,-1.755653381E0,-6.292886734E-1,4.538666725E0
1.261906718E1,-1.942245960E0,-7.254092693E-1,4.702374935E0
1.262906718E1,-1.386668682E0,-9.002344608E-1,4.661834240E0
1.263906718E1,-8.182735443E-1,-9.094297886E-1,5.141736031E0
1.264906718E1,-1.465322971E0,-1.765951395E0,5.940449715E0
1.265906718E1,-3.291778564E-1,-8.005409241E-1,7.012119293E0
1.266906718E1,-1.488747597E-1,3.707456589E-2,6.879415512E0
1.267906718E1,-1.060313225E0,-1.382210255E-1,5.025494576E0
1.268906718E1,-2.071645737E0,-1.420300961E0,2.954504013E0
1.269906718E1,-2.784120083E0,-2.346406221E0,2.735297203E0
1.270906718E1,-3.140857458E0,-2.657224894E0,4.007674217E0
1.271906718E1,-3.091645479E0,-2.458465576E0,6.076760292E0
1.272906718E1,-2.694228172E0,-2.213011980E0,7.978044510E0
1.273906718E1,-1.176249266E0,-2.470151424E0,8.311534882E0
1.274906718E1,7.487311363E-1,-2.995780945E0,6.929156303E0
1.275906718E1,1.550246954E0,-3.324020386E0,4.587375641E0
1.276906718E1,1.269779682E0,-3.522410393E0,1.952907562E0
1.277906718E1,1.062794685E0,-2.993318081E0,3.831100464E-1
1.278906718E1,6.432116032E-1,-2.641239643E0,2.134418488E-2
1.279906718E1,-3.987350464E-1,-2.418957710E0,3.485097885E-1
1.280906718E1,-4.505438805E-1,-1.963566303E0,1.345092773E0
1.281906718E1,-6.573176384E-1,-2.011124849E0,1.318604469E0
1.282906718E1,-6.277086735E-1,-1.753590822E0,1.509799957E-1
1.283906718E1,-7.501337528E-1,-1.674711466E0,-1.552570820E0
1.284906718E1,-9.826331139E-1,-1.874616385E0,-3.545197487E0
1.285906718E1,-7.273669243E-1,-1.160969973E0,-4.396822929E0
1.286906718E1,-5.777931213E-1,-2.786764503E-1,-4.103682518E0
1.287906718E1,-7.322316170E-1,4.402914643E-1,-3.620101452E0
1.288906718E1,-7.844264507E-1,9.284263253E-1,-3.271877289E0
1.289906718E1,-1.239288568E0,1.130255461E0,-3.244568825E0
1.290906718E1,-1.550980330E0,1.375054359E0,-3.407248497E0
1.291906718E1,-1.819605589E0,1.603792906E0,-3.462546349E0
1.292906718E1,-1.920306444E0,1.900781155E0,-3.656215668E0
1.293906718E1,-2.066869259E0,2.024655104E0,-4.007023335E0
1.294906718E1,-2.258786201E0,2.015259504E0,-4.283343315E0
1.295906718E1,-1.968725562E0,2.093861818E0,-4.367077827E0
1.296906718E1,-1.459138155E0,2.303392887E0,-4.220306396E0
1.297906718E1,-1.401350617E0,2.368953466E0,-3.986623764E0
1.298906718E1,-1.709358931E0,2.373510122E0,-3.427035332E0
1.299906718E1,-2.025034904E0,2.202931643E0,-2.882030487E0
1.300906718E1,-1.946693540E0,1.989381075E0,-2.401220322E0
1.301906718E1,-1.536501765E0,1.730931163E0,-2.163459778E0
1.302906718E1,-1.038433671E0,1.368847013E0,-2.679024696E0
1.303906718E1,-9.144335985E-1,1.168996334E0,-3.568282604E0
1.304906718E1,-1.846215010E0,1.049807668E0,-4.103174210E0
1.305906718E1,-2.367299080E0,9.683875442E-1,-4.102778435E0
1.306906718E1,-2.174376726E0,1.397277117E0,-2.998759270E0
1.307906718E1,-2.160860300E0,1.584798336E0,-1.084599495E0
1.308906718E1,-2.060925484E0,1.523592234E0,3.108987808E-1
1.309906718E1,-1.627427816E0,1.259739995E0,3.406429291E-2
1.310906718E1,-1.213416934E0,7.563688755E-1,-1.271791458E0
1.311906718E1,-9.503078461E-1,5.201188326E-1,-2.098193169E0
1.312906718E1,-9.433662295E-1,1.647539139E-1,-2.604283333E0
1.313906718E1,-1.410753727E0,7.795870304E-2,-1.944831848E0
1.314906718E1,-2.292388439E0,5.465948582E-2,-1.552019119E-1
1.315906718E1,-2.597598791E0,-3.840757608E-1,1.216890335E0
1.316906718E1,-2.873037338E0,-1.147310138E0,2.615681648E0
1.317906718E1,-2.160642624E0,-1.804104924E0,3.520662308E0
1.318906718E1,-5.797803402E-1,-1.742316365E0,3.326249123E0
1.319906718E1,2.871950269E-1,-1.090431094E0,2.406504631E0
1.320906718E1,-2.839005589E-1,-5.189280510E-1,1.089105606E0
1.321906718E1,-2.129924536E0,-1.785080433E-1,-4.140081406E-1
1.322906718E1,-3.955124378E0,-2.634149790E-1,-1.017303467E0
1.323906718E1,-4.012668133E0,-8.455767632E-1,3.435373306E-1
1.324906718E1,-2.651672363E0,-1.528025150E0,2.674567223E0
1.325906718E1,-1.500931621E0,-2.256017208E0,4.396401405E0
1.326906718E1,1.979978085E-1,-2.998692274E0,4.846359253E0
1.327906718E1,1.900230885E0,-3.582892895E0,3.966502190E0
1.328906718E1,2.388345003E0,-3.601240396E0,2.532868385E0
1.329906718E1,2.159594774E0,-3.486042023E0,1.799843788E0
1.330906718E1,1.397307396E0,-3.440634012E0,2.046069145E0
1.331906718E1,1.019642353E-1,-3.401332378E0,3.140284538E0
1.332906718E1,-6.820632219E-1,-3.594228506E0,4.669323921E0
1.333906718E1,7.636034489E-1,-3.857685804E0,5.463351250E0
1.334906718E1,2.428069592E0,-3.920904875E0,4.749451637E0
1.335906718E1,2.984860420E0,-3.650794983E0,3.341172218E0
1.336906718E1,2.696921110E0,-2.709001780E0,1.858681679E0
1.337906718E1,3.320609093E0,-1.580476284E0,8.234872818E-1
1.338906718E1,2.676383018E0,-7.510823607E-1,7.277860641E-1
1.339906718E1,1.674390793E0,-5.271868706E-1,1.037886620E0
1.340906718E1,1.297072053E0,-2.515345216E-1,9.173030853E-1
1.341906718E1,1.886137247E0,-5.482840538E-2,6.995277405E-1
1.342906718E1,1.910308123E0,4.593673348E-1,-2.514381409E-1
1.343906718E1,1.368282437E0,8.271908760E-1,-9.516296387E-1
1.344906718E1,8.513864875E-1,1.234969854E0,-1.514456749E0
1.345906718E1,3.914050460E-1,1.238313913E0,-1.991990089E0
1.346906718E1,9.702587128E-2,9.820099473E-1,-2.086402893E0
1.347906718E1,1.193043590E-1,7.627324462E-1,-2.135828972E0
1.348906718E1,4.507999718E-1,5.968003273E-1,-2.259510994E0
1.349906718E1,9.687092900E-1,8.071204424E-1,-2.582445621E0
1.350906718E1,1.123425961E0,1.254248619E0,-3.187150002E0
1.351906718E1,1.041259766E0,1.601574779E0,-3.188588142E0
1.352906718E1,1.355692863E0,1.571182132E0,-2.311787605E0
1.353906718E1,1.492183208E0,1.037729263E0,-2.064668655E0
1.354906718E1,1.202421308E0,3.778611422E-1,-1.932660103E0
1.355906718E1,4.524422288E-1,6.078106165E-1,-1.299119949E0
1.356906718E1,-5.776543617E-1,1.065979123E0,-8.817348480E-1
1.357906718E1,-1.523478031E0,8.241859674E-1,-1.184866905E0
1.358906718E1,-1.180561900E0,-2.935147285E-2,-1.545196533E0
1.359906718E1,-1.566599309E-2,-4.987283945E-1,-1.593102455E0
1.360906718E1,5.303825736E-1,-3.698072433E-1,-1.582940102E0
1.361906718E1,1.395763308E-1,1.127943993E-1,-2.294466019E0
1.362906718E1,-6.431635618E-1,7.809900045E-1,-3.017499924E0
1.363906718E1,-1.313042879E0,9.499250650E-1,-3.062781811E0
1.364906718E1,-1.610549092E0,7.972520590E-1,-2.986414909E0
1.365906718E1,-1.394483685E0,8.566502333E-1,-2.384952545E0
1.366906718E1,-1.001746297E0,1.028608441E0,-1.506391525E0
1.367906718E1,-4.785888791E-1,5.930019617E-1,-9.933080673E-1
1.368906718E1,1.564893574E-1,2.381356955E-1,-1.076875687E0
1.369906718E1,9.915603399E-1,4.701161385E-2,-8.675575256E-1
1.370906718E1,1.380507231E0,-1.452993155E-1,3.290004730E-1
1.371906718E1,1.494902492E0,-3.287099600E-1,1.529973030E0
1.372906718E1,1.501180887E0,-4.270309806E-1,1.782907486E0
1.373906718E1,1.380809784E0,-5.663895607E-2,1.617659569E0
1.374906718E1,7.992040515E-1,3.966691494E-1,1.172066689E0
1.375906718E1,-1.810983121E-1,-1.825046539E-2,7.617483139E-1
1.376906718E1,-3.901937902E-1,-9.155142903E-1,8.014097214E-1
1.377906718E1,-8.114738017E-2,-1.399322271E0,1.474183083E0
1.378906718E1,5.908115953E-2,-1.772981763E0,2.395017624E0
1.379906718E1,1.110909805E-1,-1.841739893E0,3.086812973E0
1.380906718E1,3.281425834E-1,-1.792760611E0,3.522082329E0
1.381906718E1,1.113689303E0,-1.655454278E0,4.217962265E0
1.382906718E1,1.903077841E0,-1.263451815E0,4.442815781E0
1.383906718E1,2.067972422E0,-1.318645120E0,3.471634865E0
1.384906718E1,1.850777388E0,-1.134062529E0,1.647727013E0
1.385906718E1,1.470535994E0,-6.219768524E-1,4.042339325E-1
1.386906718E1,8.189088702E-1,-7.574325800E-2,7.614707947E-2
1.387906718E1,-3.758836687E-1,5.325036049E-1,5.069265366E-1
1.388906718E1,-1.376993537E0,9.508730173E-1,6.538991928E-1
1.389906718E1,-1.436505318E0,1.116641045E0,5.093069077E-1
1.390906718E1,-6.955085993E-1,7.644817829E-1,4.116134644E-1
1.391906718E1,-2.866434157E-1,2.384785116E-1,3.274011612E-1
1.392906718E1,1.164850295E-1,-5.197293758E-1,1.478424072E-1
1.393906718E1,4.623704851E-1,-8.738483191E-1,4.941511154E-1
1.394906718E1,1.955241859E-1,-7.957363129E-1,1.428979874E0
1.395906718E1,-3.512070477E-1,-7.974951267E-1,2.054895401E0
1.396906718E1,-4.033033252E-1,-7.043475509E-1,2.015789032E0
1.397906718E1,-2.520066500E-2,-5.397640467E-1,1.530274391E0
1.398906718E1,1.070327163E-1,-2.789458334E-1,9.245710373E-1
1.399906718E1,-3.654161990E-1,1.584920883E-1,2.886962891E-1
1.400906718E1,-1.155976892E0,6.901049614E-1,-2.424707413E-1
1.401906718E1,-1.812328815E0,1.251961231E0,-4.626226425E-1
1.402906718E1,-2.112047434E0,1.565457225E0,-6.234140396E-1
1.403906718E1,-1.865483046E0,1.576709509E0,-1.033935547E0
1.404906718E1,-1.595644474E0,1.694250584E0,-1.362182617E0
1.405906718E1,-1.339528561E0,1.585248828E0,-1.737347126E0
1.406906718E1,-1.011940360E0,1.394459367E0,-1.958196163E0
1.407906718E1,-6.972614527E-1,1.304194689E0,-1.845156193E0
1.408906718E1,-2.848731279E-1,1.016943097E0,-1.441188812E0
1.409906718E1,-1.316825449E-1,8.122820854E-1,-1.353137016E0
1.410906718E1,-4.700660110E-1,7.394908667E-1,-1.370628357E0
1.411906718E1,-5.878199339E-1,5.539977551E-1,-1.682834625E0
1.412906718E1,-2.119263113E-1,2.777830362E-1,-2.083918571E0
1.413906718E1,2.488259822E-1,5.995404720E-2,-2.104198456E0
1.414906718E1,6.795876026E-1,-2.546155453E-1,-1.990016937E0
1.415906718E1,1.451939940E0,-7.501769066E-1,-1.862630844E0
1.416906718E1,1.987799883E0,-8.430809975E-1,-1.675391197E0
1.417906718E1,1.801478148E0,-3.158819675E-1,-1.734654427E0
1.418906718E1,1.699012160E0,5.335783958E-2,-2.187322140E0
1.419906718E1,2.212098598E0,-3.722056150E-1,-2.317450047E0
1.420906718E1,3.008533955E0,-9.193491936E-1,-1.371738434E0
1.421906718E1,3.817840099E0,-1.415035129E0,4.872150421E-1
1.422906718E1,4.183611870E0,-1.662853956E0,2.169391632E0
1.423906718E1,3.702430725E0,-1.431508541E0,2.827171326E0
1.424906718E1,2.769284248E0,-1.109617233E0,2.724770546E0
1.425906718E1,2.137924910E0,-7.460219860E-1,2.359168053E0
1.426906718E1,2.511829853E0,-1.401233673E-1,1.934760094E0
1.427906718E1,2.756458759E0,6.826024055E-1,1.420996666E0
1.428906718E1,2.088655233E0,1.231927872E0,7.298851013E-1
1.429906718E1,9.658712745E-1,5.713686943E-1,3.448991776E-1
1.430906718E1,3.881331682E-1,-4.680213928E-1,1.042659760E0
1.431906718E1,2.286145091E-1,-1.155783415E0,2.531301498E0
1.432906718E1,5.777502060E-2,-1.514851809E0,3.688368797E0
1.433906718E1,-3.347865343E-1,-1.251681447E0,4.287580490E0
1.434906718E1,-8.180471659E-1,-8.415544033E-1,4.376595497E0
1.435906718E1,-1.065464616E0,-1.087024212E0,3.965720177E0
1.436906718E1,-9.506870508E-1,-1.577724934E0,3.481169701E0
1.437906718E1,-7.291004658E-1,-1.706274509E0,3.010331154E0
1.438906718E1,-1.261734486E0,-1.398497462E0,2.411680222E0
1.439906718E1,-2.326457500E0,-6.164896488E-1,1.608825684E0
1.440906718E1,-2.976497173E0,1.512858868E-1,8.851613998E-1
1.441906718E1,-2.613462687E0,3.352968693E-1,2.702703476E-1
1.442906718E1,-1.422202706E0,1.904845238E-1,-1.999845505E-1
1.443906718E1,-3.200718164E-1,-2.027294636E-1,-3.148775101E-1
1.444906718E1,3.366840482E-1,-7.888450623E-1,-3.192481995E-1
1.445906718E1,3.249790668E-1,-9.918812513E-1,-7.539176941E-2
1.446906718E1,-2.733509541E-1,-9.583870173E-1,6.007003784E-1
1.447906718E1,-1.100872278E0,-8.255829811E-1,1.073572159E0
1.448906718E1,-1.517882943E0,-7.456324100E-1,9.818296432E-1
1.449906718E1,-1.239619732E0,-4.533796310E-1,-2.382774353E-1
1.450906718E1,-9.436640739E-1,8.801722527E-2,-1.448882580E0
1.451906718E1,-7.238778472E-1,3.050949574E-1,-2.488492012E0
1.452906718E1,-1.113974333E0,4.547011852E-1,-2.803470612E0
1.453906718E1,-1.351480961E0,5.286967754E-1,-2.882675648E0
1.454906718E1,-1.425336361E0,4.685280323E-1,-3.062116623E0
1.455906718E1,-1.849297047E0,4.352211952E-1,-2.656723976E0
1.456906718E1,-2.067918301E0,4.699089527E-1,-1.848060608E0
1.457906718E1,-2.099234104E0,4.393742085E-1,-1.215056419E0
1.458906718E1,-1.806499720E0,1.988806725E-1,-1.405938148E0
1.459906718E1,-1.898126006E0,-1.495361328E-1,-1.972620964E0
1.460906718E1,-1.958327770E0,-6.502199173E-1,-2.057352543E0
1.461906718E1,-1.754177213E0,-9.362664223E-1,-1.867263317E0
1.462906718E1,-1.742422104E0,-6.302905083E-1,-2.225540161E0
1.463906718E1,-1.743624449E0,5.685997009E-2,-3.751634598E0
1.464906718E1,-2.093589306E0,2.897543907E-1,-3.877722740E0
1.465906718E1,-1.853637338E0,4.439644814E-1,-3.593594551E0
1.466906718E1,-9.005986452E-1,3.929286003E-1,-3.955524445E0
1.467906718E1,-3.286964297E-1,4.136471748E-1,-4.632233143E0
1.468906718E1,-6.540938616E-1,6.487178802E-1,-4.918540955E0
1.469906718E1,-1.473543406E0,4.431490898E-1,-4.564479351E0
1.470906718E1,-1.468005300E0,1.375141144E-1,-3.527684212E0
1.471906718E1,-5.134788752E-1,-3.387832642E-1,-2.177062988E0
1.472906718E1,8.104488254E-1,-6.832389832E-1,-1.235341072E0
1.473906718E1,1.429840326E0,-4.316911697E-1,-6.945781708E-1
1.474906718E1,1.033188701E0,2.519130707E-2,-4.166650772E-1
1.475906718E1,-3.707982898E-1,5.308151245E-1,-4.594135284E-2
1.476906718E1,-1.677438259E0,1.626279831E0,3.410854340E-1
1.477906718E1,-1.864717007E0,2.480023861E0,3.494195938E-1
1.478906718E1,-1.571975470E0,2.036673546E0,3.625774384E-1
1.479906718E1,-6.381047964E-1,9.995465279E-1,6.986608505E-1
1.480906718E1,4.062276483E-1,7.653903961E-2,1.641873360E0
1.481906718E1,9.611142874E-1,-4.135642052E-1,2.798342705E0
1.482906718E1,5.850785971E-1,-2.641253471E-1,4.025918007E0
1.483906718E1,4.790917784E-2,7.159323692E-1,5.708210945E0
1.484906718E1,-9.140044451E-1,1.901814938E0,6.828346252E0
1.485906718E1,-1.247081280E0,2.974327087E0,6.362984657E0
1.486906718E1,-7.209724188E-1,3.823491096E0,4.917199135E0
1.487906718E1,4.323419631E-1,4.004359245E0,2.511194229E0
1.488906718E1,2.032585621E0,2.747362137E0,-8.087358475E-1
1.489906718E1,3.378579617E0,1.500957966E0,-2.113105774E0
1.490906718E1,4.286934853E0,1.162153244E0,-2.646100521E0
1.491906718E1,3.475756884E0,7.827038765E-1,-2.974285126E0
1.492906718E1,1.685331345E0,7.707591057E-1,-3.091472626E0
1.493906718E1,3.148441911E-1,7.620143890E-1,-3.027142048E0
1.494906718E1,-8.407226950E-2,8.501644135E-1,-3.141972542E0
1.495906718E1,1.702374816E-1,9.243736267E-1,-3.558054447E0
1.496906718E1,6.203218102E-1,9.736289978E-1,-3.966899395E0
1.497906718E1,9.795197248E-1,1.048644543E0,-4.134147644E0
1.498906718E1,9.765923023E-1,8.287625313E-1,-4.049887657E0
1.499906718E1,6.407499313E-1,2.600173950E-1,-3.680576324E0
1.500906718E1,2.071889937E-1,-6.244971752E-1,-2.898746490E0
1.501906718E1,4.651073813E-1,-2.143656731E0,-1.965291500E0
1.502906718E1,9.094765186E-1,-3.330537319E0,-7.255673409E-1
1.503906718E1,9.683344960E-1,-3.608042479E0,3.382616043E-1
1.504906718E1,1.813276529E0,-3.133068562E0,5.047855377E-1
1.505906718E1,2.686167479E0,-2.366790056E0,-2.921743393E-1
1.506906718E1,2.387687922E0,-1.543801785E0,-1.610700607E0
1.507906718E1,1.954525828E0,-8.952658176E-1,-2.642081261E0
1.508906718E1,1.668592453E0,-7.777194977E-1,-3.180162430E0
1.509906718E1,6.250980496E-1,-1.335306644E0,-2.348709106E0
1.510906718E1,-5.316124558E-1,-1.850972176E0,1.542167664E-1
1.511906718E1,-1.070421219E0,-2.065843582E0,2.422843933E0
1.512906718E1,-1.356279373E0,-1.725741625E0,3.805825233E0
1.513906718E1,-1.618901610E0,-1.154643774E0,3.608623505E0
1.514906718E1,-1.722259045E0,-7.476370335E-1,1.937973976E0
1.515906718E1,-2.024544716E0,-2.233636379E-1,3.613529205E-1
1.516906718E1,-2.040394783E0,3.143343925E-1,-5.634794235E-1
1.517906718E1,-2.041622162E0,1.069520950E0,-1.144154549E0
1.518906718E1,-2.247142076E0,1.861362934E0,-1.508538246E0
1.519906718E1,-2.459455252E0,1.988059282E0,-1.995131016E0
1.520906718E1,-2.209383965E0,1.590129137E0,-2.339409828E0
1.521906718E1,-1.639560223E0,1.189333439E0,-2.120345116E0
1.522906718E1,-5.680780411E-1,7.970068455E-1,-1.503909111E0
1.523906718E1,5.069695711E-1,3.926324844E-1,-1.123376846E0
1.524906718E1,1.094115973E0,7.615065575E-2,-1.145293713E0
1.525906718E1,1.113028407E0,1.124763489E-2,-1.177911282E0
1.526906718E1,9.874088764E-1,-1.586222649E-2,-1.163380623E0
1.527906718E1,1.125956893E0,-3.519153595E-1,-7.957620621E-1
1.528906718E1,1.442372441E0,-7.899293900E-1,-1.399164200E-1
1.529906718E1,1.420115471E0,-8.598694801E-1,4.427738190E-1
1.530906718E1,9.787864685E-1,-7.241065502E-1,8.519525528E-1
1.531906718E1,5.738084316E-1,-8.914239407E-1,1.262913704E0
1.532906718E1,2.331143618E-1,-1.129086733E0,2.095088005E0
1.533906718E1,1.854693890E-1,-1.318253756E0,3.071024895E0
1.534906718E1,7.722761631E-1,-1.370492220E0,4.094483376E0
1.535906718E1,1.819358349E0,-8.260848522E-1,5.319154739E0
1.536906718E1,1.613946199E0,1.079259157E0,5.938539505E0
1.537906718E1,-7.057991028E-1,2.601638317E0,5.102398872E0
1.538906718E1,-3.688967466E0,3.186237812E0,3.649557114E0
1.539906718E1,-5.181060791E0,2.860525608E0,3.317791939E0
1.540906718E1,-4.699452400E0,2.018761635E0,4.531678200E0
1.541906718E1,-3.052896261E0,1.262854576E0,5.940218925E0
1.542906718E1,-1.518071175E0,3.095436096E-1,6.556201935E0
1.543906718E1,-9.007995129E-1,-2.895932198E-1,6.542582512E0
1.544906718E1,-1.054718137E0,-1.800947189E-1,6.195063591E0
1.545906718E1,-1.549118876E0,4.179630280E-1,5.440490723E0
1.546906718E1,-1.794064045E0,1.028663874E0,4.415575027E0
1.547906718E1,-1.577249885E0,1.410491228E0,3.027877808E0
1.548906718E1,-9.331214428E-1,1.208174229E0,1.428628922E0
1.549906718E1,-1.708718538E-1,6.609144211E-1,-9.431838989E-4
1.550906718E1,3.448741436E-1,1.614744663E-1,-7.828292847E-1
1.551906718E1,5.957694054E-1,-3.036396503E-1,-1.191328049E0
1.552906718E1,4.136158228E-1,-1.089158297E0,-8.026027679E-1
1.553906718E1,1.729793191E0,-1.593745232E0,-1.600983620E0
1.554906718E1,4.573469162E0,-1.804082155E0,-3.982110977E0
1.555906718E1,5.057225704E0,-2.160482883E0,-5.785804272E0
1.556906718E1,4.228168488E0,-2.391836643E0,-6.108663559E0
1.557906718E1,2.476400852E0,-1.786081195E0,-4.815016747E0
1.558906718E1,9.245322943E-1,-9.500350952E-1,-2.899658203E0
1.559906718E1,-6.472293139E-1,-3.503520489E-1,-1.884770393E0
1.560906718E1,-1.957740784E0,1.356134415E-1,-1.229480267E0
1.561906718E1,-1.974786282E0,4.879474640E-1,-5.184860229E-1
1.562906718E1,-2.199035168E0,9.430179596E-1,1.794624329E-2
1.563906718E1,-2.908798695E0,1.518836737E0,5.790643692E-1
1.564906718E1,-3.677448750E0,1.868200064E0,7.633304596E-1
1.565906718E1,-4.204058647E0,2.218173981E0,5.344743729E-1
1.566906718E1,-4.057670593E0,2.644373178E0,1.862058640E-1
1.567906718E1,-3.700774431E0,2.855985880E0,-5.829496384E-1
1.568906718E1,-2.904339552E0,2.306032181E0,-1.704005718E0
1.569906718E1,-2.088525295E0,1.337324381E0,-3.228740692E0
1.570906718E1,-1.457403779E0,4.483189583E-1,-4.162935257E0
1.571906718E1,-4.775545001E-2,-5.314109325E-1,-4.186426640E0
1.572906718E1,1.502950191E0,-1.558017135E0,-3.979928970E0
1.573906718E1,2.461796045E0,-1.840995550E0,-4.079215050E0
1.574906718E1,2.585586548E0,-1.769160986E0,-4.263553143E0
1.575906718E1,-9.477760643E-2,-1.310566425E0,-3.746598244E0
1.576906718E1,-1.174358487E0,-2.404134274E-1,-3.264548302E0
1.577906718E1,-1.579432964E0,-5.444183350E-1,-2.501668930E0
1.578906718E1,-5.691426992E-1,-1.246394992E0,-1.916478157E0
1.579906718E1,-5.232612491E-1,-1.651015759E0,-3.777904510E-1
1.580906718E1,6.021748185E-1,-1.282885075E0,8.194799423E-1
1.581906718E1,2.436789513E0,-1.242334723E0,9.327888489E-3
1.582906718E1,1.882526875E0,-1.456792951E0,-1.151530266E0
1.583906718E1,2.789774239E-1,-3.948848248E-1,-1.435644150E0
1.584906718E1,-3.204816580E-1,5.659322739E-1,-1.586680412E0
1.585906718E1,-5.518292189E-1,6.169960499E-1,-1.881141663E0
1.586906718E1,-6.958059967E-2,5.274493694E-1,-1.883110046E0
1.587906718E1,1.629766583E0,9.394512177E-1,-1.643749237E0
1.588906718E1,2.325493574E0,2.199338913E0,-8.167982101E-1
1.589906718E1,1.898002148E0,3.669016361E0,1.254529953E-1
1.590906718E1,4.960030615E-1,4.199556351E0,2.088098526E-1
1.591906718E1,-1.379130602E0,3.515281200E0,-3.159503937E-1
1.592906718E1,-2.111402035E0,2.246339321E0,-4.856634140E-1
1.593906718E1,-1.742030382E0,8.664937019E-1,-1.432991028E-2
1.594906718E1,-6.897146106E-1,-2.831110954E-1,1.184123993E0
1.595906718E1,1.011656880E0,-5.319046974E-1,2.708232880E0
1.596906718E1,2.528486967E0,-3.682222366E-1,3.704981804E0
1.597906718E1,3.094884634E0,-3.395514488E-1,3.827826500E0
1.598906718E1,2.907159328E0,-5.336382389E-1,2.962323189E0
1.599906718E1,1.768947601E0,-5.881391764E-1,1.768075943E0
1.600906718E1,9.165507555E-2,-2.973115444E-1,1.242886543E0
1.601906718E1,-7.910673618E-1,-1.347824335E-1,1.476375580E0
1.602906718E1,-9.133154154E-1,-4.679027796E-1,2.008883476E0
1.603906718E1,-5.403832793E-1,-1.699459076E0,1.812251091E0
1.604906718E1,-6.253975630E-2,-3.172873020E0,1.337852478E0
1.605906718E1,5.373743773E-1,-3.867527962E0,1.372998238E0
1.606906718E1,1.149507761E0,-3.671656132E0,1.564122200E0
1.607906718E1,1.381368041E0,-3.194623709E0,2.379180908E0
1.608906718E1,1.759341478E0,-2.897635460E0,3.830210686E0
1.609906718E1,1.706983089E0,-2.490930557E0,4.415040016E0
1.610906718E1,1.090166807E0,-2.544108391E0,3.802173615E0
1.611906718E1,5.560332537E-1,-2.672650337E0,2.190499306E0
1.612906718E1,5.372428894E-2,-2.286484957E0,3.920955658E-1
1.613906718E1,-3.164594173E-1,-1.837842822E0,-8.976783752E-1
1.614906718E1,-5.279576778E-1,-1.510762334E0,-1.293853760E0
1.615906718E1,-3.764610291E-1,-1.274195075E0,-7.832746506E-1
1.616906718E1,-2.079865932E-1,-1.070406437E0,4.963254929E-1
1.617906718E1,-1.521610022E-1,-1.192271948E0,1.337415695E0
1.618906718E1,3.136345148E-1,-1.437160015E0,1.048183441E0
1.619906718E1,6.985306144E-1,-1.356543422E0,2.246770859E-1
1.620906718E1,4.983081818E-1,-8.893791437E-1,-7.558689117E-1
1.621906718E1,-1.792980433E-1,-5.093226433E-1,-1.568189621E0
1.622906718E1,-8.082342148E-1,-3.923553228E-1,-2.284392357E0
1.623906718E1,-8.343091011E-1,-3.226969242E-1,-2.409550667E0
1.624906718E1,-2.368280888E-1,-1.327638626E-1,-1.993260384E0
1.625906718E1,5.987237692E-1,1.273846626E-2,-1.254295349E0
1.626906718E1,1.116116405E0,5.855488777E-2,-7.874298096E-1
1.627906718E1,1.163397312E0,3.601553440E-1,-7.756567001E-1
1.628906718E1,8.318765163E-1,8.026754856E-1,-1.409661293E0
1.629906718E1,1.691235304E-1,1.058639526E0,-1.964835644E0
1.630906718E1,-6.776839495E-1,1.487491846E0,-2.077694893E0
1.631906718E1,-1.105922103E0,1.733143091E0,-1.653736115E0
1.632906718E1,-1.290056109E0,1.967922449E0,-1.113180161E0
1.633906718E1,-8.957939148E-1,2.050737619E0,-7.566013336E-1
1.634906718E1,-7.921581268E-1,2.200604200E0,-4.515638351E-1
1.635906718E1,-7.163147926E-1,2.304415226E0,-2.522621155E-1
1.636906718E1,-1.047844768E0,2.222563505E0,-8.545246124E-1
1.637906718E1,-1.475988984E0,2.430056810E0,-1.414937019E0
1.638906718E1,-1.174572945E0,2.111841917E0,-1.238380432E0
1.639906718E1,-5.590505600E-1,8.187696934E-1,-1.515203953E0
1.640906718E1,4.886547327E-1,2.511885166E-1,-5.646467209E-1
1.641906718E1,1.576833487E0,5.662548542E-1,1.001829147E0
1.642906718E1,1.710564256E0,8.833663464E-1,1.772891998E0
1.643906718E1,6.608768702E-1,1.217715502E0,1.268415451E0
1.644906718E1,-7.150069475E-1,1.620431185E0,5.729961395E-2
1.645906718E1,-2.019767284E0,1.342766523E0,-9.333906174E-1
1.646906718E1,-2.220494032E0,2.286899090E-1,-1.392588139E0
1.647906718E1,-9.873030186E-1,-9.316112995E-1,-1.045104980E0
1.648906718E1,8.473660350E-1,-1.664609671E0,3.672876358E-1
1.649906718E1,2.053759575E0,-2.109801292E0,2.200517654E0
1.650906718E1,2.036989450E0,-2.388889551E0,3.671127319E0
1.651906718E1,8.141758442E-1,-2.286988020E0,4.139049530E0
1.652906718E1,-9.367113113E-1,-2.078224182E0,3.713677406E0
1.653906718E1,-2.661856651E0,-1.926494002E0,2.698451996E0
1.654906718E1,-3.789743900E0,-1.642338276E0,1.668199539E0
1.655906718E1,-3.929377556E0,-1.463810444E0,1.273454666E0
1.656906718E1,-2.940020084E0,-1.469258070E0,1.242832184E0
1.657906718E1,-1.511554480E0,-1.357224464E0,1.071278572E0
1.658906718E1,-3.243025541E-1,-1.139666677E0,7.446947098E-1
1.659906718E1,5.645728707E-1,-1.019941449E0,4.729681015E-1
1.660906718E1,9.649912119E-1,-8.338857293E-1,1.957941055E-1
1.661906718E1,1.027850032E0,-6.124118567E-1,-2.539720535E-1
1.662906718E1,1.065340757E0,-5.311836004E-1,-6.327848434E-1
1.663906718E1,1.292148113E0,-4.628311396E-1,-7.106304169E-1
1.664906718E1,1.640238762E0,-4.564673901E-1,-5.232334137E-1
1.665906718E1,1.933100462E0,-7.980583906E-1,-4.309253693E-1
1.666906718E1,1.995371222E0,-1.228060365E0,-4.149188995E-1
1.667906718E1,1.493510365E0,-1.447894931E0,-4.061861038E-1
1.668906718E1,4.213702679E-1,-1.438127160E0,-4.627819061E-1
1.669906718E1,-7.831358910E-2,-1.585679889E0,-7.668857574E-1
1.670906718E1,4.483318329E-2,-1.661107898E0,-1.046641350E0
1.671906718E1,4.876148701E-1,-1.455943584E0,-1.049664497E0
1.672906718E1,9.903004169E-1,-1.425151944E0,-9.937667847E-1
1.673906718E1,1.202089310E0,-1.600154519E0,-1.274776459E0
1.674906718E1,1.203961492E0,-1.649750471E0,-1.563384056E0
1.675906718E1,1.232360363E0,-1.645870924E0,-1.559509277E0
1.676906718E1,6.435415745E-1,-1.470510960E0,-1.586063385E0
1.677906718E1,-5.751236081E-1,-1.206129789E0,-1.979348183E0
1.678906718E1,-1.412881970E0,-9.462454319E-1,-2.585149765E0
1.679906718E1,-1.594822407E0,-5.401399136E-1,-2.902503014E0
1.680906718E1,-1.203096390E0,-1.022809744E-1,-2.527956963E0
1.681906718E1,-7.260724902E-1,1.531882286E-1,-1.910946846E0
1.682906718E1,-4.262247086E-1,3.482900858E-1,-1.229142189E0
1.683906718E1,-5.511226058E-1,6.351014376E-1,-6.365995407E-1
1.684906718E1,-1.005693436E0,8.219161034E-1,-5.045413971E-1
1.685906718E1,-1.901239038E0,1.154251337E0,-6.669731140E-1
1.686906718E1,-2.764926672E0,1.707557201E0,-9.724178314E-1
1.687906718E1,-3.024313211E0,1.937012911E0,-1.305160522E0
1.688906718E1,-2.466370344E0,1.667369843E0,-1.375219345E0
1.689906718E1,-1.380215526E0,1.365865946E0,-1.251730919E0
1.690906718E1,-1.030542850E-1,9.527471066E-1,-9.206199646E-1
1.691906718E1,5.853295922E-1,7.709534168E-1,-5.215358734E-1
1.692906718E1,8.668597937E-1,4.688465595E-1,-1.542596817E-1
1.693906718E1,4.984028935E-1,3.096609116E-1,-1.389064789E-1
1.694906718E1,1.192033887E-1,4.304020405E-1,1.960544586E-1
1.695906718E1,5.794498324E-1,4.504077435E-1,1.033491135E0
1.696906718E1,1.682498217E0,3.514049053E-1,1.679267883E0
1.697906718E1,2.200921535E0,4.003183842E-1,1.767658234E0
1.698906718E1,1.463153005E0,1.831450462E-1,1.667936325E0
1.699906718E1,-1.628708839E-2,-2.049756050E-1,1.009008408E0
1.700906718E1,-9.797787070E-1,-3.809256554E-1,5.296726227E-1
1.701906718E1,-7.088279128E-1,-5.550086498E-1,7.441921234E-1
1.702906718E1,2.198535204E-1,-6.744537354E-1,1.507299423E0
1.703906718E1,1.388831973E0,-5.988543034E-1,2.413289070E0
1.704906718E1,2.310718060E0,-5.261454582E-1,2.888269424E0
1.705906718E1,2.739869833E0,-7.647390366E-1,2.905138016E0
1.706906718E1,2.947947502E0,-1.288853645E0,2.594457626E0
1.707906718E1,3.092941284E0,-1.684288621E0,2.234354019E0
1.708906718E1,2.835449696E0,-1.732996941E0,1.957203865E0
1.709906718E1,1.861456633E0,-1.441185117E0,1.552791595E0
1.710906718E1,1.413321137E0,-1.471229792E0,1.305695534E0
1.711906718E1,1.395201325E0,-1.722274303E0,1.134725571E0
1.712906718E1,1.531018496E0,-1.884062529E0,9.526777267E-1
1.713906718E1,1.844542980E0,-2.289031029E0,8.512001038E-1
1.714906718E1,1.818851590E0,-2.598900080E0,8.928670883E-1
1.715906718E1,1.402576089E0,-2.500543118E0,9.050903320E-1
1.716906718E1,5.354359150E-1,-2.172601700E0,4.707565308E-1
1.717906718E1,-5.543587208E-1,-1.546853304E0,-1.687364578E-1
1.718906718E1,-1.021053553E0,-8.893746138E-1,-7.581825256E-1
1.719906718E1,-1.080647945E0,-5.172872543E-1,-1.364061356E0
1.720906718E1,-8.978188038E-1,-5.086822510E-1,-1.793091297E0
1.721906718E1,-5.393521786E-1,-5.145757198E-1,-2.029872894E0
1.722906718E1,-6.459305286E-1,-1.621382236E-1,-2.107797623E0
1.723906718E1,-1.273558378E0,-1.016049385E-1,-2.084884644E0
1.724906718E1,-2.083276510E0,-2.796967030E-1,-1.985919952E0
1.725906718E1,-2.727894068E0,-9.198689461E-2,-1.849253654E0
1.726906718E1,-2.552137852E0,2.536866665E-1,-1.334507942E0
1.727906718E1,-1.647674322E0,4.224922657E-1,-8.551263809E-1
1.728906718E1,-5.927970409E-1,1.985647678E-1,-4.853525162E-1
1.729906718E1,-3.376674652E-2,2.381348610E-2,-5.266771317E-1
1.730906718E1,-4.229784012E-3,-6.043815613E-2,-9.742627144E-1
1.731906718E1,1.950430870E-2,-8.598756790E-2,-1.465965271E0
1.732906718E1,-2.666091919E-2,9.136557579E-2,-1.851879120E0
1.733906718E1,-8.271622658E-2,5.858981609E-1,-1.919406891E0
1.734906718E1,2.351467609E-1,1.068602085E0,-1.822008610E0
1.735906718E1,7.446804047E-1,9.732356071E-1,-1.359144211E0
1.736906718E1,1.212906837E0,4.410347939E-1,-2.694797516E-1
1.737906718E1,1.516911030E0,1.715135574E-2,6.293373108E-1
1.738906718E1,1.347070932E0,-8.669853210E-2,1.119165421E0
1.739906718E1,5.746493340E-1,4.243016243E-1,1.201456070E0
1.740906718E1,5.769348145E-2,6.333518028E-1,1.060754776E0
1.741906718E1,6.924574375E-1,3.176474571E-2,9.336462021E-1
1.742906718E1,2.248667955E0,-5.801723003E-1,1.198935509E0
1.743906718E1,3.321572781E0,-1.191974401E0,1.824876785E0
1.744906718E1,3.892179251E0,-1.880985022E0,2.767743111E0
1.745906718E1,3.281872749E0,-1.654727578E0,3.342092514E0
1.746906718E1,1.508647680E0,-7.745826244E-1,3.091042519E0
1.747906718E1,-6.515312195E-1,-3.575205803E-2,2.780941963E0
1.748906718E1,-2.136490822E0,5.437505245E-1,2.808880806E0
1.749906718E1,-1.986740112E0,7.335131168E-1,2.952929497E0
1.750906718E1,-8.400824070E-1,6.740794182E-1,2.763139725E0
1.751906718E1,2.734999657E-1,8.255720139E-1,1.766102791E0
1.752906718E1,3.380665779E-1,1.721332073E0,5.609769821E-1
1.753906718E1,-6.272292137E-1,3.259756804E0,-2.186117172E-1
1.754906718E1,-2.848028660E0,4.020045280E0,-7.735457420E-1
1.755906718E1,-4.517992020E0,2.893475294E0,-1.184772491E0
1.756906718E1,-4.257513046E0,1.012644291E0,-5.546531677E-1
1.757906718E1,-2.883814812E0,-5.985569954E-2,7.333555222E-1
1.758906718E1,-2.202052116E0,-4.999504089E-1,1.788105965E0
1.759906718E1,-2.647992611E0,-8.448002338E-1,2.412083626E0
1.760906718E1,-3.550703287E0,-8.255958557E-1,2.958977699E0
1.761906718E1,-3.685014963E0,-4.452202320E-1,2.822160721E0
1.762906718E1,-3.219532490E0,-2.319920063E-1,2.142519951E0
1.763906718E1,-2.896916389E0,-3.539800644E-3,1.220704079E0
1.764906718E1,-2.666534662E0,1.981635094E-1,1.124925613E-1
1.765906718E1,-2.346844673E0,2.950241566E-1,-8.441963196E-1
1.766906718E1,-1.872268677E0,3.783128262E-1,-1.579139709E0
1.767906718E1,-1.049685001E0,7.194733620E-2,-2.000043869E0
1.768906718E1,-1.717722416E-1,-3.666126728E-1,-1.982373238E0
1.769906718E1,6.536483765E-1,-6.677494049E-1,-1.606925964E0
1.770906718E1,1.001915455E0,-8.505866528E-1,-1.120297909E0
1.771906718E1,4.525673389E-1,-1.132005930E0,-5.141000748E-1
1.772906718E1,-6.568524837E-1,-1.317482233E0,7.373704910E-1
1.773906718E1,-1.795331240E0,-1.508286953E0,2.712993622E0
1.774906718E1,-2.540773869E0,-1.561948538E0,4.269865990E0
1.775906718E1,-3.122966051E0,-1.139619589E0,4.388770103E0
1.776906718E1,-3.002802610E0,-4.944880009E-1,3.016888618E0
1.777906718E1,-2.929672718E0,2.580118179E-2,8.247604370E-1
1.778906718E1,-2.560762644E0,2.125039101E-1,-1.321979523E0
1.779906718E1,-1.682307005E0,-3.442826271E-1,-3.891247272E0
1.780906718E1,2.741298676E-1,-1.180690050E0,-5.944355488E0
1.781906718E1,1.644183397E0,-1.193021536E0,-7.012701988E0
1.782906718E1,2.798967838E0,-1.566549778E0,-7.916399479E0
1.783906718E1,3.916234016E0,-1.498722315E0,-8.124440193E0
1.784906718E1,3.975882053E0,-1.399502516E0,-8.632660866E0
1.785906718E1,3.254658461E0,-1.777244568E0,-8.273106575E0
1.786906718E1,1.841509104E0,-1.917534828E0,-7.143967628E0
1.787906718E1,8.203818798E-1,-1.892754078E0,-4.907430172E0
1.788906718E1,2.606482506E-1,-1.892082214E0,-2.547287464E0
1.789906718E1,2.841873169E-1,-1.825412512E0,-1.545432091E0
1.790906718E1,2.218413353E-1,-1.777387857E0,-1.270508289E0
1.791906718E1,-1.433062553E-1,-1.331004143E0,-1.776969910E0
1.792906718E1,-2.413601875E-1,-2.078890800E-1,-2.879597664E0
1.793906718E1,-4.466905594E-1,6.598258018E-1,-3.962390900E0
1.794906718E1,-9.584441185E-1,1.010174274E0,-4.618702888E0
1.795906718E1,-1.467903614E0,1.259076595E0,-4.508561134E0
1.796906718E1,-1.763328791E0,1.396798611E0,-3.951761246E0
1.797906718E1,-1.889105558E0,1.373034954E0,-3.202114105E0
1.798906718E1,-1.491112471E0,1.208238602E0,-3.146199226E0
1.799906718E1,-1.182939529E0,1.457466602E0,-3.349761009E0
1.800906718E1,-1.669986486E0,2.490815163E0,-3.266140938E0
1.801906718E1,-1.732443810E0,2.895483017E0,-3.059966564E0
1.802906718E1,-6.623551846E-1,2.789175034E0,-2.613451958E0
1.803906718E1,8.059847355E-1,2.489159107E0,-1.946552753E0
1.804906718E1,1.444400430E0,1.818325043E0,-3.691272736E-1
1.805906718E1,1.495111823E0,7.718529701E-1,1.824638844E0
1.806906718E1,1.416365147E0,5.052409172E-1,3.483396530E0
1.807906718E1,1.257583618E0,9.657111168E-1,5.112950325E0
1.808906718E1,1.281386852E0,2.202060699E0,5.982441902E0
1.809906718E1,5.906102657E-1,3.033483028E0,6.083703995E0
1.810906718E1,-2.343490124E-1,3.482651711E0,5.832885742E0
1.811906718E1,-2.757995129E-1,2.983179331E0,4.299366951E0
1.812906718E1,-2.787923813E-1,1.738019228E0,3.456430435E0
1.813906718E1,1.232500076E-1,5.912508965E-1,3.463129044E0
1.814906718E1,5.317862034E-1,-3.136553764E-1,3.735835075E0
1.815906718E1,6.270952225E-1,-7.782518864E-1,3.890830040E0
1.816906718E1,7.747082710E-1,-5.300571918E-1,4.119024277E0
1.817906718E1,1.045163393E0,-2.386164665E-2,3.856485367E0
1.818906718E1,8.415117264E-1,3.835077286E-1,3.716538429E0
1.819906718E1,-4.404001236E-1,1.196702242E0,4.557205200E0
1.820906718E1,-1.990733147E-1,1.375771523E0,4.574578285E0
1.821906718E1,-7.310867310E-2,1.266439915E0,4.033609390E0
1.822906718E1,-3.819212914E-1,1.437895775E0,2.956090927E0
1.823906718E1,-8.583889008E-1,6.456596851E-1,2.155653954E0
1.824906718E1,-6.958029270E-1,-4.468724728E-1,2.030749321E0
1.825906718E1,-3.883609772E-1,-1.371618271E0,2.922173500E0
1.826906718E1,5.932712555E-2,-1.900773883E0,3.622139931E0
1.827906718E1,6.258251667E-1,-2.529430389E0,3.185984612E0
1.828906718E1,6.760544777E-1,-2.399222851E0,2.190348625E0
1.829906718E1,5.802206993E-1,-1.321209669E0,7.722358704E-1
1.830906718E1,1.026646614E0,-7.688298225E-1,-1.393331528E0
1.831906718E1,1.897573709E0,-1.005191803E0,-3.313506126E0
1.832906718E1,3.074824095E0,-1.844210505E0,-3.729916573E0
1.833906718E1,3.836292505E0,-2.697913408E0,-2.674125671E0
1.834906718E1,3.843276739E0,-3.240530968E0,-1.424226761E0
1.835906718E1,2.404208899E0,-2.905859232E0,-7.294349670E-1
1.836906718E1,2.444036007E-1,-2.403689384E0,-2.266712189E-1
1.837906718E1,-1.334625483E0,-1.814937115E0,3.989553452E-1
1.838906718E1,-1.543800592E0,-1.735446453E0,4.672641754E-1
1.839906718E1,-1.343173981E0,-1.742290497E0,3.082799911E-1
1.840906718E1,-1.729377508E0,-1.517046928E0,4.526472092E-1
1.841906718E1,-1.835285425E0,-1.265768051E0,3.032350540E-2
1.842906718E1,-2.183292627E0,-8.425354958E-1,-6.890387535E-1
1.843906718E1,-3.054015636E0,-6.939578056E-1,-7.148547173E-1
1.844906718E1,-3.660229683E0,-9.181404114E-1,1.044311523E-1
1.845906718E1,-3.690514565E0,-1.252629757E0,8.044409752E-1
1.846906718E1,-4.045129299E0,-1.248220205E0,8.999886513E-1
1.847906718E1,-5.410547256E0,-6.570096016E-1,8.204555511E-1
1.848906718E1,-6.405809879E0,-3.436169624E-1,4.458456039E-1
1.849906718E1,-6.359279156E0,-2.998008728E-1,-4.126658440E-1
1.850906718E1,-5.402882099E0,1.226592064E-1,-1.413837910E0
1.851906718E1,-3.830370665E0,3.307905197E-1,-2.626350880E0
1.852906718E1,-2.882280111E0,-9.736967087E-2,-3.785994530E0
1.853906718E1,-1.884592056E0,-5.850672722E-1,-4.459403992E0
1.854906718E1,-7.965121269E-1,-1.033067226E0,-4.414435863E0
1.855906718E1,5.569517612E-1,-1.375666618E0,-3.897889853E0
1.856906718E1,1.770090342E0,-1.785783291E0,-3.047365665E0
1.857906718E1,2.935443640E0,-1.954916954E0,-2.208461761E0
1.858906718E1,3.744800091E0,-1.853504181E0,-1.851568222E0
1.859906718E1,3.708446026E0,-1.774626255E0,-1.868278503E0
1.860906718E1,3.627520323E0,-1.643150806E0,-1.950871944E0
1.861906718E1,2.311800241E0,-9.706277847E-1,-2.004134178E0
1.862906718E1,-7.454810143E-1,1.459889412E-1,-1.717422485E0
1.863906718E1,7.107009888E-1,1.939063072E-1,-2.255279303E0
1.864906718E1,2.874065399E0,7.981500626E-1,-2.943586588E0
1.865906718E1,4.593080044E0,1.049111843E0,-4.061609268E0
1.866906718E1,4.241542816E0,2.229213715E-1,-4.050943375E0
1.867906718E1,1.603884101E0,-5.353574753E-1,-2.161894321E0
1.868906718E1,-7.937588692E-1,-5.836558342E-1,1.421593666E0
1.869906718E1,-1.381984234E0,-2.241349220E-1,3.993036270E0
1.870906718E1,-9.668216705E-1,4.846715927E-2,4.431020737E0
1.871906718E1,-3.263926506E-2,4.900794029E-1,3.440921307E0
1.872906718E1,9.008038044E-1,1.172610283E0,2.120983124E0
1.873906718E1,2.213023186E0,1.796519279E0,7.603888512E-1
1.874906718E1,3.389024019E0,1.564519882E0,-6.344504356E-1
1.875906718E1,4.412015438E0,2.626461983E-1,-2.076694489E0
1.876906718E1,2.479967356E0,-1.538404942E0,-9.044318199E-1
1.877906718E1,1.404666185E0,-2.196115494E0,1.502408028E0
1.878906718E1,1.030856133E0,-1.605671406E0,1.768920898E0
1.879906718E1,-6.158382893E-1,-6.238298416E-1,1.445853710E0
1.880906718E1,-2.053286791E0,1.871986389E-1,1.012189865E0
1.881906718E1,-1.461892843E0,7.960133553E-1,4.662399292E-1
1.882906718E1,-3.526444435E-1,6.788473129E-1,-1.685314178E-1
1.883906718E1,-5.307805538E-1,2.090015411E-1,-4.931764603E-1
1.884906718E1,-1.415725708E0,-1.944684982E-1,-2.290024757E-1
1.885906718E1,-2.193592310E0,-7.188615799E-1,4.137959480E-1
1.886906718E1,-1.812131405E0,-1.325062275E0,1.217210770E0
1.887906718E1,-2.315404415E-1,-1.913770914E0,9.243469238E-1
1.888906718E1,8.711528778E-1,-2.247696638E0,5.544013977E-1
1.889906718E1,9.522256851E-1,-2.123342037E0,8.689684868E-1
1.890906718E1,5.834476948E-1,-5.963830948E-1,-2.348647118E-1
1.891906718E1,-2.193937302E0,1.904704571E0,-1.808353424E0
1.892906718E1,-3.884619474E0,2.166642666E0,-3.427799702E0
1.893906718E1,-8.306474686E-1,8.227825165E-3,-3.364655495E0
1.894906718E1,2.990640163E0,-1.658912659E0,-1.692938328E0
1.895906718E1,5.198220730E0,-2.328814983E0,-6.959495544E-1
1.896906718E1,5.833594799E0,-1.944314003E0,9.211869240E-1
1.897906718E1,3.683830261E0,-1.402090073E0,3.135402203E0
1.898906718E1,7.037210464E-1,-9.434127808E-1,5.084209919E0
1.899906718E1,-1.067767143E0,-3.696584702E-2,5.527083397E0
1.900906718E1,-1.293011904E0,4.351429939E-1,3.878646851E0
1.901906718E1,-1.937246323E0,7.530784607E-2,2.021853447E0
1.902906718E1,-2.038082600E0,-4.087181091E-1,6.156296730E-1
1.903906718E1,-1.577809572E0,-4.429755211E-1,-6.568717957E-1
1.904906718E1,-1.690735102E0,3.265094757E-2,-1.693303585E0
1.905906718E1,-2.299170494E0,8.333482742E-1,-3.337880611E0
1.906906718E1,-3.593450785E0,1.833800793E0,-4.743958473E0
1.907906718E1,-3.569258928E0,2.583863258E0,-5.935911179E0
1.908906718E1,-3.248607874E0,2.473261356E0,-6.745980263E0
1.909906718E1,-3.472191572E0,2.514411449E0,-5.522850513E0
1.910906718E1,-3.476537704E0,3.036857605E0,-4.058464050E0
1.911906718E1,-3.135599613E0,3.781800270E0,-3.581748962E0
1.912906718E1,-4.450353622E0,4.180116653E0,-2.048538208E0
1.913906718E1,-4.506639481E0,2.538329124E0,2.027431965E0
1.914906718E1,-2.629498482E0,-6.200261116E-1,7.462196827E0
1.915906718E1,4.702063560E0,-1.035172462E0,5.251729965E0
1.916906718E1,4.761968613E0,-8.252820969E-1,3.743778229E0
1.917906718E1,5.567877293E-1,9.210739136E-1,5.570894241E0
1.918906718E1,-8.945405483E-1,2.320403576E0,6.622920036E0
1.919906718E1,8.826788664E-1,1.838178635E0,4.889004707E0
1.920906718E1,2.791226864E0,1.375018597E0,2.484516144E0
1.921906718E1,4.229727745E0,2.691273689E-1,8.621006012E-1
1.922906718E1,4.849013805E0,-1.117963076E0,-1.197242737E-1
1.923906718E1,4.112092018E0,-1.800950527E0,-4.259872437E-1
1.924906718E1,2.051717997E0,-2.901180506E0,2.603899002E0
1.925906718E1,4.705322266E0,-3.213173628E0,2.801259041E0
1.926906718E1,6.847206116E0,-2.806213379E0,5.670394897E-1
1.927906718E1,4.137335300E0,-2.142487764E0,1.412659645E0
1.928906718E1,1.378547668E0,-9.277935028E-1,2.496871948E0
1.929906718E1,8.029815555E-1,-4.664945602E-1,1.829361916E0
1.930906718E1,4.224402905E-1,-1.132210016E0,-5.852756500E-1
1.931906718E1,-3.804286718E-1,-1.589908600E0,-2.411993504E0
1.932906718E1,-1.193867564E0,-1.395201683E0,-3.746639252E0
1.933906718E1,-2.828202248E0,-1.505054235E0,-3.404665947E0
1.934906718E1,-3.559041023E0,-1.464205503E0,-2.621694088E0
1.935906718E1,-2.910560608E0,-1.138248205E0,-3.091000557E0
1.936906718E1,-1.792697549E0,-4.920349121E-1,-4.030345440E0
1.937906718E1,-9.917084575E-1,-5.565717220E-1,-4.920458317E0
1.938906718E1,-8.314861059E-1,-8.666634560E-1,-4.930605888E0
1.939906718E1,-8.961270452E-1,-8.502480984E-1,-4.164724350E0
1.940906718E1,1.219129324E0,-2.359185457E0,-3.516365051E0
1.941906718E1,2.587714195E0,-3.036255360E0,-3.123270988E0
1.942906718E1,2.465279341E0,-3.328384399E0,-2.364135742E0
1.943906718E1,1.521049738E0,-3.075892448E0,-1.377461910E0
1.944906718E1,9.321345687E-1,-1.987131953E0,-7.082710266E-1
1.945906718E1,8.583331108E-1,-1.267524123E0,-1.160503387E0
1.946906718E1,1.267871618E0,-1.142871380E0,-1.671576023E0
1.947906718E1,9.487707019E-1,-3.028504848E-1,-1.737678528E0
1.948906718E1,2.514883876E-2,4.305510521E-1,-1.465745926E0
1.949906718E1,-1.077605128E0,9.724950790E-1,-1.164782524E0
1.950906718E1,-2.400285721E0,1.446085930E0,-6.225881577E-1
1.951906718E1,-3.183634281E0,1.615637302E0,9.773101807E-1
1.952906718E1,-3.436457634E0,1.939015150E0,4.237661362E-1
1.953906718E1,-1.794568658E0,1.964492559E0,8.310298920E-1
1.954906718E1,-5.115610361E-1,2.806193829E0,1.364881516E0
1.955906718E1,1.304009438E0,3.077483892E0,8.579978943E-1
1.956906718E1,1.649307609E0,2.204542398E0,9.510354996E-1
1.957906718E1,9.796369076E-2,2.348122120E0,2.597300529E0
1.958906718E1,-1.705435157E0,2.741045713E0,4.399930000E0
1.959906718E1,-2.522436380E-1,1.755831003E0,6.667332649E0
1.960906718E1,1.058014274E0,8.837823868E-1,8.179358482E0
1.961906718E1,6.799930334E-1,5.519914627E-2,9.532640457E0
1.962906718E1,-7.545124292E-1,3.642392159E-1,9.987509727E0
1.963906718E1,-1.110221982E0,1.142126322E0,7.611435890E0
1.964906718E1,2.885202467E-1,1.153170824E0,2.863544464E0
1.965906718E1,2.762947798E0,1.058623314E0,-2.199120045E0
1.966906718E1,5.035562515E0,1.467777967E0,-6.134553909E0
1.967906718E1,6.575954437E0,1.192435026E0,-8.777720451E0
1.968906718E1,7.717227936E0,-5.275821686E-1,-1.003268051E1
1.969906718E1,7.956798553E0,-2.096466064E0,-9.120034218E0
1.970906718E1,5.138782978E0,-2.154936075E0,-5.380315781E0
1.971906718E1,2.634274483E0,-1.076429367E0,-6.821975708E-1
1.972906718E1,1.504892111E-1,-1.244592667E-2,1.714952469E0
1.973906718E1,-2.945945740E0,1.152311325E0,2.832385063E0
1.974906718E1,-6.331260681E0,1.314815044E0,4.272973061E0
1.975906718E1,-8.815662384E0,9.207158089E-1,6.486294746E0
1.976906718E1,-6.137473106E0,1.508924961E-1,7.100333214E0
1.977906718E1,-2.272926331E0,-1.397641778E0,7.497222900E0
1.978906718E1,-1.656386733E0,-2.662690163E0,9.633240700E0
1.979906718E1,-1.274656057E0,-2.524153471E0,9.352449417E0
1.980906718E1,-4.414932728E-1,-2.087159157E0,7.016616821E0
1.981906718E1,8.829506636E-1,-1.802959204E0,4.357271194E0
1.982906718E1,1.630941987E0,-1.750404596E0,2.340632439E0
1.983906718E1,1.111762762E0,-1.317851067E0,8.219881058E-1
1.984906718E1,4.678367376E-1,-8.131330013E-1,-7.277069092E-1
1.985906718E1,1.043089509E0,-1.213554382E0,-2.118546009E0
1.986906718E1,2.372464180E0,-1.598681450E0,-3.178026676E0
1.987906718E1,3.161723614E0,-1.297791600E0,-3.703595161E0
1.988906718E1,2.886430979E0,-1.313331246E0,-3.517408371E0
1.989906718E1,2.315845966E0,-1.340833187E0,-2.154601097E0
1.990906718E1,1.416255951E0,-1.009326100E0,5.719738007E-1
1.991906718E1,1.597860217E0,-1.856241226E-1,3.060399055E0
1.992906718E1,2.559950829E0,-6.105020046E-1,2.219183922E0
1.993906718E1,2.818541288E0,-1.100749016E0,1.020379066E0
1.994906718E1,3.179576397E0,-1.539550304E0,-5.207920074E-2
1.995906718E1,3.960591078E0,-2.228921413E0,-8.659629822E-1
1.996906718E1,3.015699387E0,-1.996421337E0,-1.238082886E0
1.997906718E1,5.745667815E-1,-9.705739021E-1,-7.919979095E-1
1.998906718E1,-2.244199991E0,4.227185249E-1,2.669458389E-1
1.999906718E1,-3.568034649E0,1.394310236E0,1.259785652E0
2.000906718E1,-3.711114407E0,1.592937708E0,1.671843529E0
2.001906718E1,-3.770473480E0,1.535739422E0,-7.408609390E-1
2.002906718E1,-3.712923050E0,9.106628895E-1,-3.972986221E0
2.003906718E1,-5.782143116E0,5.168876648E-1,-5.956101418E0
2.004906718E1,-7.250757694E0,6.928377151E-1,-6.327501297E0
2.005906718E1,-6.616585255E0,8.886842728E-1,-6.613919258E0
2.006906718E1,-6.004391193E0,9.094357491E-1,-6.851236343E0
2.007906718E1,-5.835046768E0,5.321531296E-1,-6.745671272E0
2.008906718E1,-4.981565475E0,-3.001089096E-1,-6.147583961E0
2.009906718E1,-3.854929447E0,-8.887414932E-1,-5.106485367E0
2.010906718E1,-1.768463254E0,-2.062491179E0,-3.518020630E0
2.011906718E1,-5.214667320E-2,-3.351875782E0,-2.646883488E0
2.012906718E1,-6.667984724E-1,-2.618166685E0,-1.792709351E0
2.013906718E1,-3.288589478E0,-9.583587646E-1,5.799732208E-1
2.014906718E1,-4.833565235E0,5.288877487E-1,3.519809723E0
2.015906718E1,-4.420948029E0,1.393941879E0,5.009357452E0
2.016906718E1,-3.611505747E0,1.064318180E0,5.297554016E0
2.017906718E1,-4.072926044E0,7.337622643E-1,3.870360374E0
2.018906718E1,-1.744805932E0,1.112611294E0,-1.545528412E0
2.019906718E1,-2.416286469E0,1.203695774E0,-4.330404758E0
2.020906718E1,-2.823128223E0,1.256140709E0,-4.926786423E0
2.021906718E1,-3.259714127E0,1.701697350E0,-4.963402271E0
2.022906718E1,-3.256584406E0,2.667762280E0,-5.068080902E0
2.023906718E1,-3.128119469E0,3.077682972E0,-5.694295406E0
2.024906718E1,-2.790117741E0,2.812148094E0,-5.923176765E0
2.025906718E1,-1.513264060E0,2.050933838E0,-5.410236359E0
2.026906718E1,2.375689745E0,7.437653542E-1,-4.003269196E0
2.027906718E1,5.863056183E0,-4.142537117E-1,-2.579455853E0
2.028906718E1,6.825379372E0,-9.193339348E-1,-4.436922073E-1
2.029906718E1,6.029283524E0,-1.385487080E0,2.538232803E0
2.030906718E1,4.603131771E0,-2.230457306E0,5.486124039E0
2.031906718E1,3.891341686E0,-3.128666401E0,7.514419556E0
2.032906718E1,4.161933899E0,-3.330211878E0,8.275364876E0
2.033906718E1,4.725258350E0,-2.700629234E0,7.317468643E0
2.034906718E1,4.871090889E0,-2.285840511E0,4.361023903E0
2.035906718E1,4.750653267E0,-2.186873198E0,1.205164909E0
2.036906718E1,4.762235641E0,-2.483666182E0,-7.187500000E-1
2.037906718E1,4.686468124E0,-2.499983311E0,-1.452990532E0
2.038906718E1,3.884061575E0,-2.340589046E0,-1.356679916E0
2.039906718E1,2.257225275E0,-2.212678909E0,-6.185274124E-1
2.040906718E1,7.690179348E-1,-1.744864464E0,-9.015369415E-2
