Time_interval,Time,Acceleration_x,Acceleration_y,Acceleration_z
0,0.24894895566,-1.161763257085,0.87558165593888,9.83043322616
1,0.7489239139999999,-0.0008135645730599895,0.646540675854,10.24530083702
2,1.248923914,-1.1840165075326,0.9360722210036001,10.04602654444
3,1.7489239140000001,-2.117983043186,1.4801043701285999,9.07760339746
4,2.248923914,-4.12905474432,1.715605977712,8.14095693568
5,2.748923914,-3.986011841376,1.3910913672626,8.597746686819999
6,3.248923914,-0.507804818755,1.47340446764,9.604263686840001
7,3.748923914,-0.971916706648,1.6631553056482,9.6004351616
8,4.248923914,-0.49622355788999994,0.6126104538382,10.08029172858
9,4.748923914,-1.8654923699213,0.72679594098,9.91284210212
10,5.248923914,-1.115773195024,0.72215386940188,8.82831911156
11,5.748923914,0.10590632587,0.5690610791778,9.87958184268
12,6.248923914,-1.0247502302488,0.8256673849846,8.83578470264
13,6.748923914,-1.0816036959818,0.8275337909746,9.24342602766
14,7.248923914,-1.6488821252996002,0.018293133370799998,9.4048099138
15,7.748923914,-0.140362973232,0.4378147554356,9.34957156102
16,8.248923913999999,-1.2804472602399999,0.14648859047888,10.3962401198
17,8.744316070862745,-0.14164571975656864,0.5740897663239805,9.739445087941176
18,9.248923913999999,-1.23507932808024,0.6832944365500001,9.6012487031
19,9.748923913999999,0.2396172634266,0.69224359021108,9.89815019616
20,10.24892391,-0.8957292237048401,1.455171165966,9.77625975622
21,10.74892391,0.20903698488564001,1.3726187729132,9.400777979079999
22,11.24892391,-0.019381851536200013,0.5926064575896001,9.839908895239999
23,11.74892391,-0.1643869189394,-0.5881558046032,8.57817348468
24,12.24892391,-0.37998023381660007,-0.05508277634900001,9.21595635886
25,12.74892391,-1.1405628401,-0.65156560945812,9.517069206259999
26,13.24892391,0.050584271667799996,0.10849057598449999,9.386325340099999
27,13.74872391,0.10494919965984,-0.7213881641442,10.18873452214
28,14.24892391,0.5767181100326,-0.1508913972506,8.93278984104
29,14.74892391,-0.266416869022,-0.09121439680080001,10.31273056018
30,15.24892391,-0.25234707606974,0.5793023483508,9.3559364325
31,15.74892391,-0.43066021054399994,0.4311866402,10.15609656342
32,16.248923910000002,0.16505689966479997,-0.2567020115598,10.0173126597
33,16.748723910000002,0.18716658294900002,0.43094735758700004,9.54784090048
34,17.248923910000002,0.3345166009892,0.21238693770759998,8.87416560136
35,17.748923910000002,0.72488168511468,0.9301380224154001,9.3443074796
36,18.248923910000002,-0.239952252768,0.11298907686980002,9.0810969166
37,18.748723910000002,0.21439690862156,0.0377108851842,9.67963766096
38,19.248923910000002,-0.048526443399199995,-0.07307680134920001,10.120778398899999
39,19.748923910000002,0.049148578882200006,0.17075182557440002,9.4798848637
40,20.248923910000002,-0.7906364537994,-0.10815557308200002,10.5651734734
41,20.74892391,0.32350962224269997,-0.12289537110599999,9.76558779674
42,21.24892391,-1.7659868523673998,0.339996166218,10.27271070578
43,21.74872391,0.8494520343856,0.6028955871784,9.4343732261
44,22.24892391,-0.01895115447619999,0.651278474364,9.763864979380001
45,22.74892391,0.98522080007,-0.046420756435,9.30975504862
46,23.24892391,-1.0991191542236,-0.21664616243,9.98328674328
47,23.74892391,0.3094398299434,-0.48981078752999996,8.72346568112
48,24.24892391,0.16247266980119998,-0.218608277484,9.57263057706
49,24.74892391,-0.39539001538603996,-0.494165729998,9.719549884780001
50,25.24892391,0.5640361489698,0.40582271895932004,9.413986445159999
51,25.74892391,-2.082282119978,0.8532326984515,10.059522084720001
52,26.24892391,0.19099508859428,1.9468962307153999,8.823533548694
53,26.74892391,2.0205472847962,1.3058111835119999,9.76984697852
54,27.24892391,1.293942771454,1.178369421378,9.7125150208
55,27.74892391,1.592997750346,0.89544208685036,8.709443759760001
56,28.24892391,1.3519447972476,0.33944581286419995,9.72486191678
57,28.74892391,1.2833186221464001,0.19630716993180003,9.20619375262
58,29.24892391,1.4362678467002,-0.7308158850812001,9.85565362966
59,29.74892391,1.0464292001768,0.46755754868720006,9.74692369452
60,30.24892391,0.6393622062666,0.277136719305,9.51118283226
61,30.74892391,0.7289016323916201,1.024510948274,9.9767784025
62,31.24892391,1.801843324322,0.9380821972760001,9.424610538220001
63,31.74892391,1.48589502206,0.9221938432614,9.47945405962
64,32.24892391,0.35385061336486,1.164012497694,9.72691982224
65,32.74892391,-0.403717034778,0.16960327101286002,9.7407503122
66,33.24892391,0.3480599822962,0.0282353068906,9.71878417904
67,33.74892391,0.586480826744,0.478851672412,9.61799846652
68,34.24892391,0.9318608534899999,0.493112894302,9.61608415586
69,34.74892391,1.009149019714,0.25947768609792,9.64733451844
70,35.24892391,1.066385337114,0.06264409618416,9.67542617794
71,35.748723909999995,0.958804037552,0.01785045775626,9.638385276740001
72,36.24892391,1.07868444564,-0.09221938403824,9.60072229388
73,36.748723909999995,1.08782502771,-0.2165983056672,9.73304531132
74,37.24892391,1.181575820396,-0.1567298835323,9.58186683664
75,37.74892391,1.128263720246,-0.21387048750296,9.59182102212
76,38.248723909999995,1.3806108115999998,0.12189038597400001,9.677723331480001
77,38.74892391,0.021774682405560002,0.43506301427399996,9.1759963419
78,39.24892391,0.32714671520320004,-0.15136996693160001,9.845890884020001
79,39.74892391,2.60779381819712,0.9391350252952,9.35095942026
80,40.24892391,-0.1834337879174,1.217324589798,9.52745403238
81,40.74892391,1.081747269616,2.00877460183,9.711988487180001
82,41.24892391,0.6537670101606,2.2555703416,8.9961038013
83,41.74892391,0.61586469955864,1.5768701216354,9.22748985284
84,42.24892391,-0.430660207822,1.8441005576741,9.59344805754
85,42.748723909999995,-0.8603154475364001,2.3053889128396,8.94772100946
86,43.24892391,-0.9321479891658799,1.1964113120152,9.68179111488
87,43.748723909999995,-0.92860660434,2.123869354164,9.03639902566
88,44.24892391,-0.34672000614799997,1.467948829254,9.61096355888
89,44.74892391,-0.2307638285826,1.2831750619673,9.78688396962
90,45.24892391,-1.7831792830520001,1.8636738617886002,9.2781219624
91,45.74892391,-1.0832786577138,2.57281076789892,9.47337631196
92,46.24852391,-0.3215475091228,2.1226729585379998,9.0103172207
93,46.74892391,-0.8111190171122,1.963406677818,9.1210091923
94,47.24892391,-0.6081598060041999,2.1561724846472,8.70748165152
95,47.748723909999995,-1.6462141180099998,2.099366863529,9.22681991538
96,48.24892391,0.17089538931000003,1.7413048956386399,8.6392382339
97,48.74892391,3.185181918458,-0.4785645285675,9.244096002500001
98,49.24892391,4.19222531792,0.5969135386266,8.68025126018
99,49.74892391,3.3805319749878002,-0.17831314617600003,9.614648561960001
100,50.248723909999995,2.270549414124,-0.0030628190635999973,9.6019666149
101,50.74892391,1.8568662448993998,0.1558565082992,9.576459016700001
102,51.24892391,-1.3636815987278,1.588295845938,10.01663076364
103,51.74892391,0.701767011152,0.4235296085588,8.77266210088
104,52.24892391,1.3997533755464,0.138735852512,9.59383092874
105,52.74892391,0.95669833757088,0.004498509397400001,9.4066643906
106,53.24852391,1.13113510655596,-0.6085905041158,9.9419388102
107,53.74892391,0.9393742999218,0.4483671105362,8.91379072174
108,54.24892391,0.33279376304465996,-0.3816073516974,10.01247922854
109,54.748723909999995,0.5142175651349,-0.17012968841240003,9.56870625522
110,55.248723909999995,0.7884829305090001,-1.031737271202,10.3847546093
111,55.74892391,2.800033199208,-0.07762315552259999,9.16451080318
112,56.24892391,1.638317796,0.998859902034,9.744004516699999
113,56.748723909999995,1.804618991511,0.5724588980154001,8.94274384482
114,57.24892391,3.1191400382037604,-0.14849856862260002,9.0910032272
115,57.74892391,3.038406197115,-0.2296152576572,9.08315477338
116,58.24892391,2.027773612782,1.5732330336264,8.70226533908
117,58.74892391,0.8919485517969999,2.7278178157179997,9.19561744666
118,59.24892391,0.9691888712726001,2.5584538353413,9.32425555216
119,59.74892391,1.28355791538744,0.9363114908457599,9.91174149506
120,60.24892391,1.170580796437,1.4919847398116,9.33315684338
121,60.74892391,-0.051900325480399995,1.10894169499,11.07032210374
122,61.24892391,-0.27574888692800004,1.389942824288,9.63316892612
123,61.74892391,0.7819744355218,1.0144610907708,9.184706134919999
124,62.24892391,0.09915856539,0.7499106205224,9.611107148899999
125,62.74892391,-0.33322447541754,1.29006639828108,9.36129647268
126,63.24892391,-1.38989496352546,-0.011150539527399986,10.05449720376
127,63.74892391,-0.9478927768927999,1.116060330838,9.38833538968
128,64.24892391,-1.1592747150252,0.68855864417,10.48348247522
129,64.74892391,-0.6242874207656,1.48053507693,9.19092740022
130,65.24892391,0.34083365288179995,0.7230631601276,9.22643706308
131,65.74892391,0.014356942133999993,0.652139887786,9.76214212374
132,66.24892391,0.30082565849119997,0.35643486170800004,9.2208855438
133,66.74892391,-0.12734602369584003,-0.312789772418,9.42207415564
134,67.24892391,-0.56599826186968,0.422524622674,9.77056492786
135,67.74892391,-1.4238251859139999,-0.022109687291999996,10.56258915934
136,68.24892391,-0.8552426733492,0.8167660813080001,10.57847760212
137,68.74892391,-1.266090320374,1.12137240443174,9.03099127776
138,69.24872391,-0.9957970712804,0.33954152588,9.44959152252
139,69.74892391,-0.5348915772956601,0.510149785667,9.56966351588
140,70.24872391,-1.03633148476032,0.5337430047658,9.57822974244
141,70.74892391,0.029096724676660007,0.7224888688058,9.85096370732
142,71.24892391,-0.5667639748187601,0.415250445952,10.14413235608
143,71.74872391,0.2606262421658,0.5545127169142,10.01468060486
144,72.24892391,-0.24971497541607998,0.6291209188442,10.11895985584
145,72.74892391,-0.7021020163578,0.929946602188,9.06281574228
146,73.24872391,-0.197168583033,0.3736153265434,9.36230149294
147,73.74892391,-1.087537889562,-0.022444682428399997,9.32200626382
148,74.24892391,-1.4836457499273998,1.0061340485512,9.6856674574
149,74.74892391,-1.4267922859539999,0.19477576979700004,10.23864874832
150,75.24892391,-0.1352423407138,0.319920388013,9.19853668154
151,75.74892391,-0.6809973287494,0.025794621582,9.84651310952
152,76.24892391,-1.274848045262,0.3453800211274,9.239980325820001
153,76.74892391,-1.3102618205440002,0.43113878257780003,8.88502911524
154,77.24892391,-1.4321522099059998,0.1177747282916,9.479836778740001
155,77.74892391,-0.589065080277,0.099493567918,9.853787223000001
156,78.24892391,-1.6524354690679999,0.2137269218854,9.641830988179999
157,78.74892391,-0.976032367686,0.7724988639714,9.797029351359999
158,79.24892391,-0.8773044872539999,0.54364930198288,10.39829803416
159,79.74892391,-0.589543645017,0.9601918860554001,8.93135406504
160,80.24892391,-0.9033384036996001,0.636634385278,9.45255873638
161,80.74892391,-0.991585685474,0.077048892146,9.24428744306
162,81.24872391,-0.749623474184,0.112893373641,9.30272014652
163,81.74892391,-1.508818238348,-0.6724310203413999,9.687533912400001
164,82.24892390999999,-0.769436048531,-0.21133408428599998,9.93332465132
165,82.74892390999999,-1.33246720614,-0.4909114960708,10.05947430644
166,83.24892390999999,-0.44386860035956,0.38644085275080003,9.511900797000001
167,83.74872391000001,-0.888550760222,-0.5165146989206,10.01104351982
168,84.24892390999999,-1.00168341586614,0.47243888943519996,8.80041885332
169,84.74892390999999,-0.21803400264556003,0.42233319454319995,9.0140021037
170,85.24892390999999,-1.004506950514,-0.20185851252400003,9.72213413228
171,85.74892390999999,-0.378640256458,0.8020741554988,8.96485364898
172,86.24892390999999,-0.4856951358098,-0.59351573800324,9.917675618539999
173,86.74852391,-0.24325434801912,-0.21276979476199998,9.65159361816
174,87.24892390999999,-0.9806265746298,-0.42295534034572,10.10067871058
175,87.74892390999999,-0.1072941570402,-0.1127498047502,9.4806982896
176,88.24892390999999,-0.6373043747584,-0.7421100239676,10.55201288192
177,88.74872391000001,-0.35758341903416,0.528143807936,8.9348475742
178,89.24892390999999,0.4853601383358,-0.029383864588799997,9.69509523434
179,89.74892390999999,-0.5451328621488001,0.01521836221054,9.744004525840001
180,90.24892390999999,-0.33020950864520004,0.16505691026240002,9.4109714605
181,90.74892390999999,-0.26976681906026,-0.42601813537719996,10.323498334180002
182,91.24892390999999,-1.569141293278,1.69331683694,10.10421991376
183,91.74892390999999,-0.9990512943558,0.721053167572,9.67609621058
184,92.24892390999999,-0.49076791137119996,0.5790152291742,10.16676839772
185,92.74872391000001,-0.33202807830054,0.894484965746,9.4415517762
186,93.24892390999999,-1.1819826316304,0.6077410545138,8.53655038816
187,93.74892390999999,0.009487544011999985,-0.040031909286000006,9.68706727908
188,94.24892390999999,-1.0236495413942002,0.43027736288580004,9.37742409718
189,94.74892390999999,-0.44118863700880007,1.00723477580292,9.52300336852
190,95.24892390999999,-0.051445688121400004,0.7320123129188001,10.24975160518
191,95.74892390999999,-1.50077836374952,1.7679609404746,9.68528461428
192,96.24892390999999,-1.2007183887188,1.7030676005054,10.06320709272
193,96.74892390999999,-2.37344079462,2.6379912488922,8.41493501662
194,97.24872391000001,-1.388124281134,1.125392348188,9.37129851294
195,97.74892390999999,-1.601372599838,1.181623671632,9.58449898664
196,98.24872391000001,-1.396834149018,0.559633359548,9.11852070842
197,98.74872391000001,-0.921715270558,0.46425543388,9.67030557726
198,99.24892390999999,-0.720622465286,0.9838808044076001,9.5425289055
199,99.74892390999999,-1.0648539283504,-0.1254796071666,10.0546885965
200,100.24892390000001,-0.89194856489268,0.31920254589856,10.023151120800001
201,100.74892390000001,-1.1433863792062,0.10628919543619998,10.07823400496
202,101.24892390000001,-0.3624647744118,1.35361977703,10.08857093792
203,101.74892390000001,-1.1379786037047999,1.0844750846558,9.93456891994
204,102.24892390000001,-0.4454000017,1.6541104493,9.46820776008
205,102.74892390000001,-0.5191467987484,0.9576554883738,9.373212775839999
206,103.24892390000001,-0.8006384653329001,0.689420055762,9.4960602574
207,103.74892390000001,-0.1537627817954,0.5514977666763999,9.13311691294
208,104.24892390000001,-0.4978506802076,0.9329615549218001,9.42748188982
209,104.74892390000001,0.005072788616000007,1.3216038049680001,9.37053272278
210,105.24892390000001,0.026033909676000003,0.5029713180800001,9.82191478734
211,105.74892390000001,-0.19094724599904,0.7193782057670001,9.66111714344
212,106.24892390000001,-0.990341436051,0.35777485138429993,10.185528145000001
213,106.74892390000001,0.19855642325498,0.97895160616,9.64733449892
214,107.2487239,-0.74842707078074,0.49847279626226,10.023246889
215,107.74892390000001,-0.0979143096312,0.59810995189596,9.04606597926
216,108.24892390000001,-0.10317851448342001,0.0355573540924,9.32549983024
217,108.74892390000001,-0.38534015802986,-0.38629728513940004,9.8154063612
218,109.2487239,0.17223537597910002,-0.069200433788,9.25625144974
219,109.74892390000001,-0.30503704182965996,-0.33249467729800003,10.58740259102
220,110.24892390000001,-0.018520453588799998,0.5443671538592,10.00606645662
221,110.74892390000001,-0.0263689074894,0.3441836015762,10.59412650092
222,111.24892390000001,0.43922651915879996,1.103617654224,9.482947597539999
223,111.74892390000001,0.034887352599999984,0.6341458721198,9.2374439236
224,112.24892390000001,-0.2004706879053,0.09293721705959995,9.86776126834
225,112.74892390000001,-0.398548528426,0.47698526963356,8.96380073528
226,113.24892390000001,-1.127976588246,0.45645485372919997,10.237930927539999
227,113.7487239,-0.48191447924982,1.3194981122734,9.73103541378
228,114.24892390000001,-0.834377252579,0.5331687453899999,9.94997873334
229,114.74892390000001,0.4919643394984,1.316531013354,9.7899466424
230,115.24892390000001,0.20822342419719997,1.250297689524,9.6008180332
231,115.74892390000001,0.397734978128,1.0004869840700001,9.21356357572
232,116.24892390000001,0.2907279551916,0.674153848924,9.37287763564
233,116.74892390000001,0.2580898449476,0.88041517676,9.59564949984
234,117.24892390000001,0.3531806171116,0.851174867876,9.26189855558
235,117.74892390000001,-0.05230710004919999,0.5957649870559599,9.81028574948
236,118.24892390000001,-0.0044506485438399945,0.662572597071,9.78717107764
237,118.7487239,-0.3371008521096,0.31436904333394,10.16762983342
238,119.2487239,-0.39146577890026,1.5017833577780002,9.655996589799999
239,119.74892390000001,-0.3160440127788,0.8418907125335999,8.67340779308
240,120.24892390000001,-0.47219962043168,0.58332230825168,9.821962661999999
241,120.74892390000001,0.9762716349562,0.18759729956780002,9.51443715122
242,121.24892390000001,-0.8255238014555999,0.56681184271396,9.52491766888
243,121.74892390000001,0.6935357173155999,0.6611847550828,9.4358567902
244,122.24892390000001,-0.942772124242,0.0489571591662,10.017360572600001
245,122.74892390000001,0.42482173281310004,1.3562518691599998,9.60364150968
246,123.24892390000001,-1.5942420166394,1.1888500007362,9.70232153828
247,123.74892390000001,-0.8475856301372001,0.9381300370682,9.6614521315
248,124.24892390000001,0.1922393692328,0.37328032593460003,9.22686763766
249,124.75372782156863,-0.754020636835098,1.644995205332745,9.119985533745098
250,125.25371981836736,-0.8126807059469389,1.301744331005306,9.502973098979592
251,125.74892390000001,-0.746417085076,0.262636217798,9.56564353938
252,126.24892390000001,-0.1908036755145,0.8977870532132001,9.43121465756
253,126.74892390000001,0.2623969225762,0.6594619214440001,10.0349717369
254,127.24892390000001,-0.506704134398,1.7725551669360002,9.6182377625
255,127.74892390000001,-0.6116533177004,0.286468743692,9.95131861706
256,128.24892390000002,-0.87639523357764,0.2424407849404,10.06258485368
257,128.74892390000002,-1.5233666135786001,0.2331087855774,8.8883310366
258,129.24892390000002,-1.5881642396200002,-0.07532605894200003,10.11197290396
259,129.74872390000002,0.26297120450739997,-0.4517649085512,9.199828786740001
260,130.24892390000002,-1.372283774929,-0.5847579908608,9.57956974028
261,130.74892390000002,-0.13954941511299998,-0.809300478122,9.14120456666
262,131.24892390000002,-0.5426921750424,-1.271450235532,10.049998712479999
263,131.74872390000002,-0.377874545781,-0.843852827242,9.77755189914
264,132.24872390000002,-1.1345329325084001,-0.9038169566366,10.778948154520002
265,132.74892390000002,-0.4518127738608,0.1885065731302,9.12545984298
266,133.24892390000002,0.06551548314060002,-0.3424129208292,9.12000421514
267,133.74892390000002,-0.9623454110324,0.09920642441580002,9.671502046619999
268,134.24892390000002,0.3190589700948,0.275988158437,9.273097076
269,134.74892390000002,-0.9378428974828801,-0.25469202905808,9.6456115533
270,135.24892390000002,-0.5348437143604,0.19731214790772,9.79449304568
271,135.74892390000002,-0.91764749658928,0.118396868952,10.17504760766
272,136.24872390000002,-2.0947248058100003,1.536000724422,9.7179227345
273,136.74872390000002,-1.7181423833669998,1.5746687250720002,9.28271615022
274,137.24872390000002,-1.53202861371,1.401332651342,9.0313262176
275,137.74892390000002,-0.9412885733522,1.2978670003118,9.06702714926
276,138.24892390000002,-0.46966322363380003,1.0947163530078,9.28214190552
277,138.74892390000002,-0.5391986519726,1.4577554131200001,9.643410278180001
278,139.24892390000002,-0.7388079349340001,1.3681681263646002,10.1285789676
279,139.74892390000002,-2.9056045300099997,1.7235023007794,9.73921887406
280,140.24872390000002,-1.6546847246802,1.4548840277939998,8.7251885224
281,140.74892390000002,-2.858418078454,1.0448977929660002,8.67599201218
282,141.24892390000002,-1.387214983528,0.12011968877899999,9.02079772952
283,141.74892390000002,-2.49681473284,0.05436492838779998,9.15422158266
284,142.24892390000002,-3.347415309346,-0.047473602888799996,9.649870929679999
285,142.74872390000002,-1.8436698483382,-1.0480563026022,10.3178034305
286,143.24892390000002,-1.8785571991038,0.05503491188800002,9.67355977996
287,143.74872390000002,-0.979717300406,0.30374490588788,9.17843695612
288,144.24892390000002,-1.1196495689666799,-0.21655046513465998,9.3530173105
289,144.74892390000002,0.029910283686000003,-0.44444288147056,9.02826344512
290,145.24892390000002,-0.9231988289605999,-0.7953264008146,9.5089813904
291,145.74892390000002,-1.0277173322682,-0.19128225005450003,9.76084998084
292,146.24872390000002,-1.1635817905648,-0.22827527230640002,9.91896765706
293,146.74872390000002,-0.17443677382800002,-0.015026919720800004,10.28329887462
294,147.24892390000002,-1.9087546145857999,-0.03282952037519998,9.3754620075
295,147.74892390000002,-1.547964842116,-0.06733403201200001,9.45241512324
296,148.24892390000002,0.05034498661399999,-1.70991107223,9.48414392384
297,148.74892390000002,-0.96306325803852,-1.9190916041354,9.515059213639999
298,149.24872390000002,-0.44429931086792,-1.4740744627178,9.14134819042
299,149.74872390000002,-0.31082766301766,-1.5393028263883999,9.67509123306
300,150.24892390000002,-0.58662439852,0.038141597330200006,9.3517730335
301,150.74892390000002,-0.7492884913728,-2.2095324474362,10.069284810620001
302,151.24892390000002,-0.17759529724134002,-1.064471091864,10.04808445902
303,151.74872390000002,-0.295561459272,-1.7073746433942,9.5378867815
304,152.24892390000002,-0.6645347083223,-1.3232787637687202,9.65628366936
305,152.74892390000002,-0.5538427223072,-2.2934247937429997,9.688395424180001
306,153.24892390000002,0.55848480728746,-1.783992848376,9.2948717264
307,153.74892390000002,-0.679944475232,-1.8527625803974002,9.544299583939999
308,154.24892390000002,-0.3862972880894,-2.6258357072400003,9.2053322508
309,154.74892390000002,-0.42075394103156005,-2.545532580554,9.036494684100001
310,155.24892390000002,-0.9273623423108001,-2.0561046385340003,8.93680969226
311,155.74892390000002,-0.151944239302,-2.2236979583734002,8.86229706756
312,156.24892390000002,-0.8840522466669399,-1.541073482016,9.598951568799999
313,156.74892390000002,-1.4863257098459999,-1.436363576632,8.98811186816
314,157.24892390000002,-0.8866365125912,-2.890003364122,9.378811950640001
315,157.74892390000002,-0.26986254225524,-1.878557182902,8.80477382604
316,158.24892390000002,-0.9566504969819999,-2.8169744178386,9.2695556547
317,158.74892390000002,-0.6514220411424,-1.115151054802,9.45078800206
318,159.24872390000002,-1.3326586496037998,-2.127171467574,9.6468080141
319,159.74892390000002,-0.5421657464684,-1.3499826939776,10.20744640334
320,160.24892390000002,-1.01010615621,-0.457316254936,9.35387868896
321,160.74892390000002,-0.73698938503232,0.974165952818,9.24624947538
322,161.24872390000002,-0.03675375347999999,-0.5800202130599,10.27291401862
323,161.74892390000002,-0.10193423864214,-0.1382094407366,9.01701709772
324,162.24892390000002,0.11772687174687999,-0.7836972793286,9.23634328816
325,162.74872390000002,-0.26742185777460004,-1.7975362291197998,9.57655471876
326,163.24892390000002,0.20597417192682,-1.184399347545,9.68657672922
327,163.74892390000002,-1.17382307007352,-0.41874396146020004,9.816363449179999
328,164.24872390000002,0.32355747525120004,-0.3421257785266,8.9990709307
329,164.74892390000002,-1.82505368978,0.8117411556704001,10.13728883798
330,165.24892390000002,-2.34314763072,1.99518340112,9.18982683138
331,165.74872390000002,-2.21675873518,2.55606101273,9.1234498305
332,166.24892390000002,-1.5139388877420001,2.8071638047620002,9.32219780878
333,166.74892390000002,-0.7297630531078001,2.531032092596,9.0794219685
334,167.24892390000002,-2.3348684815266,2.5485954117,8.639094714819999
335,167.74872390000002,-1.820315901336,1.0471948962524,9.497065210659999
336,168.24872390000002,-4.2176849032399994,1.4363635803099999,8.914030049544
337,168.74892390000002,-0.6257709807376,1.307916859426,9.84751797656
338,169.24892390000002,-2.492938345396,1.5820864734139999,9.42221775578
339,169.74892390000002,-0.452674190162,-0.16453048284243998,9.85589292496
340,170.24892390000002,-1.0420264023699999,-0.12169895349800001,9.87044126472
341,170.74872390000002,-2.5443840477257997,1.0227881132013001,8.708582351372
342,171.24892390000002,-1.6019469075980002,-0.1559163219642,9.62680403748
343,171.74892390000002,-2.9303463143315995,0.569348220526,8.60186238276
344,172.24872390000002,-1.6839728611679998,-0.6201717709096,9.90781711572
345,172.74892390000002,-2.299646123668,-0.6961678205714,9.71280208538
346,173.24892390000002,-1.1761201816674,-0.29336005568300005,10.07234772666
347,173.74892390000002,-0.7105726138226,0.47047678695199996,9.89111519806
348,174.24892390000002,0.0020099710579999995,0.61184475420546,9.87292980132
349,174.74892390000002,-0.04474578340459999,0.74120073099,9.04238103876
350,175.24892390000002,-0.4502335150578,0.6099783442999,9.63517887104
351,175.74872390000002,0.0927458085914,1.128933706051,9.18580690404
352,176.24892390000002,-0.786951497104,1.1134760856680002,9.55726862928
353,176.74892390000002,0.08283952186382,1.037336484483,9.7021301653
354,177.24892390000002,-2.6887190974319997,0.6019384639736001,9.76180711772
355,177.74892390000002,-2.17722935266328,-0.018329024636800015,9.91796262674
356,178.24892390000002,-1.4086546883265998,0.9422935573932,9.65240730234
357,178.74872390000002,-0.879745172888,1.0393943071556,9.10043097548
358,179.24892390000002,-1.1825329457748,-0.058002016594800004,9.2806583401
359,179.74892390000002,-1.493647758916,-0.4242474489258,9.460263490480001
360,180.24892390000002,-0.5496313636572,-0.35705699566767996,9.22815982782
361,180.74872390000002,-1.5043197442249998,-1.346632729387,10.24726304038
362,181.24892390000002,-0.09647860922276001,-0.5573841116762001,9.32554759032
363,181.74892390000002,-2.2352313291979997,-1.1062497512801999,10.41035773244
364,182.24892390000002,0.331166649456,-0.7483792070006,10.270473366060001
365,182.74892390000002,-1.7489140761664002,-0.8793144593952,10.50090219484
366,183.24892390000002,0.5048377122686,-0.24469003471200002,9.027928380879999
367,183.74892390000002,-1.1885150099576,0.10140782052580001,9.71634350804
368,184.24892390000002,-0.886540796612,-0.5701617766937399,9.2079643533
369,184.74892390000002,-0.8239445418646,-0.350644225423,9.078129825460001
370,185.24872390000002,-1.3555340468748,-0.9747880903348001,9.54721881888
371,185.74892390000002,-0.30513274564954,-0.5414000536972,9.24352173824
372,186.24892390000002,-1.53533072420748,-0.843087131956,10.1398730463
373,186.74892390000002,-0.4872744055823,-0.25751557978039996,9.55037730228
374,187.24892390000002,-1.66755811339,-0.33011382154,9.92413616146
375,187.74872390000002,-0.1067677413534,-0.25761128994,9.76874628094
376,188.24892390000002,-1.1588918639936,-0.2601955250584,9.9832867044
377,188.74892390000002,-0.7479006414986,-0.1019342439614,8.76691923194
378,189.24892390000002,-1.484363598832,0.157447733646,9.52013190262
379,189.74872390000002,-1.05705333578016,-0.664199708124,8.94207387898
380,190.24892390000002,-1.4604353713286,-0.2571327258656,9.69590889928
381,190.74892390000002,-1.6691373536707999,-0.751537744428,9.44786871884
382,191.24892390000002,-0.4661218530146,-0.8202596077394599,9.39331239244
383,191.74892390000002,-0.9799087252088,-0.21544975641599998,10.97477685882
384,192.24892390000002,-0.09848858186444,-0.12691531542639997,9.59402246476
385,192.74892390000002,-1.446748432602,-0.11428121249060003,9.85431363044
386,193.24892390000002,-0.4286023893016,0.16630117252889998,8.8135793198
387,193.74872390000002,-0.723637433032,0.288526558291,9.69241531436
388,194.24872390000002,-0.016941181830599995,-0.6379743716736,9.231031208000001
389,194.74892390000002,0.2846023279904,-0.39046079033596004,9.748646620839999
390,195.24892390000002,-1.1087383065865999,-0.388929394348,9.781763315880001
391,195.74892390000002,0.05776274324099999,0.38208592495626,9.06238508206
392,196.24872390000002,-1.2891092664658002,-0.7463213811182,10.411697759399999
393,196.74892390000002,0.982540830976,-0.8188717649894799,9.751757277860001
394,197.24892390000002,0.207314149785,-0.6525227468924,9.52448691326
395,197.74892390000002,-0.12710673907269998,-0.71210402086926,10.52516541448
396,198.24892390000002,-0.5692046521392,-0.6145725702364,9.69662669168
397,198.74892390000002,0.48186662553799997,-1.0390593018874,8.58654836666
398,199.24892390000002,-0.32173893619280003,-0.7926464239700001,9.90039940914
399,199.74872390000002,-0.6049055722671001,-0.9437292348523999,9.2972645281
400,200.24892390000002,0.270388955932,-0.4986642388442,9.53348403964
401,200.74892390000002,-0.793986407935,-0.7906364484514,10.34599084816
402,201.24892390000002,0.023401804870799996,0.1206939776675,9.06492140772
403,201.74892390000002,-0.9497113107529,-0.20884556808180002,10.691227293419999
404,202.24892390000002,0.2164068819429,-0.07795816029187999,9.660734339000001
405,202.74892390000002,-1.352758354519,-0.24277578673640002,9.99046525
406,203.24892390000002,-0.30068209701090004,-0.2809652326362,9.12790052404
407,203.74892390000002,-0.5704010624,0.19506290802940002,9.45744009024
408,204.24892390000002,-0.54905708477734,-0.33059237527279994,9.200977353939999
409,204.74892390000002,0.1620419462264,-0.6392664977492,9.47859265312
410,205.24892390000002,-1.2374482218637999,-0.83647098330616,10.40910152454
411,205.74892390000002,0.20105691761779998,-0.6145964952524,9.51840919452
412,206.24892390000002,-1.0928021107926,-0.3971607118386,10.07813833238
413,206.74892390000002,0.19429719978960003,0.08518448356080001,9.65905933404
414,207.24892390000002,-0.8746245334212,-0.40180278667236,10.299857187739999
415,207.74892390000002,-0.40960337520014,-0.6293123582006,9.06401212674
416,208.2485239,-0.66209403158912,-0.705691264834,9.02663626754
417,208.74892390000002,-0.5334080259702,-1.609651799945,8.62579064406
418,209.24892390000002,-1.14123283215,-0.45956551246660005,9.687773208160001
419,209.74892390000002,-1.0326943996636,-0.9225288374356001,10.06698775268
420,210.24892390000002,0.471912479438,-0.25957341018312,9.34043109936
421,210.74892390000002,-1.0476734572327602,-1.1567861745358001,11.128635224739998
422,211.24892390000002,0.41836111287474,-0.32370104540204,9.31726853356
423,211.74872390000002,-0.6686982037172,-0.819541746698,10.656866311839998
424,212.24872390000002,0.90233341724786,-0.39366718117773997,9.4184849079
425,212.74892390000002,-0.3663411506325,-0.46621756920220003,9.35167728476
426,213.24892390000002,-0.1400758358218,-0.8911828694657999,9.23902323782
427,213.74892390000002,0.0840359412868,-0.44200219902800003,9.44968744258
428,214.24892390000002,-0.5933721594104,-1.0837093789182,9.7406067278
429,214.74892390000002,0.5995935030436,-0.11653046590100001,9.34871023206
430,215.24892390000002,-1.1623853863356,-0.6302694814962,10.2672669412
431,215.7485239,0.7234938543184001,-0.564849711385,9.79334447848
432,216.24892390000002,-1.049683437602,-1.2035897841130399,10.71649547516
433,216.74892390000002,0.5219224806358,-0.8539505458808,9.213659354
434,217.24892390000002,-0.569491787574,-0.5725545972612001,9.621204776539999
435,217.74892390000002,-0.5452764248334,-1.06619390583774,9.00199023214
436,218.24892390000002,-0.42898524538620003,-0.23100309646600004,9.56832339298
437,218.74872390000002,-0.6631468631838,-0.4622454826336,9.675426291640001
438,219.24892390000002,0.82274814205802,-0.7970492192432199,9.47045702918
439,219.74892390000002,-1.3473984247717998,-1.2149317736029999,10.542250175060001
440,220.24892390000002,0.4407100753444,-0.5034020285683201,9.40671219836
441,220.74892390000002,-0.944686388822,-0.59126648245,10.54167593008
442,221.24892390000002,0.3493999546754,-0.305467735354,9.53946602886
443,221.74872390000002,-0.8518927210662,-0.47779881831037996,10.21184928882
444,222.24892390000002,0.15227923379996,-0.41721255794,8.40976660766
445,222.74892390000002,-0.4781816762682,-0.0857108978079,9.866134175920001
446,223.24892390000002,-0.7708717464074,-0.623426019552,9.206768026219999
447,223.74892390000002,0.020626130324599985,0.025555341700800004,9.192411031399999
448,224.24892390000002,-1.8881763506159999,-0.7845586898801601,10.38226607348
449,224.74892390000002,0.297619278744,-0.10198210576299999,9.6253683285
450,225.24892390000002,-1.370848082002,-0.6496513454852,10.36403277414
451,225.74892390000002,0.3147997453762,0.34231720548112,9.36316281346
452,226.24892390000002,-1.806246110196,-0.0513021212108,9.9734283069
453,226.74872390000002,-0.33609586556140003,0.255840600879,8.86995425224
454,227.24892390000002,-1.0042198247824,0.052594233702000025,9.74137235624
455,227.74892390000002,-1.0048419515104,-0.584710149993,9.1116293338
456,228.24872390000002,-0.03857229851474,-0.16390835740979998,9.38565546056
457,228.74892390000002,-1.4463177142946,-0.48866223221,10.09924294456
458,229.24892390000002,-0.276514585064,-0.035844484486600006,9.314445018799999
459,229.74892390000002,-1.801412560945,-0.04326221799400003,11.10331916818
460,230.24892390000002,0.4290331006046,0.08949156706580003,9.416474923580001
461,230.74872390000002,-1.435597876034,-0.11557333357149999,9.86393283896
462,231.24892390000002,0.6670232428126001,0.36332618550580004,9.27927048648
463,231.74892390000002,-0.6267281162346,1.148889869118,9.306644325339999
464,232.24892390000002,-0.44496929171440003,0.34069008593,9.2972644804
465,232.74892390000002,-0.29958139608400003,0.35973694683939994,9.36589068438
466,233.24892390000002,-1.37410231880866,-0.039433712035800005,10.265687713699998
467,233.74892390000002,0.1547677681054,0.2352623279346,9.92676832206
468,234.24872390000002,-0.1179182992564,1.18813214774,9.81760773654
469,234.74892390000002,0.6123233126668,1.6434862847284,9.912124261379999
470,235.24872390000002,-0.54833923711146,1.662198189456,9.42126064314
471,235.74892390000002,0.263114776269,0.4454000023578,8.92757340462
472,236.24892390000002,0.35327633838812,0.5010092050396,9.42743413018
473,236.74892390000002,-0.6139504303006,0.32513674121111996,9.63948600768
474,237.24892390000002,0.03608376583424,0.6824808582359999,9.3571808245
475,237.74892390000002,-1.2168938716108,0.085615189118,11.188599405760002
476,238.24892390000002,0.1548156209996,0.68343800943764,9.651785068739999
477,238.74892390000002,-0.933057264591,0.67166532661426,9.685476122459999
478,239.24892390000002,-0.1441436351817,1.3659667393146,9.05362737656
479,239.74892390000002,0.1098305535561,1.6445869968592002,9.2304090881
480,240.24872390000002,-0.7091369172202,1.0281958883793998,9.40230940776
481,240.74892390000002,0.3050370300078,1.058345451108,9.08779681182
482,241.24892390000002,-1.3864492851599999,-0.016223351715800027,10.0700984098
483,241.74892390000002,0.12433105949296,0.5695396414632,9.61574914956
484,242.24892390000002,-1.2898271254148,-0.3115455094682,10.74085442524
485,242.74892390000002,-0.20812771301803998,0.2453121807324,9.25749575628
486,243.24892390000002,-1.2078968611324,-0.1668275944728,10.311342725280001
487,243.74892390000002,-0.2486621260977,-0.17898312923179996,8.45972877484
488,244.24892390000002,-0.28211378726271996,-0.1256231867138,9.46078991938
489,244.74892390000002,-0.74278000839714,-0.5349394285162,8.95963729908
490,245.24892390000002,0.0692482841224,-0.3728496202782,9.854696493379999
491,245.74892390000002,-1.2625967907243,-0.629982347674,10.53689024862
492,246.24892390000002,0.2091805603698,0.09786644620280001,9.69782299986
493,246.74872390000002,-1.2074183034800001,-0.4617190551946,10.36546843612
494,247.24872390000002,0.20258832470806,0.5304887899634,9.70954784468
495,247.74872390000002,0.3163311514531,1.9847386883619997,8.99447676642
496,248.24892390000002,-0.5356572811529999,1.937420667448,9.418676337800001
497,248.74892390000002,0.2582812788322,1.6594703632979,9.00481368082
498,249.24892390000002,-0.9897671590954,1.3271551435144,9.16120865862
499,249.74892390000002,-0.1403629756524,0.30479775003426,9.80148010312
500,250.24892390000002,-1.0793664033834,-0.14646465805000003,11.278461913480001
501,250.74892390000002,0.69564139490924,0.724115991747,9.18350976884
502,251.24892390000002,-0.9325308432706,0.0038285138578000267,10.693955126779999
503,251.74892390000002,0.6566862499634,0.2585205601514,9.24222972906
504,252.24892390000002,-0.8134161288336,0.4912464846184,9.695573788
505,252.74872390000002,0.08973086223799999,0.12878171002679997,8.80400805472
506,253.24892390000002,0.1390708520992,0.3970649960448,9.96471850388
507,253.74892390000002,0.0215832694168,0.023736798336399988,9.55138231262
508,254.24872390000002,-0.1343809240862,0.7606304669889999,9.29630743984
509,254.74892390000002,-1.1855957643779,0.33906296757199994,10.603027772699999
510,255.2485239,-0.20027925690620002,0.1353380386862,9.85216010998
511,255.74872390000002,-0.7642197000268,-0.21966111912279998,10.089288787640001
512,256.2489239,0.61304116815,-0.09834501009260001,9.03510680172
513,256.7489239,0.0575234639486,-0.23349163508314,9.703517942660001
514,257.2489239,-0.05393421663722002,-0.98823576515486,9.30114087106
515,257.7489239,0.15069997316628,0.11241481017174001,9.50567933056
516,258.2489239,-0.41108693433219995,-0.6985606464791999,9.90819998782
517,258.7487239,0.6504649055618,-0.32681171040019996,9.63412612892
518,259.2489239,-0.9077412028128,-1.022261686453,10.67237186436
519,259.7489239,0.754791969965,-0.32169107401479996,9.92136050222
520,260.2487239,-1.093232797416,-0.35533415342040003,10.0440643878
521,260.7487239,-0.17735601220440003,-0.18290736807679997,8.76658433008
522,261.2489239,-0.3779702776778,-0.0299102872026,9.4360482125
523,261.7489239,-0.54374501366366,-0.9941699468445,9.26424353582
524,262.2489239,-0.0639362183026,-0.4161597140446,9.29783872578
525,262.7489239,-0.9245388000394,-0.9684231782748001,10.252335796459999
526,263.2487239,-0.2736432018128,-1.6275501148817,9.44270030992
527,263.7489239,-1.0607861456524,-1.874489418998,10.846377991479999
528,264.2489239,-0.852466992084,-0.9295637316280001,9.16470211942
529,264.7489239,-0.720000335655,-0.04287937599939999,9.910832147359999
530,265.2485239,-0.5281438142894,-0.3555255947835,8.55132602684
531,265.7489239,-0.49938208565659997,-0.10293922682948001,9.47710905066
532,266.2489239,-0.800566665283,-0.37307695636699995,9.08436308836
533,266.7489239,-0.1698186229878,-0.297786777015,9.22878195782
534,267.2489239,-0.91195257397834,-1.0491570174640001,11.012296229379999
535,267.7489239,0.332028074231,-0.3235574843234,9.34789656628
536,268.2487239,-0.5113940530418,-0.4934478832225,10.22797682842
537,268.7489239,0.3069034299856,-0.5950471317046,9.52257278436
538,269.2489239,0.19099509824826,-0.49435715929314,9.57334843658
539,269.7489239,0.4620061987288,-0.9679924685556,8.649958019420001
540,270.2489239,0.5743731504812,-0.977180920564,9.14670820212
541,270.7489239,-0.18553946871236002,-1.5800286488278,9.73022184334
542,271.2489239,0.4108476485184,-0.6034698724620999,9.39556164764
543,271.7487239,-0.49469215530999994,-1.1832029536033999,10.52751034804
544,272.2489239,0.2595255438834,-1.2567104432790002,9.6604471782
545,272.7487239,-0.9880921826419999,-0.999386300534,10.24582732278
546,273.2489239,1.130177995044,-0.8271509314355999,8.76304300286
547,273.7489239,-0.24923639923406,-1.190046399941,9.78161973972
548,274.2489239,0.517902532516,-2.185891341554,8.43245050438
549,274.7489239,0.2036770499024,-1.01618392541094,9.75118299526
550,275.2489239,-0.47545384896112,-1.8483597765068,9.75252301266
551,275.7487239,0.49024150336864,-0.8436135596097201,9.54071038308
552,276.2489239,-0.12308679790539999,-1.4877614009516,10.80010070852
553,276.7489239,1.402146208204,-1.072080257508,9.36517280602
554,277.2489239,-0.306424868372,-1.8295043285036001,10.322876186359998
555,277.7489239,0.9119047090278001,-1.078349435892,9.21394648524
556,278.2487239,-0.1754417464064,-0.66845893540888,9.65015802436
557,278.7489239,1.002257689238,-1.6411891980786002,8.6681914522
558,279.2487239,0.07326823359779999,-0.1954457515628,9.490652409279999
559,279.7489239,-0.1253360499616,-0.9695717306859,9.97993686682
560,280.2489239,0.6035655706264,-0.8145168315136,9.291473875320001
561,280.7489239,0.5114897634276,-1.27996868794426,11.251291379740001
562,281.2487239,1.5070475587176,-0.950381290886,9.29128249126
563,281.7489239,-0.9112347185857401,-0.9699067245226,9.85704146412
564,282.2489239,1.17420593137,-0.87701736074786,8.61679365156
565,282.7487239,0.60308701485,-0.9546405277105999,9.56894564626
566,283.2489239,0.3921357818424,-1.7246508443900002,8.87292148572
567,283.7487239,0.51699325714908,-0.4931607459654,9.55554577772
568,284.2489239,0.0412522673306,-1.2797772648499999,9.70485797862
569,284.7489239,0.42568314566320004,-0.54250075005206,9.69734458004
570,285.2489239,-0.46224546731800004,-1.412483211503,10.09723296194
571,285.7487239,0.06886544238354002,-1.4859428584357999,10.652702876020001
572,286.2487239,-1.24216208454404,-0.3526541911552,9.1413482379
573,286.7489239,-0.4177868366306,-0.60342200734966,9.33995244942
574,287.2489239,-0.4717689151986,-0.6970292291025,9.11507499682
575,287.7489239,-0.7692924723438,-0.30120851003800003,8.98241702108
576,288.2489239,-0.9035776860482,0.3976392614022,9.217822866279999
577,288.7489239,-0.8479206310126,-0.12428321222148,9.8549835497
578,289.2487239,-0.5912664900902,-1.2261301897518,10.18514535008
579,289.7489239,-1.12314311211,0.12413962317600001,9.83478817966
580,290.2489239,-0.45449272607319996,-0.7471349362972001,9.660112104360001
581,290.7487239,-0.58466228188034,-1.76595095334,10.187777456940001
582,291.2489239,-0.33375090629459997,-0.6941099860380001,8.20139964116
583,291.7489239,0.23808585441075997,-0.7255995396706,9.3845067981
584,292.2489239,-0.56848681304828,-0.8196374777658001,9.666716404239999
585,292.7489239,-0.6771687994872001,-0.863473975594,9.51778700838
586,293.2489239,-1.6454005882557998,-0.38009986920419997,9.77519495
587,293.7489239,-0.3784488279206,-0.49646284112904,9.401687278659999
588,294.2489239,-1.297819150048,-0.47650669792499994,10.308519229640002
589,294.7487239,-0.8948678126286,0.60892550996824,9.05759945864
590,295.2489239,-0.999912726708,0.2600519577228,9.7884631255
591,295.7489239,-0.8088219072562001,-1.2523555134261999,8.81798202586
592,296.2489239,-0.616869683856,-0.9011370074696,9.20633726106
593,296.7489239,-0.987517906002,-0.75005418084,9.2916653255
594,297.2489239,0.0991466101136,-1.490237993894,9.59414192218
595,297.7489239,-0.54226147008016,-1.178752280224,10.41198493984
596,298.2489239,-0.1048056348859,-0.7259823904528,9.56468636502
597,298.7487239,-1.2206745391466,-0.6071069566406,10.36589909558
598,299.2489239,-0.5582455234116,-0.279098835692,9.80894569374
599,299.7489239,-0.22554745391264,-0.102843518634,9.77927475928
600,300.2489239,-0.5902614936262,-0.8929057056944001,8.77366704946
601,300.7489239,-0.0793460067286,-0.5401557843601,9.59703734416
602,301.2489239,-0.6654918381364,-0.7782894951522,9.9278210925
603,301.7489239,0.122703941936,-0.5900222083682,9.525013399199999
604,302.2489239,-1.2347922099039998,-0.1588834263047,9.82804044664
605,302.7489239,0.32968309989079997,-0.4599005095348,9.11469219212
606,303.2489239,-0.9273144791248,-0.9025248590554,10.56321126902
607,303.7489239,0.17726029295724,-0.6608497549593401,10.12905747392
608,304.2489239,-0.804706257199,-0.409148733304,9.72008819658
609,304.7489239,0.53546585895708,-0.9164032154020001,9.48371326456
610,305.2487239,0.29211578964132,0.514074011565,9.0006023605
611,305.7489239,-0.16764115333260002,1.0101061647116,9.34894951842
612,306.2489239,0.37634314799465995,0.9916814163790001,9.21720065122
613,306.7489239,-0.8427521286022,0.8942456825038001,9.52094557746
614,307.2489239,-0.169076843272,1.135011477594,9.735486096979999
615,307.7489239,-1.7717415738664,0.464064028768,9.95691789642
616,308.2489239,-0.348873539527,1.37778726758,9.76865047436
617,308.7489239,-0.64395641272852,0.4181696820779999,9.821914787499999
618,309.2489239,-1.1067283130196,1.486421434538,9.160347185360001
619,309.7489239,-0.8023612890119,1.6142460110013999,9.170923414259999
620,310.2489239,-1.6769379618440001,1.6337714545494,8.8586602208
621,310.7489239,0.8367939950064001,1.3991791080056002,9.78642916718
622,311.2489239,-1.1595139966516,1.2854602267019999,9.90534054788
623,311.7487239,-0.29996424809760003,1.813233131158,9.71069640196
624,312.2489239,-1.19186496128,1.1713345322074,10.24774149886
625,312.7489239,-0.2524906454088,1.437559991484,9.55966142646
626,313.2489239,-1.15381908287952,1.316818168118,9.87527478236
627,313.7489239,-1.2201481229042,1.6141024554168002,8.7416032694
628,314.2489239,-0.259764822992,2.370473675778,8.74136396436
629,314.7487239,-1.033555816504,1.5347085884827998,9.48313904792
630,315.2489239,0.438269396592,0.93430152441,9.14402816746
631,315.7489239,-0.7355058180845,0.9023812769464,9.687151068959999
632,316.2489239,-0.41290547615080003,0.8526105668341999,9.34454662256
633,316.7489239,-1.431099360748,0.11102697749339999,10.70295210884
634,317.2489239,0.45923052386720004,0.44085365349165995,9.54362951286
635,317.7489239,-0.1481635814364,0.31862825813,10.1810296532
636,318.2489239,0.313220489652,0.33556944451828,9.1406303022
637,318.7489239,-0.6345287053838,0.292737929388,10.1432708931
638,319.2489239,-0.5587719445292,-0.455449858332,8.77074779524
639,319.7489239,0.035605197835920005,0.07446463930996,9.33186477732
640,320.2489239,-1.117113177093,-0.015409789620999998,9.59110308644
641,320.7489239,-0.9751709404474,0.203724921263,9.18011185644
642,321.2489239,-0.9651689430996,1.289922825124,9.782720384100001
643,321.7489239,0.052642105445079995,0.2774238572398,10.14475442886
644,322.2487239,-1.0115896907293,0.36715469866,10.30579139682
645,322.7489239,0.2177468670386,0.207074875083,9.7576436042
646,323.2489239,-1.0762916203622401,0.6497949089184,9.7639127827
647,323.7489239,-0.5003392181164,0.04230510758956,8.695661039320001
648,324.2489239,-0.8023612786191999,0.159170561706,9.80731862066
649,324.7489239,-1.5663895552028,0.2793859730722,9.74979513128
650,325.2489239,-1.362042504005,1.16434751454,8.75323236424
651,325.7489239,-2.12587935442,1.0361400749258,9.52568342254
652,326.2489239,-0.69355963956,1.6551034772259998,9.8650694183
653,326.7489239,-0.9275178716953999,2.0038693290919998,9.57425763118
654,327.2489239,-0.3866801416381,1.5912270597308,9.82110118904
655,327.7489239,-0.933918682764,1.036235777116,9.9508879282
656,328.2489239,-0.5330730336699999,1.2101461229919999,9.4036015987
657,328.7489239,0.3004428145746,0.7584290753438,8.88110481226
658,329.2489239,0.6583612256252,-0.12337394077420001,8.8803869155
659,329.7489239,0.955693366446,-1.1029955327980001,9.8207662293
660,330.2489239,1.1558768877071999,-1.0388200375838,8.94963518178
661,330.74872389999996,1.1962677487956,-0.5821258936002,9.96912126524
662,331.24872389999996,1.3199766751196,-1.954553246338,9.48821176526
663,331.7489239,0.27306892320520004,-0.513691165422,10.12264471054
664,332.2489239,0.27196821885280004,-1.799976904936,10.077372503200001
665,332.7489239,-0.1915215355658,0.590596491752,9.419777078880001
666,333.2489239,0.3924707816246,-1.6591353650004002,9.64738236458
667,333.7489239,0.19721644306259997,-0.4315695037501,9.19939805976
668,334.2489239,1.4199009625555998,-2.278254290512,9.3090850541
669,334.74872389999996,0.67137817643942,-1.6558332635218,9.6760961821
670,335.2489239,0.8195896204945999,-1.0866286245263,9.37622775096
671,335.7489239,0.0926979480948,-1.4220066518638002,8.98729824998
672,336.2489239,0.5949992803578,-1.3317972197224,9.707490005239999
673,336.7489239,1.1128539454820001,-3.25778018948,9.5566465478
674,337.2489239,0.425108867008,-1.1316136899216,9.2595058349
675,337.74872389999996,1.43478430596696,-3.5650664305,9.0735833834
676,338.2489239,0.555900560636,-1.3717573897354,9.4035536292
677,338.7489239,1.091833018584,-0.6633263353512001,8.79803789144
678,339.2489239,-0.1536192087876,-0.26392832690039997,9.74185101524
679,339.7489239,0.015122636540999998,0.703442001302,9.91442130076
680,340.06892389999996,-0.5481273138285714,0.6284577756,8.088595117571428
