Time_interval,Time,Acceleration_x,Acceleration_y,Acceleration_z
0,0.260290633,0.4049786565232083,-0.6520070967502084,-1.1578091979391667
1,0.7502906330000001,0.286270580276856,-0.1362101507536,-0.17695546148872002
2,1.250290633,-0.22446188568483996,0.3102185117704,0.26424853321474
3,1.7502906329999999,-0.48568106654052,0.0576304697972,-0.47593820568600004
4,2.250290633,0.0897674131822,-0.22817435147179999,-0.507897024192
5,2.750290633,-0.20585034602979999,-0.2254866540494,-0.33922083856477997
6,3.250290633,0.08041385157092,-0.1761139523892,-0.010629959128999994
7,3.750290633,-0.008068625303999998,0.24760345586,0.0812168407552
8,4.2502906330000005,0.28501385807798,-0.20647690893252002,0.5224090289826
9,4.7502906330000005,-1.1555670452238,0.09851852593440003,0.30860845572359996
10,5.250290633,0.03628417849916,-0.3901628393018,-0.684518318112
11,5.750290633,0.017648083619199985,0.0569286185708,0.07946039199038998
12,6.250290633,-0.01788130880180001,-0.10282051534212,-0.520578966148
13,6.750290633,-0.61924817087382,-0.019514395561999992,-0.27531180387
14,7.246018303061224,-0.40714270730571434,-0.30150984467448977,-0.10973791197755103
15,7.751991377088888,0.8557375106593332,-0.17527864542355556,-0.1757307158177778
16,8.245290633,-0.6854095131738001,-0.31764013828838,0.5653970718365999
17,8.745290633,0.31082715723820004,-0.37764908907782,0.046223745293000024
18,9.245290633,-0.38356283602940006,0.1546821719206,0.1257542800976
19,9.745290633,0.5981931561712001,-0.5521024072412,0.35269633294720004
20,10.24529063,-0.5819817656099999,0.23115806699876,0.213432798398
21,10.74529063,0.17571265623040003,-0.2216816925802,-0.05386431687560001
22,11.24529063,-0.2105512656132,0.4314876908166,0.269490489974
23,11.74529063,0.64945057693414,-1.072039645924,-1.0393945312954
24,12.24529063,-0.0852181579098,-0.0031903503609999983,-0.297451095558
25,12.74529063,-0.5499189847914601,-0.51752473773436,-0.07086091041000002
26,13.24529063,0.09458541862932,0.10150727272299999,-0.026393976198460005
27,13.74529063,0.38109090309000004,-0.6333819544539999,0.5883902167799999
28,14.24529063,0.72936486078036,-0.3139828084558,-0.357131280916
29,14.74529063,0.2508889304204,-0.09627369465999998,0.9400256728560001
30,15.24529063,0.8716659462140001,-0.2818561852014,-0.1539103889578
31,15.74529063,-0.3727980735926,0.3145940846358,0.451720314
32,16.24529063,-0.1330176195417,-0.357081322817,0.255503816564
33,16.74529063,-0.456879788638,0.4697921201668,-0.09167723655919997
34,17.24529063,0.3180885064474,-0.8738251709860001,-0.58455004692
35,17.74529063,0.32655068516184005,0.3062938708444,-0.089297704672
36,18.24529063,0.1129563673134,-0.5219238733992,-0.493709239972
37,18.74529063,0.002759846010759991,-0.10456868173976001,-0.05396409985399998
38,19.24529063,0.29956722619160003,-0.250244556042,0.3944946098139999
39,19.74529063,0.19517139390459998,-0.16958828372366,-0.25504281996620004
40,20.24529063,-0.3026483023022,0.087177636656,0.8670245170748
41,20.74529063,0.53473952127682,-0.3842943827446,0.11012404439399996
42,21.243724068888888,-1.2302060672366666,0.27508008550222224,0.2652105649022223
43,21.75029063,1.3114519873622001,-0.9983255183814,-0.04616677284799998
44,22.25029063,-0.6597069220548,0.20454250574105998,0.37701305392199996
45,22.75029063,1.045471477544,-0.77300962925338,-0.32496444701
46,23.25029063,-1.0009026804652,0.11056712747259999,0.567382974612
47,23.75029063,0.625604225104,-0.6272590351918,-0.86866952893
48,24.25029063,-0.028035005340200002,0.03739752652080001,-0.09548322674020002
49,24.75029063,-0.15455776752796,-0.7650549114170001,-0.059567051001999986
50,25.25029063,0.4996494588473,-0.29312541428302,-0.20727865218799998
51,25.75029063,-1.269864455444,-0.52754988374,0.439262933762
52,26.25029063,0.5187234134163999,-0.5335756730834,-0.04398275360840001
53,26.75029063,-0.01307737586380001,-0.05888882283120001,0.5889915943716
54,27.25029063,0.32869005919160005,0.012235074051999986,0.18856531143199998
55,27.75029063,-0.15428431270778,0.15384830056398,-0.834327182724
56,28.25029063,0.0739116895,-0.3646492641932,0.16280153274399997
57,28.75029063,-0.5282812118764,-0.7699973958852,-0.12042330741780002
58,29.25029063,-0.305920122899,-1.3039485110538,0.413775405786
59,29.75029063,0.103537635219,0.0842639839426,0.021289596526000012
60,30.25029063,-0.6019755196100001,-0.25010423005326,-0.0562203216554
61,30.75029063,0.019872387035799997,0.1422001445272,0.2914042758882
62,31.25029063,0.877987456339,0.2726749312766,-0.18543195724866
63,31.75029063,0.1901910328696,0.26934923410102,-0.0949590110794
64,32.25029063,0.027627918741020007,0.3981990694948,0.07498584750159999
65,32.75029063,-0.4325829506326,-0.271952429713,0.055539894120059996
66,33.25029063,-0.3249426400566,-0.15659151568646,0.062273159002600005
67,33.75029063,-0.045359845161639996,0.016673384907078,-0.03753055572622
68,34.25029063,0.05425994515272001,0.08887797891678,-0.0237840270985
69,34.75029063,-0.01789252996316,0.00752638220596,0.0360746955892
70,35.25029063,0.0005874359624800002,0.007931489345987999,0.05556592941544
71,35.75029063,-0.07793779015204,0.0470985518007,-0.00240047454648
72,36.25029063,0.033938524725208,0.0158829411513,-0.00451297759536
73,36.75029063,0.013359502554899998,-0.015115371793599999,0.038157043453839995
74,37.25029063,0.021288769247800002,-0.02171152680991,-0.04204412459989999
75,37.75029063,-0.030112149715699997,0.0221064861106,-0.014516983026499999
76,38.25029063,0.15251228332566,0.37442641886744,0.07596527099323999
77,38.75029063,-0.24316895395376,0.6986133417528001,-0.4948841953032
78,39.25029063,-0.4281193214812,-0.1323291531494,0.3946683406902
79,39.75029063,-0.3618106299922,0.09535253047700001,0.4516722202596
80,40.25029063,0.15291563270478,-0.38589509130856003,0.03007858276200001
81,40.750290645999996,-0.058264178062,-0.05893297437239999,0.27324613571754003
82,41.25029071,0.059355422864900004,-0.0384452462294,-0.35792134291419997
83,41.75029071,0.09952991375280001,-0.2943026828944,-0.1871375846618
84,42.25029071,0.041253931781599994,-0.54153132194256,0.07374389651200003
85,42.75029071,-0.22121289725972001,-0.3011303496266,-0.27658547395899996
86,43.25029071,-0.021048898717019995,-0.43759162905960003,0.13321514132279996
87,43.75029071,0.1520107674654,-0.459045846492,-0.21360947609460004
88,44.25029071,0.1688201365044,-0.210611866773,0.28065958995117996
89,44.75029071,-0.0034387853541199952,-0.2529473090274,0.25798495293240004
90,45.25029071,-0.44132857440340006,-0.04829390526614,0.18202964779519995
91,45.75029071,0.043573299066800006,0.2702338647944,0.4574145411320001
92,46.25029071,-0.29537717638892,0.021307265822000012,-0.183763828126
93,46.75029071,-0.121881580328708,-0.1074640595912,-0.3056847286832
94,47.25029071,0.1624903935642,-0.2801017928504,-0.5304906272459999
95,47.75029071,0.29682501796188,-0.2459180259488,0.09870685570780005
96,48.25029071,-0.1496948182562,-0.183102327543,-0.3290785884926
97,48.75029071,-0.031558127398200006,-0.31062874959805997,0.21890906335400004
98,49.25029071,0.173528962158,-0.231646336889,-0.08658955574519998
99,49.75029071,-0.1313686609336,-0.07798269334200002,0.5406108283524
100,50.25029071,0.5264661753406,-0.2530118954028,0.046122198099419996
101,50.74390750489361,-0.4332734213002128,0.12258359633902766,0.2146403636851064
102,51.26336034574468,-0.20530408625234042,0.13671052710425532,0.27595480453404253
103,51.75029071,-0.42832771394306,-0.1402614445924,-0.5375615596222201
104,52.25029071,-0.0769627869292,-0.049729854746399994,-0.14679965020959998
105,52.75029071,-0.157199609298,-0.2747848848164,-0.2328096484676
106,53.25029071,0.0382380819532,-0.12378279917940001,0.25169339177660005
107,53.75029071,0.3931963471824,-0.38593701303239997,-0.607841339123
108,54.25029071,-0.09560641887780001,-0.294583242265,0.487331018434
109,54.75029071,-0.2937087699846,-0.09203635289234001,0.01931303024767997
110,55.25029071,-0.7438633680562,-0.152602734552,0.447385616248
111,55.75029071,0.26303724769192,0.0127497953082,-0.12448904036280002
112,56.25029071,-0.13735949279100002,0.09370278299200001,0.4046124649066
113,56.75029071,0.2257509780292,0.19954747939799997,-0.34479211808119997
114,57.25029071,-0.0662052154426,-0.49300992757528,0.040235280984
115,57.75029071,-0.350010235244,-0.2947074720962,-0.08237416269100001
116,58.25029071,-0.3074172174804,-0.2267932081026,-0.6255900287392
117,58.75029071,0.006899577166799991,-0.11734055994999998,0.29286984446628
118,59.25029071,0.13030416304172,-0.05199836850539999,0.26359160418020006
119,59.75029071,-0.010126588376699988,0.06653573929885999,0.3675486278048
120,60.24683834163266,0.3386934380532449,0.24582579546897962,-0.17383158936204082
121,60.75614984466666,-0.2205882957906667,0.08229433830888888,0.3238389651888889
122,61.24529071,0.05284775420958001,-0.10993841886531999,-0.42334703442
123,61.74529071,0.3092727167038,-0.3603707313612,-0.355897989284
124,62.24529071,-0.025720609690039992,-0.258705097448,-0.036804685593600034
125,62.74529071,0.06983879386219999,-0.19565509138979997,-0.04609687807640001
126,63.24529071,-0.33835611342280003,-0.11546566932819999,0.26736957545600004
127,63.74529071,0.07189983603566001,-0.14028977123216,-0.008256149274000034
128,64.24529071,-0.2212507909258,0.04030827284519999,0.8065223789372
129,64.74529071,0.6987438917068001,0.12478396774620001,-0.285414524082
130,65.24529071,0.058097155224199996,-0.1683339351242,-0.6568654823278
131,65.74529071,0.0340078717296,-0.005791522298599999,0.261549520528
132,66.24529071,-0.238080105178,-0.11721847411939999,-0.39562919621200004
133,66.74529071,0.036331478048420005,-0.442336445411,-0.2612997723026
134,67.24529071,0.26062834502779997,-0.2677874588608,0.18916868211059998
135,67.74529071,-0.33163912121738,-0.03917954264919999,0.549703826908
136,68.24529071,0.28412559027400003,0.1817423680343,0.31572758674740004
137,68.74529071,-0.25785051226657996,0.2367433467266,-0.47943445205822
138,69.24529071,-0.040172155505100005,-0.09488368450059999,-0.43352079391071996
139,69.74529071,0.060405213535599994,-0.19759584426100002,-0.08853576659800001
140,70.24529071,-0.2661298662442,-0.03982909855079998,-0.20427597042909998
141,70.74529071,0.38832775505986594,-0.4163676869618,0.15308311456680002
142,71.24529071,-0.3167976364662,0.0333530193058,0.4484625053184
143,71.74529071,0.50030116437416,0.0191929263094,0.2729548454188
144,72.24529071,-0.201004176649,0.0993526494332,0.43418651582400003
145,72.74529071,-0.39558685182528003,0.249236431136,-0.5651011657534
146,73.24529071,0.209481063188,-0.283034173228,-0.28978528021
147,73.74529071,0.0928616297114,-0.35344502927348204,-0.20754328731819996
148,74.24529071,-0.07124812485306001,0.02241152347600001,0.19447495459300002
149,74.74529071,-0.024488446708040002,0.1323701593,0.67352723125004
150,75.24529071,0.6897728419316,-0.17068195224219998,-0.293063631146
151,75.74529071,-0.07806217253495999,0.02309661509056,0.3686042118197
152,76.24529071,-0.34439040962,0.31583899050340003,-0.2702749920052
153,76.74529071,-0.33182614923328,-0.2052651774384,-0.5508213233834001
154,77.24529071,-0.14002537130940002,-0.12223720131600001,-0.175001335198
155,77.74529071,0.31518504141119996,-0.3639004840251999,0.2820677089744
156,78.24529071,-0.39072113154820004,-0.0834439392408,0.0495782947088
157,78.74529071,-0.022184075125940006,0.10377773760100001,0.21148488045200003
158,79.24529071,-0.0707404720832,0.2004615344978,0.7815536689835
159,79.74529071,0.2529213815903,0.234129469999,-0.675826225204
160,80.24529071,-0.10056718764800002,-0.1291375601534,-0.29772765159639997
161,80.74529071,0.1144169354256,-0.2041134661648,-0.18375263211719997
162,81.24529071,-0.04140236141042001,-0.0769654819346,-0.29889970784340003
163,81.74529071,-0.17370451333479997,-0.37034844470776,0.14842658997199998
164,82.24529071,0.15240835189024,-0.16729566010959998,0.3448318194836
165,82.74529071,-0.4390746533844,0.1173222533058,0.5495511627365001
166,83.24529071,0.47399562420546,0.01135664659532,-0.16957268713
167,83.74529071,-0.19948764205029998,-0.1578409609098,0.4889969158174
168,84.24529071,-0.38289152859074,0.3382187694278,-0.823815822568
169,84.74529071,0.09940684735319999,-0.12506507933980002,-0.48004064563599996
170,85.24529071,0.05693046211279999,-0.30275024714234,0.263910923054
171,85.74529071,0.1388378087147,-0.03494579453479999,-0.621476535779
172,86.24529071,0.15654737258596801,-0.2360837218058,0.452698412
173,86.74529071,0.19244828209040002,-0.35487829537900006,0.0705177497556
174,87.24529071,-0.5080982020876,0.158425035733338,0.581246042232
175,87.74529071,0.7356510496062001,-0.35686401007040003,-0.0466044521312
176,88.24529071,-0.14500331106292,0.1920276081202,0.824137725824
177,88.74529071,-0.06469694160221201,0.35159887908640003,-0.8761235045654
178,89.24529071,0.3554257883044,-0.22584523296032,-0.07789364815680001
179,89.74529071,-0.6200531876354,0.04020149921660001,-0.06251007081199997
180,90.24529071,-0.1033995908362,-0.2601510829018,-0.551916618396
181,90.74529071,0.5696737420716,-0.35343117982919997,0.578033828728
182,91.23420022955555,0.04041235974175335,0.13642077046222223,0.2994482570135156
183,91.75029071,-0.1947965776776,-0.007821241876799983,0.14814418793999998
184,92.25029071,0.54096540450228,0.012596082078400008,0.6022149086654001
185,92.75029071,-0.1031485960172,0.4247078913012,-0.34652718547399997
186,93.245126636875,0.31057087578435416,-0.0972004570225,-0.7395460605541667
187,93.75781678108696,0.06267717061869564,-0.16321518985217393,-0.11585520662173913
188,94.24529071,0.0029997301056000334,-0.293835593432,-0.196423034669
189,94.74529071,0.07452783944879997,-0.1597621035998,-0.07631082528019996
190,95.24529071,0.280829482982,-0.1272753739062,0.307678890256
191,95.74529071,-0.18758350017376,0.072774207588,0.35881447787892
192,96.24529071,-0.40314800748220003,0.15094761612520002,0.5137725258586
193,96.74529071,0.08202922819228001,0.398691129657,-0.8272284889284
194,97.24529071,-0.2190372801066,-0.18204369898,-0.302539682362
195,97.74529071,0.68408246631558,-0.17308139562240002,0.2402611732432
196,98.24529071,0.04395244593599999,-0.3481081145626,-0.40693438526740006
197,98.74529071,0.414678980172,-0.11483340946359999,0.014177808687599967
198,99.24529071,0.71582935097456,0.0237221416768,0.023506679517799993
199,99.74529071,0.577717436577,-0.25676887450240005,0.22721310613999995
200,100.2452907,-0.025019612007399997,-0.3941134154442,0.454502801852
201,100.74529093400001,-0.73814343735192,-0.20924047948295996,0.20972827907719996
202,101.245292,0.24614898146199998,-0.2151910877196,0.1119273090418
203,101.745292,-0.31809392513414,-0.23600294825860002,0.36650304799600003
204,102.245292,0.49202788468835995,0.10647324088179999,0.041299743663999994
205,102.745292,-0.15102221696154,0.12356076718419999,-0.20940664287040003
206,103.245292,0.017686197754220007,-0.042354717240999984,-0.1262870407126
207,103.745292,-0.12154366425502,-0.39546563746540003,-0.44865177157100006
208,104.245292,-0.2021797056506,-0.1519056510666,-0.20858243945979993
209,104.745292,-0.024789103599999994,-0.283209643366,-0.2030274772034
210,105.245292,0.0225385416762,-0.09792693855800001,0.221157455408
211,105.745292,-0.10367480383178,-0.1496323246072,0.21698729513060003
212,106.245292,-0.50149240014198,-0.08528946696663998,0.47602005959399996
213,106.745292,0.5155692607005,-0.0656343310448,0.05637228957180002
214,107.245292,-0.4010715064224,0.1017857355256,0.47410246857082
215,107.745292,0.3603942815882,0.20216909167854,-0.5195444965326
216,108.245292,-0.09098786817580001,-0.21714004886,-0.35712471962340003
217,108.745292,-0.21250683366200002,-0.3167078694728,-0.22104399677999997
218,109.245292,0.005301487862800007,-0.34687212080499996,-0.22105690963400002
219,109.75220409777778,0.03120681847906667,-0.2386979897788889,0.19600289666888895
220,110.250292,0.08325714659882001,-0.15787635803519998,0.373696470222
221,110.750292,-0.15077879050597998,-0.010932387698420008,0.6227657414268001
222,111.250292,0.49983430179000005,0.3916295921588,-0.0388029765888
223,111.750292,-0.35392525775592,0.03886861270000001,-0.5363726520519999
224,112.250292,0.02297806462864,-0.018750838629800013,0.134929628336
225,112.750292,-0.0861689365027,-0.3750722408218,-0.6489096927842
226,113.250292,-0.19842635209259998,-0.143826371412116,0.26781405448400003
227,113.750292,0.2769073737284,-0.12924469413205,0.012051763510619989
228,114.250292,-0.4133198237782,-0.16517337381898003,0.4374377631964
229,114.750292,0.4918313533048,0.225032685959,0.2037570095122
230,115.250292,-0.2016292032794,0.309571546954,0.14796414368759997
231,115.750292,0.4020424962846,-0.0315736043584,-0.517590637196
232,116.250292,-0.104806606167,-0.5276848542818801,-0.198319616354
233,116.750292,0.0492558675922,0.05540719981200001,-0.06900553697799999
234,117.250292,-0.3565782481306,-0.28035042165614,-0.32216955185400004
235,117.750292,-0.1456937891292,-0.0700666753942,0.283365736034
236,118.250292,-0.18660279737111998,0.13943322478300002,0.36085872657800006
237,118.750292,-0.0857228606418,-0.44580315534299997,0.27901638989399996
238,119.250292,0.18786638439999997,0.32846098182399996,0.12825416563439998
239,119.750292,-0.13144898445179998,0.0439002823914,-0.7973214626336
240,120.250292,-0.06983099255589999,0.170375742936,0.2076685809944
241,120.750292,0.20128813749420002,-0.4226525065186,-0.250083341546
242,121.250292,-0.7073657965656,-0.17859792410403996,-0.06434693336
243,121.750292,0.7594103378138,-0.06538372039760001,-0.13146635053300001
244,122.250292,-0.95645052220946,-0.17803251922680002,0.39881746291360004
245,122.750292,0.5063585178464001,0.611293017864,0.11861385345919997
246,123.250292,-1.2305203485686,-0.626950595343,0.4176424789752
247,123.750292,0.37155891538298,0.0681881517178,0.21951446534600003
248,124.250292,0.6761711001698,-0.3004026973436,-0.2692009353732
249,124.750292,-0.6241122883678,0.2023559164666,-0.5585720920499999
250,125.250292,-0.0974219296748,-0.25530384183599997,0.049075641628
251,125.750292,0.01476923228260001,-0.17021552471708,-0.134682874772
252,126.250292,0.3564903966782,-0.161450348485,-0.263899650608
253,126.750292,0.4402706372674,-0.32486667154000004,0.2641719817806
254,127.250292,0.144031896012,0.10927429202800003,0.04697129246642001
255,127.750292,-0.013502714629799992,-0.06738451364800001,0.277203845976
256,128.250292,0.19859625098859998,0.11317790325499999,0.25622636798719994
257,128.750292,-0.63631382107754,0.6380282288666,-0.3033230590336
258,129.250292,0.51226014614704,-0.3426842197608,0.1804884625
259,129.750292,0.2342372462166,-0.2467589533002,-0.5097213554796
260,130.250292,-0.7508929699806799,-0.14739256362722597,0.1213199137336
261,130.750292,0.3822794100758,-0.41938609717959996,-0.654529552396
262,131.250292,-0.33918030813339994,-0.140239725082,0.44280005449
263,131.750292,0.2881629884648,-0.177272347832,0.425068931618
264,132.250292,-0.34972472012045996,0.1444829988196,0.8046326827484
265,132.750292,0.34094176708440005,0.05697785379062001,-0.4740276718236
266,133.250292,-0.15218164598884,0.0828142204592,-0.3903709506624
267,133.750292,-0.3141800403504,0.07237822563239998,-0.054181518546799985
268,134.250292,-0.016261923874800004,-0.164458328531,-0.411590843182
269,134.750292,0.19054111903919999,-0.37780963953720004,0.040502300162200064
270,135.250292,0.2848361670652,-0.1770559161996,0.10705292701
271,135.750292,0.09486328716820001,-0.036735295063200016,0.6192903805206
272,136.250292,0.070955700865,0.28175611851336,0.26516849523200003
273,136.750292,-0.16952879905620002,0.30977006667696,-0.010323123966740013
274,137.250292,-0.23410405518160002,0.1194514930108,-0.5493522357762
275,137.750292,-0.08737806678827999,-0.43536671639026,-0.3093848324044
276,138.250292,-0.08854370861225998,-0.29227478031,-0.295788736358
277,138.750292,0.22968835146287997,-0.328723230406,0.149287576668
278,139.250292,0.009722181526200004,-0.024615623944146004,0.61355347636
279,139.750292,0.01458688020679999,0.2930004131572,0.5440597915942
280,140.250292,0.1578050506644,0.21003287971720003,-0.2640912722952
281,140.750292,0.038994758109399986,0.3759258079454,-0.5017706489554
282,141.250292,-0.0413617229138,-0.46993079304200003,-0.5322738170474
283,141.750292,-0.2601372313626,-0.29529530529799997,-0.16109327314
284,142.250292,-0.1493218398186,-0.11955479742479998,0.25251482962180005
285,142.750292,-0.034454920282840015,-0.1611152147878,0.5809683418538001
286,143.250292,0.001691991116999998,0.05181413830040001,0.4364093589592
287,143.750292,-0.33322823141869995,0.535078264305,-0.16187196727
288,144.250292,0.2335879886418,0.1643930000204,-0.38216396337200004
289,144.750292,0.2777017754494,-0.5041422930936,-0.624491233774
290,145.250292,0.39050369919719996,-0.170865743749,0.05402541158999997
291,145.750292,0.1810495936782,-0.179495320013,0.12437834737799999
292,146.250292,-0.217097979755,-0.005196207817839998,0.21645620351800002
293,146.750292,0.519483037013,-0.001960624166999998,0.43818287851
294,147.250292,-0.9315968990112,-0.10754080382052003,-0.0589251423094
295,147.750292,0.630747685445,0.1535081666372,-0.027725534452999998
296,148.250292,0.44073057710519997,0.01823100805280001,-0.12008128158760002
297,148.750292,0.338202893742,-0.0953334784694,0.020092525474400002
298,149.250292,-0.07182068415872,-0.373718457226,-0.45969654076978
299,149.750292,-0.303876693698438,-0.40562039079199996,-0.17744408599800005
300,150.250292,0.2208341395862,-0.0891752286158,-0.363526563738
301,150.750292,-0.17936277088605998,-0.4475403619054001,0.5492871665932
302,151.250292,0.4041311704814,-0.0652857297154,0.355722351027
303,151.750292,-0.1044008740094,-0.254064567072,0.09109048842999996
304,152.250292,-0.13812390356772,-0.2457892418192,0.17459693908600002
305,152.750292,-0.5256433629616,-0.25419370412778003,0.219599828706
306,153.250292,0.37245701210459997,-0.1352076315752,-0.11794156076400003
307,153.750292,-0.7937539673389,0.07904367084179999,0.139963531492
308,154.250292,0.4344584876394,-0.07991425513700001,0.191753330218
309,154.750292,0.272912980348,-0.2503245472879,-0.25960330963600003
310,155.250292,-0.02138243139599998,0.038135526208799994,-0.32991915705499997
311,155.750292,-0.041888884791799995,-0.1287213384642,-0.4984099960492
312,156.250292,-0.08756084320600001,0.07810803176499999,0.356091184624
313,156.750292,-0.6218757271831999,0.08400990243520001,-0.5177954959522
314,157.250292,0.04908072411891999,-0.46558551193200004,0.263181562372
315,157.750292,0.2999527643994,-0.22022320388,-0.7153637313960001
316,158.250292,-0.3744690279492,-0.6162418795054,0.34330251711800003
317,158.750292,-0.130901299106,-0.20814649936959997,-0.082217216455
318,159.250292,-0.5092842435532,-0.25115580319939995,0.294873504688
319,159.750292,0.8228869306865999,-0.25310536385430404,0.6793094826310001
320,160.250292,-0.02421247897684,-0.426627136355,-0.0534315491296
321,160.750292018,0.24089198680420001,0.5370127826708,-0.1534498215018
322,161.2502921,-0.16183345260999998,-0.2533124537916,0.6714416981372
323,161.7502921,0.108581025015,0.3087314334776,-0.497039279938
324,162.2502921,0.012817923740819985,0.003636213502600025,-0.34670051571800004
325,162.7502921,-0.16592718197899997,-0.27861870164974,0.058819656345400005
326,163.2502921,0.10718848077959998,-0.21606900687879999,9.46140423400088e-05
327,163.7502921,-0.8342138576697999,-0.008997994372000004,-0.269320907562
328,164.2502921,0.9272414177330001,-0.47271666853199995,-0.776564369262
329,164.7502921,0.024291729902940012,0.0780181246822,0.7743300438199999
330,165.2502921,-0.44555928229339997,-0.46560967443516,0.08799941065519999
331,165.7502921,-0.310598602269,0.0515906190742,0.21449791903159998
332,166.2502921,-0.05689757345959998,0.025539374361399997,0.1315313530458
333,166.7502921,0.14613629282131602,0.13902981520338,-0.2519470214602
334,167.2502921,-0.17436365370600002,-0.15744577169468,-0.401539621266
335,167.7502921,0.43896474958619996,0.07701362014339999,0.04596717830740005
336,168.2502921,-0.159656124106154,-0.11974267124860001,-0.010872363910800048
337,168.7502921,0.26757401884186,-0.029328466646600004,0.2318210220114
338,169.2502921,-0.3043084621312,0.0021981212670000123,0.03875649443760002
339,169.7502921,0.096375349179,0.021383340537600003,0.2492419337676
340,170.2502921,-0.2165813499762,0.012781123986600012,0.15711431504942003
341,170.7502921,-0.2637693118686,0.1692930507754,-0.601115446116
342,171.2502921,-0.0025385871438000107,0.0740172809603,0.05321222307739999
343,171.7502921,0.031875239615599994,-0.2669126981376,-0.613409576432
344,172.2502921,0.08748738022092001,0.020078274885140007,0.21877592092125997
345,172.7502921,-0.06185070038488,-0.2116636412324,-0.09245819090040004
346,173.2502921,0.0009777355270000055,-0.148771923492,0.4097038460004
347,173.7502921,-0.137248132688,0.034752364139639995,0.24804899215600001
348,174.2502921,0.191833580431,0.1736964571688,0.25151185040039997
349,174.7502921,-0.02502457515239999,0.2146555220666,-0.5621884441636
350,175.2502921,-0.07263027757040001,-0.05432517763945761,-0.026067447731999992
351,175.7502921,0.2302423718532,-0.1590928745406,-0.47780468941480003
352,176.2502921,-0.1135342437093,-0.07508171794136001,-0.024843130153399992
353,176.7502921,0.4231977072458,-0.18387070059939997,0.1400106525424
354,177.2502921,-0.3816132688532,0.17413905068096,0.33536514280062
355,177.7502921,0.1466028952686,-0.03670459285319999,0.34365019798800006
356,178.2502921,-0.3207703888812,0.17275475260012002,0.06874040601699999
357,178.7502921,0.136860491033,0.009772065864599996,-0.399138975084
358,179.2502921,-0.1845923101996,0.2042890908918,-0.23604960438000003
359,179.7502921,0.1127145326044,-0.4095290038148,-0.3831763934875
360,180.2502921,-0.27738792380059996,0.1555205786372,-0.21894860263200003
361,180.7502921,-0.3646610295652,-0.7876957803536,0.4678431129816
362,181.2502921,0.8023831856594,-0.41049693880976,-0.2020736693676
363,181.7502921,-1.053028924423,-0.14999210118400003,0.858722200398
364,182.2502921,1.06932901681,-0.30153131380474,0.4007571983706
365,182.7502921,-1.528594937352,0.19549824659759998,0.8009318065959999
366,183.2502921,1.2099038869092,-1.091783112301,-0.528756427734
367,183.7502921,-0.636518566617,0.4075855985186,-0.34141150474
368,184.2502921,0.7571585392632,-0.5657868284062,-0.500301952374
369,184.7502921,-0.4346562974284,0.1649079084616,-0.3337239933026
370,185.2502921,-0.2341470753789,-0.49699318110580004,-0.07338934903419997
371,185.7502921,0.1988728883898,-0.06344569234426001,-0.3000236701522
372,186.2502921,-0.25798898401979997,-0.4063347274286,0.7899741744069201
373,186.7502921,0.281984063401,-0.19260081887108002,0.09315788275100001
374,187.2502921,-0.7673050994317601,0.058328040798,0.5020516681939999
375,187.7502921,0.7265010457626001,-0.2313014775564,0.07588315007800002
376,188.2502921,-0.32075235543319996,0.40389495553419996,0.37982420917200005
377,188.7502921,0.6488268482824,-0.35628627735679996,-0.8154019927755999
378,189.2502921,-0.69547060549492,0.47124760419460004,0.032283363344400004
379,189.7502921,0.6511834740576,-0.6403186513808001,-0.50560420032
380,190.2502921,-0.8422606042334,-0.0588633062022,-0.1712991428102
381,190.7502921,-0.06804538005199999,-0.6302963149659999,-0.08364375115600002
382,191.2502921,0.256113669303,-0.20140539529389798,-0.11756889348400001
383,191.7502921,-0.14669252096840002,0.289878062014,1.472380495036
384,192.2502921,0.97913029018816,-0.640936201781,0.03200761793000002
385,192.7502921,-0.9768935269244,0.4449714692912,0.4880545043936
386,193.2502921,0.6383586597091999,-0.44813093720132,-0.605882072438
387,193.7502921,-0.670192169236,0.529729642433,-0.037133626944
388,194.2502921,0.7218865144097001,-0.6798740421081599,-0.3962545681644
389,194.7502921,-0.1070008903992,0.13845859495934001,-0.09196753497200001
390,195.2502921,-0.3587974118908,-0.5921214675864,0.23693312637759995
391,195.7502921,0.24476754420740002,0.03267718270117999,-0.42214370730580003
392,196.2502921,-0.6823245480566,-0.2558670439994,0.843773136156
393,196.7502921,0.6355054312832,-0.5980230570180001,0.22279445656239996
394,197.2502921,-0.29701051833979997,0.150487997469,-0.232205839182
395,197.7502921,0.0932170739112,0.321835452314,0.8953402042366
396,198.2502921,-0.539085997150708,0.3125743389324,-0.347304811476
397,198.7502921,0.8729252594979999,-0.9356055026919999,-1.0958574581576002
398,199.2502921,-0.395591115195,0.48620706498879995,0.36901644699958
399,199.7502921,0.07754123452,-0.5705631242898,-0.314100542092
400,200.2502921,-0.035173175073,-0.0012228962682399968,-0.052883977936000005
401,200.7502921,-0.3325916838674,-0.3832269430126,0.572724933692
402,201.2502921,0.412045286416,-0.2793783533434,-0.44449574469619996
403,201.7502921,-0.6783657219996,0.224410351454,1.129129247642
404,202.2502921,0.75919907239,-0.47429780603912003,-0.03304839135860002
405,202.7502921,-1.03112278289396,0.333466917429,0.35621818544000006
406,203.2502921,0.571536933179,-0.3789137783512,-0.531184902182
407,203.7502921,0.11173863768361998,0.3417407366878,-0.34578373907199994
408,204.2502921,0.15979963243316,-0.39169984220571996,-0.378525161698
409,204.7502921,0.12326009454159999,0.01210495411760001,-0.23626964573999998
410,205.24681927291667,-0.4762075531291667,-0.1849348554854167,0.4342067042987501
411,205.76058552608697,0.17128852916934784,-0.10572025344847825,-0.10649831394804347
412,206.2452921,-0.4517433952528,-0.021058769206,0.47797764782
413,206.7452921,0.5343474450664,-0.3015401035244,0.13735530853414002
414,207.2452921,-0.40422259093839996,0.5035264152100001,0.726412124653
415,207.7452921,0.5252399545942,-0.37701940715226,-0.31913707738400005
416,208.2452921,-0.3531173783372,0.3758218306064,-0.4626743602874
417,208.7452921,0.0860262573042,-0.76818261530196,-1.033163356748
418,209.2452921,-0.0906081050324,0.11394639583200002,-0.011339645375799963
419,209.7452921,-0.07882405163879999,-0.5522049516728,0.38524269099999997
420,210.2452921,0.7965866304479999,-0.16655273644694,-0.21205720902200006
421,210.7452921,-0.9105719764558,-0.172936538434,1.13602628708
422,211.2452921,0.26990487709107996,-0.26916103303976,-0.33056755061399995
423,211.7452921,-0.47127539873835,0.18542339323,0.767836332342
424,212.2452921,1.0607419145146,-0.3347838473542,-0.23535387985979997
425,212.7452921,-0.7853637212526,0.470178506332868,-0.32954848288
426,213.2452921,0.3100178968636,-0.73413063505486,-0.42249586105200004
427,213.7452921,-0.3209131006442,0.160475738337,-0.31787719729099995
428,214.2452921,-0.1422681694866,-0.41133256029826,0.171395406724
429,214.7452921,0.7817824267992001,-0.15835222310067998,-0.38960832597399997
430,215.2452921,-0.53500068930862,-0.18881979348640002,0.638513297987
431,215.7452921,0.6290103370586,-0.2692544141328,0.09712911607500001
432,216.2452921,-1.2193464425659999,0.14691815313280002,1.0604795265
433,216.7452921,0.7635356329388,-0.7037650210074,-0.21280671124999995
434,217.2452921,-0.6319823607296,0.5426903654022,0.20734486576480002
435,217.7452921,0.424659372594,-0.6086346436322,-0.927512779252
436,218.2452921,-0.3226558241624,0.274696126032,-0.137925109848
437,218.7452921,0.004094286513999996,-0.265230402597,-0.3344965075813999
438,219.2452921,0.82270155058796,-0.2286495724356,-0.40121097562999997
439,219.7452921,-0.8603604638893999,-0.2868385737832,0.8610571384748
440,220.2452921,0.32722037180679997,-0.40687787681579995,-0.2677708816174
441,220.745291956,-0.7411866994390001,0.3080672716972,1.066945419264
442,221.2452912,0.7504759797421999,-0.5726092696282,-0.19758662224079998
443,221.7452912,-0.926845290649,0.57287948011218,0.731227693636
444,222.2452912,0.65443278611386,-0.7900473230908,-1.1577426529455999
445,222.7452912,-0.386345416465,0.4521054491188,0.23244834897599995
446,223.2452912,0.2949898469388,-0.68293751418676,-0.49902198792600005
447,223.7452912,0.5477764475375,-5.0695074999995704e-05,-0.39667530068400003
448,224.2452912,-1.018834472888932,-0.56982971785,0.48834661481720004
449,224.7452912,0.56337150072292,-0.2014441940196,0.0018917083360000398
450,225.2452912,-0.8989935430360001,-0.010937843925800009,0.9894425773519999
451,225.7452912,0.90924613296,-0.4191249835612,-0.30997622489800003
452,226.2452912,-1.1159470245672,0.3033216430416,0.611082324972
453,226.7452912,0.8208096146699999,-0.20956234336006,-0.853472232812
454,227.2452912,-0.303279078622,0.18778685864859998,-0.023158130661800023
455,227.7452912,-0.12654798866344,-0.7007982831838,-0.41379799838400005
456,228.2452912,0.280237763816,-0.03206988367480001,-0.19500654220199998
457,228.7452912,-0.57803337155776,-0.26893372709566,0.36497260091199996
458,229.2452912,0.40954174339698,-0.37568416269224003,-0.24836647029893202
459,229.7452912,-0.8147652905937279,0.21567085266600003,1.1919963742076
460,230.2452912,1.421717866022,-0.6505029564874001,-0.0887932682764
461,230.7452912,-1.68702017007,0.2388840365382,0.32800125121
462,231.2452912,0.7130115511506,-0.46558172226724,-0.3613062095666
463,231.7452912,-0.423358992268,0.29167430404984,-0.46907647128999996
464,232.2452912,0.5258794665324,-0.48982134521314963,0.0464974212612
465,232.7452912,-0.016826101874,-0.037111647706000006,-0.39405053141194
466,233.2452912,-0.43308075604540003,-0.340120433604,0.2480438805024
467,233.7452912,0.24124275400907996,-0.29386141060692,0.2117425441174
468,234.2452912,0.15272053479960002,0.17754480480760002,0.28638479235
469,234.7452912,0.23598245841968002,0.10286606904440002,0.215188970592
470,235.2452912,-0.588960543885,0.43511972905559,0.0172966766182
471,235.7452912,0.5671252733664001,-0.5638664269782,-0.6383736038422
472,236.2452912,-0.16838135629460002,0.1544013899806,-0.3745036411021999
473,236.7452912,-0.1953662580508,-0.6366051058358,-0.08543192858499996
474,237.2452912,0.13228215704422,-0.2786449503879,-0.25218995093800006
475,237.7452912,-0.7027469316116001,0.02605807190799999,1.5458322525524
476,238.2452912,0.7776623640724,-0.31471876563518003,0.12096338273239997
477,238.7452912,-0.612844083608,0.16497714997940002,0.14757887841999998
478,239.2452912,0.38772082165666,-0.07016239522444,-0.473614273088
479,239.7452912,0.1258755548384,0.26512637850480003,-0.34576726907
480,240.2452912,-0.1194794213822,-0.3353200530896,-0.24539650916060002
481,240.7452912,0.37770655127938,0.07577696798860001,-0.48425766946556004
482,241.2452912,-0.5379406720059999,-0.5966903275604,0.4317728328522
483,241.7452912,0.16922779089800002,0.0570167133206,0.07123915671059998
484,242.2452912,-0.7403042126,0.067073528184,1.1977666568958
485,242.7452912,0.6680136489730001,-0.5382303374922001,-0.24732583044779996
486,243.2452912,-0.8244460967152,0.24382531070168,0.7585246849146
487,243.7452912,0.8231400061008399,-0.50570540636812,-1.2595180702595998
488,244.2452912,-0.1791915374509,0.1665224912654,-0.2190500736274
489,244.7452912,0.12589070918700002,-0.773414021773,-0.5299073696546001
490,245.2452912,0.29738026330059997,-0.10422060541820001,0.13090618139199997
491,245.7452912,-0.6947389012128,-0.34833704117399994,0.8807194424406001
492,246.2452912,0.5314638167719999,-0.1600255951466,0.06993217462579998
493,246.7452912,-0.893118736462,0.1659072691016,0.6248102188428001
494,247.2412328020408,0.4978025354832653,-0.2572062666253061,0.03802377356326533
495,247.75172838913042,0.15495336735413043,0.05916839969391304,-0.5489738195493478
496,248.2452912,-0.30515275718720003,-0.07124611858100001,-0.1316777991958
497,248.7452912,0.225966300081,-0.1097816014116,-0.5446176338455601
498,249.2452912,0.088489484786,-0.14147820118659998,-0.2668333911884
499,249.7452912,-0.027715775402199997,-0.144304209087562,0.03849868774916002
500,250.23101022499998,-0.7588003284304318,0.04725711823863638,1.5222621505977272
501,250.7452912,0.9672938284246,-0.5629861861277999,-0.4842286014718
502,251.2452912,-0.9127931472177999,0.42801085947086004,0.922916574402
503,251.7452912,0.44704780254253995,-1.0132431689942,-0.39973448753199997
504,252.2452912,-0.5166210490362,0.515494109973,-0.13307734489820003
505,252.7452912,0.44690134223241995,-0.9653062593798001,-0.8429242134320001
506,253.2452912,-0.58117272258328,0.2978729328768,0.34588295937419994
507,253.7452912,0.03649454024700002,-0.59749788105,-0.10464492794999998
508,254.2452912,0.06375077024720001,-0.11598791120379999,-0.435310726142
509,254.7452912,-0.004906224029000001,-0.05895669821000001,0.88922141081
510,255.2452912,0.326570374513,-0.34127721131039995,0.23685297009000003
511,255.7452912,-0.5011673361194,0.2995720092862,0.5278665733126
512,256.2452912,0.8355686623134,-0.7628478789042,-0.5683566856788
513,256.7452912,-0.2339700818346,0.7985864740786001,0.189404907188
514,257.2452912,0.17642139479484,-1.175571599058,-0.764945812208
515,257.7452912,-0.26504461588992,0.3282290655638,-0.04720668789460001
516,258.2452912,-0.2951994163182,-0.47109522583600005,0.27200068475800004
517,258.7452912,0.2559895687798,-0.1778818716132,-0.05899336813740001
518,259.2452912,-0.6694404553841999,-0.279204665384,0.89024114603
519,259.7452912,1.0058255992612,-0.2179539847454,0.24599861141960003
520,260.2452912,-1.35270171876876,0.2096076664448,0.385364894932
521,260.7452912,0.4564989465512,-0.6587191021497399,-0.856694908166
522,261.2452912,-0.1271056279804,0.4662202748816,-0.012154197745999991
523,261.7452912,0.26431399405140005,-0.8060922562882,-0.5381195640898
524,262.2452912,0.24273428560016,-0.0028615417945999978,-0.28645465852
525,262.7452912,-0.30657127584050003,-0.165343306046,0.728426828424
526,263.2452912,0.29885946749006,-0.54948932351492,0.06354017258439998
527,263.7452912,-0.25091288506424,0.2431381153844,1.1195975780426
528,264.2452912,-0.09192804752539999,-0.6787130022,-0.397589092265
529,264.7452912,-0.1323992863434,0.6451168537542,0.350878725038
530,265.2452912,0.15327718079198,-0.56024344444806,-1.140160608348
531,265.7452912,0.04625996282211999,0.35227842332974,-0.018611011547999993
532,266.2447863354167,-0.18163885888791667,-0.5718875105427084,-0.44096817575520836
533,266.7602912,0.14816899845729167,-0.17359245165729167,-0.3739238182795834
534,267.2502912,-0.35955344320899996,-0.23419333339259998,1.1782920837354
535,267.7502912,0.24881930412519998,-0.12852345673612,-0.1771307945092
536,268.2502912,-0.4177965614024,0.173927570602,0.787411355904
537,268.7502912,0.1065339812454,-0.51840752168612,-0.09096920964
538,269.2502912,-0.1041130200318,0.6314086293887999,0.19078931804700003
539,269.7502912,0.4533515100874,-0.8227535914102,-1.163874340078
540,270.2502912,-0.16773033915676003,0.41496853476440004,-0.0535747146534
541,270.7502912,0.13415167361168,-0.664529070876,0.048888540252000026
542,271.2502912,0.252303938425,-0.015359519743999996,-0.1288372420972
543,271.7502912,-0.357615696464,0.04108632625788001,0.7682141780278
544,272.2502912,0.271473765961,-0.7256568488812001,0.028011512765400023
545,272.7502912,-1.274698466625,0.38403457641000005,1.0966312504176
546,273.2502912,1.7759408312956,-0.827580698734647,-0.6209416294139999
547,273.7502912,-0.9596174951115999,0.63723943112608,0.3573038387562
548,274.2502912,0.7632026580432,-1.4672427445076999,-1.27095640183228
549,274.7502912,-0.8464134788034001,0.3946425545078,0.2574604034304
550,275.2502912,-0.0334272890762,-0.9968644440484,0.012135190927800021
551,275.7502912,0.7482936289778,-0.0725340765472,-0.03406829827400003
552,276.2502912,-0.7936224264267,-0.0793002993326,1.190305185332
553,276.7502912,0.7955951124732,-0.6118448174166,-0.16061015134
554,277.2502912,-1.0810973330954001,-0.061576100634000035,1.021590271125
555,277.7502912,0.9514571167588,-0.42851283908885995,-0.44072933201799996
556,278.2502912,-0.9127702236736001,1.1364908802414,0.06429394719999997
557,278.7502912,0.9409032934798001,-1.6402070188920002,-1.0033774566622
558,279.2502912,-0.5438007685652,0.440786569391,0.024998521736000024
559,279.7502912,-0.006178346805200002,-0.485192829398,0.246190872206
560,280.2502912,-0.12005598132079999,-0.2885860066186,-0.38989873887362003
561,280.75029111,-0.21081857384368,0.12086819650900002,2.0002855681992
562,281.2502907,1.05412021514192,-0.8463987830006,-0.17719252587900008
563,281.7502907,-1.5048754447528,0.291199802721,0.57900976184
564,282.2502907,0.86393601742738,-0.8076199891867999,-0.7802442550332
565,282.7502907,-0.30008369681853997,0.6913881873932,0.14070880891300003
566,283.2502907,0.22156167105799998,-1.497078282842,-1.001024837552
567,283.7502907,-0.34057693213401996,0.5349708688856,0.25771633147399997
568,284.2502907,-0.016378309075000014,-0.622613609387648,0.04794595721599998
569,284.7502907,-0.079560404434,-0.02981060885522,0.23412157064600003
570,285.2502907,0.26009832978360004,-0.34139954923120003,0.582271881098
571,285.7502907,0.3212848748068,-0.032003951038399994,0.7332510566589999
572,286.2502907,-0.6568422073876,-0.0028229334950000107,-0.281813049278
573,286.7502907,-0.047113866803200004,-0.33745324491872,-0.0026472283099999495
574,287.2502907,-0.07571129143399999,0.38663033903732,-0.38282183647400003
575,287.7502907,0.42521702528120003,-0.7165789842604,-0.622518825518
576,288.2502907,-0.10108859598388,0.093438119597,-0.20392392155859998
577,288.7502907,-0.152264125349,-0.033993993692199985,-0.27438673966599997
578,289.2502907,0.23555099670840002,-0.3673091071892,0.803833398882
579,289.7502907,0.16276082043020001,-0.16719266402800004,0.2576124000635999
580,290.2502907,-0.18586895599426,-0.1038026618652,0.25178354264999997
581,290.7502907,-0.02857682349919999,-0.02134296302199999,0.961955223011
582,291.2502907,0.1779026013616,-0.173405912748,-1.521927518892
583,291.7502907,-0.032895331318179996,0.256459365515,-0.6020294474862
584,292.2502907,0.08296418128599999,-0.1940151769204,0.1327625751974
585,292.750429798,-0.408671537369,-0.17946576329637998,-0.09772975922999995
586,293.25637525999997,-0.25898414458777774,-0.129170544538,0.4642620510287778
587,293.7502907,0.35238494756801997,-0.4126125533782,-0.1508985614494
588,294.2502907,-0.262145586631,0.185759518186,1.033080778086
589,294.7502907,-0.17106591101040003,-0.5143187356308,-0.31804537771560004
590,295.2502907,-0.018587654853999998,0.5696942055264,0.354321746838
591,295.7502907,0.0594140642966,-0.29942757782699997,-0.502386188516
592,296.2502907,0.2399896341422,-0.0646462887554,-0.5272428417142
593,296.7502907,0.0839248651278,-0.30635964869460003,-0.23741668698799998
594,297.2387994434783,-0.25533226864126085,-0.019630106881739134,-0.11389681562695653
595,297.7502907,-0.12660016328832,-0.242917320738,0.7600574397839999
596,298.2502907,0.114132621883,-0.17701892465219998,-0.09245335577920002
597,298.7502907,-0.19416454492528,0.20331884977800002,0.7288034439783999
598,299.2502907,-0.1717443901494,-0.31592014684972,-0.0020664596611999963
599,299.7502907,0.0661188772234,0.7432111936704,0.1547494697726
600,300.2502907,0.15953425881334,-0.6405025409198,-0.9034563732380001
601,300.7502907,-0.09066985742725998,0.6184716892566,0.0035801506120000325
602,301.2502907,-0.31669600725656,-0.40792353272340004,0.02269724847800001
603,301.7502907,0.60990129918534,-0.03650570753679999,-0.13019612313140003
604,302.2502907,-0.53864144204598,0.1599224898708,0.20443991662799998
605,302.7502907,0.48883142615636,-0.7256520927956,-0.5901422596374001
606,303.2502907,-0.49982470989219996,0.16469985482808,1.090998039236
607,303.7502907,0.16595905325979998,-0.155981216725,0.395191392932
608,304.24046972888885,-0.5601530800190667,0.3516861147495556,-0.06073024547999998
609,304.7502907,0.42490482968591836,-0.49295933375322454,-0.033820239880000005
610,305.2452907,-0.17629769191598002,0.44791402338888,-0.481654834754
611,305.7452907,-0.097002459451,-0.1584173751222,-0.21248358725000002
612,306.2452907,0.1840989642736,-0.03552271963043999,-0.390106926009
613,306.7452907,-0.244529991432584,-0.19224485936299998,-0.05980942728519999
614,307.2452907,0.1802074834774,0.04650364338800001,0.060960426371799985
615,307.7452907,-0.1473338783064,-0.054890003204000004,0.44227490419
616,308.2452907,0.242262058985368,0.11382901671380001,0.13394661899531998
617,308.7452907,-0.1290669682526,-0.01918699443979999,0.350116033496
618,309.2452907,-0.4031646025028,0.09272915004286002,-0.2812773704082
619,309.7452907,0.14894391147438,0.312563220247,-0.41555158615140003
620,310.2452907,-0.3814366459778502,-0.2804376912494,-0.41942074780896
621,310.74510031041666,0.36059898291616665,0.1581062631142708,0.02503024546145832
622,311.2652907,-0.23019078242586954,-0.17527445502391306,0.17659169699152175
623,311.7452907,0.07752153814759999,0.11743662715900001,0.22092739098559996
624,312.2452907,-0.612492742252,0.35089474794520004,0.4832536792696
625,312.7452907,0.3299975717036,-0.20311935544,0.05851040836200001
626,313.2452907,-0.22065547828226,0.4780879306064,0.23691738132999998
627,313.7452907,0.08324515578507999,-0.40309958934261997,-0.5741948413496
628,314.2452907,0.227464756811,-0.2161657452401,-0.44582685472079997
629,314.7452907,-0.194857363996,0.132178357778,-0.010790128668999976
630,315.2452907,0.0094428399212,-0.038995895375299995,-0.3403454303606
631,315.7452907,-0.004475971170000004,-0.1704133713266,0.08265341756200001
632,316.2452907,0.2881202945244,-0.1440049243008,-0.13288227080200002
633,316.7452907,-0.8943201792568,-0.05063140217280001,1.0515379905639999
634,317.2452907,0.6424434322197,-0.5866749890167999,0.1194427777128
635,317.7452907,-0.33286674917660003,0.50322089498796,0.39922682754440003
636,318.2452907,0.13992957234,-0.5477510919994,-0.2651648902918
637,318.7452907,-0.421225554668,0.5065660803124,0.30943065648
638,319.2452907,0.015309414864500001,-0.5770730572738,-0.9668900394962
639,319.7452907,0.196011294551,0.17778131767719998,-0.242323636972
640,320.2452907,0.2731755411288,-0.1353466255842,0.10679373737799996
641,320.7452907,0.1111416935924,-0.3595385208882,-0.1541719723058
642,321.2452907,-0.12901852251196,-0.11403087847360002,0.25601275444259997
643,321.7452907,0.03205373166259999,-0.028472137155399996,0.341237459162
644,322.2452907,-0.5576796193637,0.2414190616186,0.583239746104
645,322.7452907,0.7529835036454,-0.573764770634,0.2375259303508
646,323.2452907,-0.6292353113486999,0.49767393442352004,0.11904154776400003
647,323.7452907,0.34372297346947,-0.6089595088452,-0.7983519458782
648,324.2452907,0.0973146605286,0.4438893348152,0.005043249168200008
649,324.7452907,-0.1560750711022,-0.17534386130820004,0.13489752766799998
650,325.2452907,0.0656003153444,-0.04212754727491999,-0.4832483196014
651,325.7452907,-0.25516821385084,-0.25453481436002,-0.016906270912000015
652,326.24309857291667,-0.1180945817880625,-0.1302535720105625,0.26188415294416667
653,326.7589176541667,0.016617072733435417,-0.15832615893020835,0.28273084754037503
654,327.2502907,0.18446614949754,0.08473192691388,0.34526222227
655,327.7502907,-0.0154138287948,0.04250918330580001,0.20930150033999997
656,328.2502907,0.14652036206216001,0.18172297834800002,-0.0019772529582000086
657,328.7502907,-0.402304702995,0.142774045472,-0.7575241184208
658,329.2502907,0.19008643258128,0.19735792341817998,-0.5649721908406
659,329.7502907,-0.0925409269532,-0.194660881189,0.330160188728
660,330.2502907,-0.42055330752560005,-0.33765035337342,-0.6157278156379999
661,330.7502907,0.2936001196594,-0.004151455739200012,0.35124481201080004
662,331.2502907,0.028311468993999993,-0.3997365379558,-0.10398937222057998
663,331.7502907,0.28544282469152,-0.2672048121428,0.4410992908632
664,332.2502907,-0.38768831850460006,0.15489124183060002,0.47057291980000004
665,332.7502907,0.8344933110488,-0.0697967142378,-0.2989355277462
666,333.2502907,-0.465703979981,0.1292187404938,0.5615718269451
667,333.7502907,0.23069156206969998,0.21573736134000002,-0.6651320934314
668,334.2502907,0.0427605891354,-0.596668647257,-0.10463177687034002
669,334.7502907,-0.17013963999635998,0.22850416307260002,0.17461264610660002
670,335.2502907,-0.09100193442271999,-0.33624439421904,-0.1646042728255
671,335.7502907,-0.25921693177079996,-0.212981932205,-0.10161997789360003
672,336.2502907,0.2423780730684,-0.37246454150299996,0.16106386184520002
673,336.7502907,-0.10356658932418,0.010285022249600014,0.53483290664008
674,337.2502907,0.54729623735156,0.040092430106800005,-0.3043100643672
675,337.7502907,0.322995604261,-0.26790236708902,0.094666919676
676,338.2502907,-0.13310579713499998,0.18462714377,-0.24783098219400002
677,338.7352627590909,-0.24248948284152272,-0.2390170056714318,-0.27566584678227274
678,339.24529069999994,-0.05290422500579999,-0.3289275470338,0.015009002709200003
679,339.74529069999994,-0.0056529921442,-0.052305190545200005,0.2194074249536
680,340.0652907,-0.6750143627357142,0.6095069061453572,-1.1368718827928572
