Time_interval,Time,Acceleration_x,Acceleration_y,Acceleration_z
0,0.2490501366549,2.57653806148,3.3264246643,8.23233177798
1,0.750350631658,2.0626806335379997,-1.486507791144,9.38297400436
2,1.2516525783999999,3.8238492644320003,-3.6370257660160004,8.48788036194
3,1.752955045,0.7780729887904001,-1.08825795593,9.805431500216
4,2.254258005,-0.07020401001146,-0.560377688592,9.80170125734
5,2.750549229591837,-0.07167951311114286,-0.5618550857163265,9.805313826612245
6,3.2468417675,-0.077419006346884,-0.5626679260240001,9.79908469842
7,3.748148455,-0.06954537964604,-0.563149923704,9.80870369558
8,4.249456482759999,-0.075670642095172,-0.563024185182,9.8064853086
9,4.750765647,-0.07212900695666401,-0.5621380279520001,9.7999199616
10,5.2520755334,-0.0724493408187,-0.5589855835040001,9.80668289792
11,5.7533870049999996,-0.062153750616399994,-0.567739379888,9.80741337892
12,6.249686668632653,-0.07661313116142857,-0.5635261006265306,9.800752902816326
13,6.745987327,-0.078454852296424,-0.557042623902,9.80135397934
14,7.2473020495,-0.078550653073054,-0.560278894048,9.803344839520001
15,7.748617882,-0.07543712768869999,-0.564083981326,9.80675474858
16,8.249934782,-0.060989172363730006,-0.4764891357402,9.8067577423
17,8.751252762,0.08560398559980001,0.20492086486647998,9.84802392888
18,9.2525718995,0.22005738830571,0.345754000854,9.85600233748
19,9.753892007,0.3147564605768,0.458619296264,9.863932845719999
20,10.25019954755102,0.5260489327599388,0.38915401536530614,9.865491746938776
21,10.746508080000002,0.3981989410406,0.649406552124,9.86727090458
22,11.2478312686,0.31737601319340003,1.136613400252,9.92849658496
23,11.749155069999999,-0.17204024046619998,1.1493339477339999,9.97751664704
24,12.250479267600001,-0.27209816892874,1.364487533558,9.81546064428
25,12.7518049202,0.17274677122819998,1.67142724916,10.00569405158
26,13.253132063999999,0.19337088320380003,1.4183575102860002,9.70575677476
27,13.74944648122449,-0.13950072305063266,-0.35734363476075504,10.02416179097959
28,14.2457616608,-0.026426046737999986,-0.3126069305294,9.738634405620001
29,14.74709088,0.5209556671291999,0.5916117370738,9.72124057634
30,15.24842094,0.4442551666358,0.352597769165,9.95187197624
31,15.749751920000001,0.36571648867455997,0.3705574218762,9.9780046326
32,16.25108358,0.45089236448667996,0.48429091187879997,9.67815118126
33,16.75241572,0.09864187315569,0.7220415069834,9.789980630799999
34,17.2537484736,0.01588496704553999,-0.63659619139058,9.95740447042
35,17.75006839591837,-0.582780957885306,-0.8663983154632654,9.876907802857142
36,18.2463907502,-0.8066994598406001,-0.438147866826,9.6875845644
37,18.74772595,-0.4993076843364,-0.3794399505624,9.64467180148
38,19.249058987999998,0.0725990295846,-0.6503495910546,10.093812807860001
39,19.75039404,0.1372885071054,-0.73560031127,9.709822320639999
40,20.251730072,0.2174827423038,-0.710036471562,9.81451461192
41,20.7530664602,-0.0578127777154,-0.662992300404,9.70275401962
42,21.24938989040816,-0.2184538860632653,-0.6663836358469387,9.833675256918367
43,21.745713950200003,-0.001215472408160001,-0.781473916626,9.900977811159999
44,22.247052280200002,-0.121753811669522,-0.920307211296,9.73875415662
45,22.74839051,0.03879931641170001,-1.122692349242,9.7658178778
46,23.249728779199998,-0.26115292969994,-1.342133019974,9.59372674294
47,23.7510671,-0.12887600096716,-1.93231373298,9.89238567808
48,24.2524053588,-0.198394436664,-1.9209284088199998,9.81292192354
49,24.753744190000003,-0.2715233642406,-1.79104350584,9.60153151246
50,25.250070362653062,-0.2346630361034694,-1.7442890587959186,9.78147971644898
51,25.746397189999996,-0.0673090301436,-1.67595383606,9.782580020100001
52,26.2477384462,-0.0898820892166,-1.4761972320999999,9.63049927358
53,26.749080439999997,-0.25474026489668,-1.313611331222,9.73515264578
54,27.2504233242,-0.88914201970174,-0.646721136489,9.86201982452
55,27.751766550000003,-2.4608466430459996,0.13566887512766,9.825316150019999
56,28.253109479,-3.84251245428,-0.41320673217820003,9.6909016662
57,28.749439890408166,-4.008703653836735,-0.7259902954040817,9.86354579367347
58,29.245771582000003,-3.3576647003200004,-0.410662023927,9.65398244036
59,29.74711697,-1.5874189453215999,-0.444865896608,9.912506836
60,30.248462098,-0.2429567688204,0.2832350097698,9.82175056478
61,30.74980849,-0.42637035829,0.38097276306684,9.84859573958
62,31.251155561199997,-0.020597167979079997,0.38698725586085997,9.9027471314
63,31.75250313,0.0016316070415400019,0.31317574767629996,9.736862091079999
64,32.253851645,0.67044380492614,0.1929727111854,9.76139008512
65,32.75018686734694,0.8866246219904081,0.11400476260069797,10.039827173571428
66,33.24652218,0.618426974469,0.10160271606509999,9.78788498856
67,33.74787175,0.7785909119518,-0.13098062438299998,9.79310613138
68,34.2492219692,0.5033013793686,-0.31779214782939996,9.73216785272
69,34.7505729104,0.44749443054284,-0.384029406749,9.866223083260001
70,35.2519253012,0.280426849361,-0.5432024047884,9.98509389008
71,35.75327791,0.2686373657484,-0.7025759857120001,9.672064838339999
72,36.24961667489796,0.07671699680914286,-1.1245655355755102,9.707732054877551
73,36.7459563504,0.22659579164180002,-1.498321224938,9.7440112245
74,37.2473106524,0.184233883662,-1.511835122748,9.74305321656
75,37.74866502,-0.008223898284199995,-0.9985345367440001,10.50968998762
76,38.2500194336,-0.0365300354084,-0.32449221498409997,8.6608187346
77,38.7513744,0.094962524454,-0.34847534180899997,10.27256808478
78,39.25272976,-0.0396525421092,0.08333769836402,9.66823879432
79,39.75408579,-0.07939489746350001,-0.0762244903556,10.055962518500001
80,40.25042871857143,0.016401606951224484,-0.19182456814414287,9.913538771489797
81,40.74677242,-0.03798500977720001,-0.38888830262402,9.63230451992
82,41.2481306624,-0.17200431516752002,-0.43012455141559996,9.8298966243
83,41.74948944,-0.116104559295,-0.654942041028,9.939935797419999
84,42.250848644,-0.19484082640766,-0.7087102295,9.74378968544
85,42.7522084902,-0.1904399780264,-0.8138635620479999,9.81126037876
86,43.253568526,-0.016830999776800006,-0.7425907745320001,9.767587197960001
87,43.74991587408164,-0.4494785698046939,-0.7480006471204081,9.687731809163266
88,44.246264281,-0.2768343200582,-0.86269501647382,9.939157416
89,44.747626739999994,-0.36708164975080004,-0.8929051940782,9.5647230561
90,45.248990054,-0.5958988220554,-1.076893588242,9.82284628602
91,45.75035364,-0.3246568725574,-1.3097703186234,9.90424401842
92,46.251717356,-0.39366337283089997,-1.464653237832,9.71670500778
93,46.75308112,-0.1043001067875,-1.8646304809599998,9.73420960688
94,47.249431185510204,-0.41160121374122455,-1.6715311758714286,9.757502027367348
95,47.7457816202,-2.9351652923360003,-0.8879235534576,9.78509179652
96,48.247146064,-3.94585754698,-0.12095746765422,9.663098483139999
97,48.74851098,-4.15853528132,-0.077463912959944,9.79898291012
98,49.249876451,-4.20095706484,0.13798006896787998,9.81411045186
99,49.75124219,-3.057499896232,0.35405573730379997,9.7370417171
100,50.252608656,-1.239392669668,0.02342329101380001,10.1308577731
101,50.753975090000004,-0.4251698547502,-0.45217669373207003,9.648958886520001
102,51.25032756122449,-0.110164788684,-0.4922651049535306,9.793415100408163
103,51.74668074,-0.15991246033148,-0.48449149475200004,9.7409366183
104,52.248047765,-0.162157791142,-0.47049559936679997,10.011433117840001
105,52.749415070000005,-0.2696432739222,-0.459738967896,9.6849350743
106,53.250783104,-0.07807164915572,-0.6632647339212799,9.92430829424
107,53.7521508902,-0.14639257508589998,-0.702650830074,9.74643917544
108,54.253518389999996,-0.11064990233665999,-0.7340944427620001,9.7049274994
109,54.74987233326531,0.4736975938737347,-0.5323969564590817,9.75506118477551
110,55.2462265862,0.44748844301075996,-0.34087115478473995,9.89989406434
111,55.7475945702,0.1871737701432,-0.3446732482892,9.87168672178
112,56.2489622284,-0.032650103740000005,-0.4696303985532,9.943546289
113,56.750330149999996,-0.09489067382188,-0.49685877685260005,9.59264299576
114,57.251698923000006,-0.098590979007712,-0.60497594603406,9.8720010684
115,57.75306744,-0.2073877349816,-0.64063778687,9.79520177296
116,58.24942194816327,-0.13299384601836736,-0.7287182959755103,9.907835326081633
117,58.74577684,-0.0867176696772,-0.729262490846,9.66328409756
118,59.2471458128,-0.12273876343,-0.695444815062,9.74420581944
119,59.74851506,-0.008780740373340002,-0.9127479309019999,9.83330054688
120,60.249884679999994,-0.0881217498784,-1.010240194738,9.91130333872
121,60.751254499999995,-0.15617922360998002,-1.0810669098680001,9.8113831235
122,61.2526244116,-0.020677999864999998,-0.985469705144,9.663918777520001
123,61.7539943702,0.40987466125620003,-1.128221850576,9.52659434492
124,62.25035066591836,-0.14314824009469387,-2.5883409866734692,9.822903778489795
125,62.7467070102,-0.008349636820820005,-2.39382800906,9.743840579599999
126,63.248077365600004,0.023016137701715997,-2.1114522124999997,9.74509497098
127,63.74944776,0.041852966304,-1.56363041388,9.7322756287
128,64.2508186244,-0.03139870607879999,-1.590313925152,9.98068106726
129,64.75218953,0.1831022369318,-0.97423706357,9.55223302904
130,65.2535607402,-0.15860418090492,-1.4529026732860002,9.86517526254
131,65.74991835489796,-0.48480816277469385,-0.4861736904626123,9.796283625755102
132,66.246275645,-1.556777664198,0.6918373169028,9.8792070832
133,66.74764713020001,-2.45128452756,0.2931204528912,9.8685851714
134,67.2490195584,-2.95016709596,0.615394281002,9.72884775652
135,67.750392,-2.46211001592,1.373480831988,9.85570894788
136,68.2517647516,-0.950978430176,1.669385495008,9.33287618414
137,68.75313769,-1.0080816833324,0.2932791229488,10.5208687405
138,69.24949682489796,-0.4935817547091837,-0.20640852636081633,9.85736578822449
139,69.74585632,-0.09241482238677999,0.33265025024406003,10.0439155704
140,70.24722948419999,-0.0853255645742,0.25906028137,9.64416884742
141,70.7486030502,-0.012202624513699998,0.0689316558836,10.03330862692
142,71.249977335,0.7725494750966,0.21952150269106,9.8986157223
143,71.7513521,1.579251928666,0.08632249145525,9.85285588106
144,72.25272725079999,1.5425482544420002,-0.367174456791,9.74443035288
145,72.7541025,1.625703332446,-0.4457550476166,9.99302140516
146,73.25046435653061,1.676000453434694,-0.2041051529885306,9.815941725795918
147,73.74682636040001,1.9548867920239998,-0.3463856872526,9.709040945
148,74.2482019374,1.708630883818,-0.715787512216,9.83244432678
149,74.74957794,1.134685409552,-0.6665039978020001,9.973507982600001
150,75.2509546436,1.3604579132399999,-0.712536273184,9.78813047826
151,75.75233143999999,1.424392959548,-0.7755791748199999,9.814673281640001
152,76.25370794999999,0.9207802276490401,-0.71184471129,9.80501835924
153,76.75007095918367,1.2941598012693878,-0.5330323698,9.851075806693878
154,77.2464341294,1.27512037357,-0.4525269653366,9.81163460094
155,77.7478115204,1.383599789464,-0.6142207214308,10.16359469576
156,78.249190153,1.6722894561600001,-0.7728907653880001,9.63557072752
157,78.75056875,1.626685290518,-1.046027774032,9.86251379726
158,79.25194721199999,1.4188664520160001,-2.05303169858,9.55450829792
159,79.75332625,0.98535594179,-2.475881378152,9.89124505
160,80.24969187204081,-0.19856361546122447,-1.223818322057551,9.781849355857144
161,80.74605805,-0.36205210878079996,0.33635055540400005,9.72240515458
162,81.2474386782,-0.35100208740679995,1.004701712,9.732338498259999
163,81.74881975,-0.06990163880216,1.658021127282,10.101860074080001
164,82.2502012702,-0.13888119508624,1.8716658508000001,10.02805754704
165,82.7515832302,-0.9302734863134,1.9581140808059998,9.64951572922
166,83.25296547800001,-1.9530396331168,1.4989020172456,9.66135910022
167,83.74933429244898,-1.0912185544571429,-0.04373049055408164,10.568649929959184
168,84.2457037612,-1.6578534759354,-0.5270599731394,9.62609543178
169,84.74708725,-2.377565826396,-0.749497412114,9.58118881534
170,85.2484701988,-2.2861898437279997,-0.9380932250842,10.59753930352
171,85.74985382999999,-2.896276162698,-0.909867919954,9.434158566579999
172,86.25123832119999,-2.276238537606,-0.9208520782398,9.5448982819
173,86.75262319,-0.9302674987578,-0.9277048278847999,10.21224352992
174,87.25400886679999,-0.441312286384386,-0.887145172094,9.682132901060001
175,87.75038085979591,-0.21319339671808163,-0.9448290953612245,9.694770233755102
176,88.24675311540001,0.939979303002116,-0.73188503723604,8.49936747484
177,88.74813962,0.644394973762,-0.9311326995960001,10.41172171328
178,89.24952569999999,0.9048114349906,-0.941236688238,10.418062527279998
179,89.75091248000001,1.2104548462220002,-0.93117461239326,10.1686751308
180,90.2523004744,1.6865996979682,-1.2427217467459999,9.53443504058
181,90.75368871,1.5212355743774,-2.51503695376,9.58617644336
182,91.25006276979592,0.8183818396430611,-3.2913280969795915,9.970246357755101
183,91.74643716,0.47711782835039995,-3.14925608824,9.60041782826
184,92.24782631100001,-0.04665198669812,-1.0875843566480001,9.6172368531
185,92.74921578,-0.11629017335318,-0.5153333587569999,10.0005417661
186,93.2506057952,-0.30715227359588,-0.127495870969586,9.77961917676
187,93.7519963302,-0.36868930664559996,1.0227990783276,9.87767427036
188,94.2533876732,-0.7250263000884,1.34802476808,9.93737013242
189,94.74976562755103,-0.9903069725938775,1.4550385175265308,9.81069956587755
190,95.2461435994,-0.26550288391460003,1.373301205436,9.954521465860001
191,95.7475362802,0.04269421694139999,1.0119646087610001,9.46331792902
192,96.248929671,0.4530957824718,0.71502110597126,10.2587158906
193,96.75032363,-0.55514157717818,0.286177890011,9.74204431518
194,97.25171838,-0.762436505112,-0.527191699222,9.66162854012
195,97.75311359,-0.719655468734,-0.7120752319339999,10.08567273586
196,98.24949505571428,-0.5136400433112449,-0.6937827814836736,9.694363935489797
197,98.74587707999999,-0.2815704711894,-0.713739770506,9.79532751148
198,99.2472738,-0.0360929443342,-0.71241053465,9.6733701232
199,99.74867104,-0.159032290658,-0.753404287736,9.98693206762
200,100.250068658,-0.16183146971747997,-0.94744877018,9.82525926762
201,100.75146682,-0.1878443756166,-0.91554710997,9.55145464802
202,101.25286521,-0.273831564345,-1.211418841588,9.74111325034
203,101.75426392,-0.285839593507,-1.7750298065,9.81267942812
204,102.25065006530612,0.009127957102448986,-3.046730617632653,9.729213914040816
205,102.747035282,-0.13110037536858,-3.1532318207200003,9.6025404143
206,103.248435942,-0.15129937135192,-3.41542059632,9.59053537874
207,103.749836,-0.3929298980478,-3.1431128631000003,10.03540127574
208,104.25123732,-0.26576034851322,-2.5452770692,9.92572434948
209,104.7526388,-0.17426760863815802,-1.706337652578,9.7586208438
210,105.25403988599999,-0.221674026489,-2.0251027771400003,9.76233312374
211,105.75042767755102,-0.20156349961136735,-2.198890648653061,9.80249418012245
212,106.24681598,-0.24142695006656,-1.8825931274199998,9.60999491266
213,106.74821825999999,-0.14974859619062,-2.1093236388400003,9.7490287902
214,107.24962101999999,-0.1423599609358,-0.5255690734378,9.79239960012
215,107.75102362,-0.13915662231901998,0.23633753357,9.81166453856
216,108.252426,-0.13061538391459998,0.267296154784,9.818014334099999
217,108.75382864,-0.1372166564958,0.27560687255800004,9.81821791082
218,109.25021757755101,-0.13090736856224489,0.27309332399795916,9.822754089938776
219,109.7466069,-0.1370609802252,0.27231970825400004,9.82340013418
220,110.248010816,-0.131516510012,0.274077053832,9.81998423774
221,110.74941500000001,-0.13380974121039999,0.27189159851,9.8211368409
222,111.25081914,-0.1308129730254,0.273137008658,9.82209784244
223,111.752223642,-0.1331870361308,0.27234066468,9.81943038934
224,112.253628884,-0.13282478942782,0.281594421386,9.82116378488
225,112.75002024285715,-0.11829074781189797,0.8718909750204081,9.8630845082449
226,113.246411818,-0.08940907288012,1.8792460875800001,9.872905187579999
227,113.74781764,-0.07337142334280002,2.08109833366,9.897624783060001
228,114.24922372,-0.09694739684626001,1.9310323974799999,9.863160452439999
229,114.75063016,-0.306733145134284,1.4834631225800001,9.92226953456
230,115.25203686,-1.791965588352,1.083773281858,9.84772455152
231,115.75344396,-3.7347725006399997,0.611056301884,9.67478318484
232,116.24983747959183,-3.4525856174081633,0.8370684907367347,9.685779745918367
233,116.74623122000001,-2.48767086182,1.197901950114,9.79076799308
234,117.24763899199999,-3.9009269805999995,0.6353897002960001,9.08029443056
235,117.74904714,-2.7893026153800005,-0.7046117523300001,10.326976940500002
236,118.250455684,-1.4423047119380001,1.5098562377913998,9.82776505746
237,118.75186438200001,-0.5403014373834,1.7590041320399998,10.021806545739999
238,119.25327345199999,-0.38271214600619996,1.88481151426,9.97398099958
239,119.74966840612245,-0.37818397055612246,1.9752526450612244,9.85908873522449
240,120.246063092,-0.20588785402566,1.92315278318,9.93093351754
241,120.74747203999999,0.291461901891,1.9085491515800002,9.990090499399999
242,121.248881308,-0.3755091247583,1.353425537116,9.823873151159999
243,121.75029026,-0.181722106943004,-0.6351112792982,9.94840219134
244,122.25169884,-0.0579355224679,0.9032756286638001,9.74540033582
245,122.7531073,-0.19032322082476,0.819719384778,9.87411167898
246,123.24950145510205,-0.3847488901518367,0.7697513346938776,9.8427207322449
247,123.74589548,-0.48688651429819996,0.555237377926,10.10112959288
248,124.24730334,-0.049106881718019996,0.4435546234168,9.63640299678
249,124.74871116,-0.22494322815472,-0.02481838989541,9.83819836108
250,125.2501197,-0.17054035949475999,-0.6379763214062,9.80589852922
251,125.75152804,-0.28637847290819995,-0.859545565808,9.742547268580001
252,126.252935736,-0.45718228455320004,-0.921196362298,9.835860223480001
253,126.74932936530611,-0.5470725608504081,-0.9639739772285714,9.888901230061224
254,127.24572302799999,-1.22950123901,-0.97982644045,9.66859505334
255,127.74713088,-2.1788420746,-1.13343101812,9.8239629632
256,128.248539088,-2.4326752258799997,-2.29860203248,9.2017338958
257,128.749947362,-2.7304450103,-2.99383728324,9.89476872264
258,129.25135563199999,-1.916638330032,-3.30446233516,9.833348446479999
259,129.7527642,-0.939943377644,-3.9142492768199997,9.91300978988
260,130.25417246,-0.40022572631903996,-3.9173807647400003,9.7458284455
261,130.75056692040815,0.42191140623142853,-3.1498508718775513,9.876681742959184
262,131.246961894,0.8584079315116,-2.328279318306,9.73198523268
263,131.74837122,2.1564456481759997,-1.011428723144,9.75830050964
264,132.249780832,3.34812354132,-1.22389389962,9.71684272156
265,132.75119078,4.39718999628,-1.0279274139574,9.58973005374
266,133.252600908,5.92405985414,-1.666768936152,9.424117447
267,133.75401158,6.11479022832,-1.00697099302,9.43258084694
268,134.25040890816328,5.700082331959183,-0.8692943339346939,9.276836270816327
269,134.7468067,2.2654010742060002,0.487994210802144,9.866142251480001
270,135.24821876599998,-0.66241150815218,1.5088652984239999,9.7688326081
271,135.7496314,-2.39697745972,1.6132522247599999,9.778559380899999
272,136.25104439999998,-2.30219755554,1.004183789062,9.66817293078
273,136.75245768000002,-1.7261474578600002,-0.43839335631959997,9.644656832959999
274,137.253871362,-1.56314242864,-0.66948579712,9.75100468148
275,137.7502713755102,-1.3064251117612247,-0.9824437324081633,9.51341471122449
276,138.24667239000001,-0.3692401611338,-2.07752975468,10.10954209878
277,138.74808804,0.10111173705939999,-3.18281031188,9.663140396300001
278,139.24950282199998,-0.0369072509738,-3.38971604922,9.44653782348
279,139.750918242,-0.17992284852336798,-3.5090209533400003,9.56320221862
280,140.252334648,-0.216126562506358,-3.30928231196,9.647782333279999
281,140.75375156,-0.2102976837214,-2.69658841554,9.66199078676
282,141.25015474081633,-0.19003746811561226,-2.092480297469388,9.705498943653062
283,141.74655804,-0.11432026977912,-1.009470794696,9.74388548592
284,142.24797533999998,-0.10453062744172,0.07691605223619999,9.874141616660001
285,142.74939274,0.0442869048998,2.26180555122,9.943420550539999
286,143.250810938,0.0020148101787999984,1.94028615414,9.98436041558
287,143.75222914,0.44440485534479995,1.8985409638,9.94103451232
288,144.25364662,0.983454895014,2.6427783141999996,9.90399254168
289,144.75005018979593,1.5489513879510204,1.0015672302018368,9.908580714755102
290,145.24645464,1.7456459106220001,-0.05970783691600001,9.66567013578
291,145.74787342,2.01231337284,1.464656231748,9.73297617176
292,146.2492921,1.668918466166,2.00365238336,9.94040282632
293,146.75071088,2.207651165774,1.96028756102,10.556288086459999
294,147.252129884,2.3007395874600003,1.0256431640453,9.54285054028
295,147.75354908,2.16234637758,-0.6439518951009999,9.952198296939999
296,148.24995382857142,0.22894431600793877,0.8606093332653061,10.02825226489796
297,148.74635868,-1.0407736998904,1.297426986654,9.82534908042
298,149.24777835999998,-3.1824690216,1.44252625122,9.59474163194
299,149.74919814,-3.91575215152,1.4326617645,9.91347083096
300,150.25061784,-1.9807140838039998,1.3901292114800001,9.85987029404
301,150.75203778,-0.431166384852,1.228327679468,9.8625587036
302,151.253457644,0.2492047760018,0.871897879048,9.84520379362
303,151.74986308979592,0.040965831525102046,0.2678450541542857,9.852212218938776
304,152.2462681,-0.2781096679658,0.0210342590377,9.63184647218
305,152.74768744000002,-0.28919262086816,-0.792724520878,10.41240130032
306,153.24910711,-0.34391282959098,0.2339305389386,10.57683735394
307,153.75052724,-0.23942411498976,0.679964007566,8.71751184048
308,154.25194786,-0.12454999694793999,0.617912045288,10.65990860588
309,154.75336884,0.16611556090964,0.592018890384,9.59014319444
310,155.24977599387756,-0.1703640933865306,0.15495837464979592,9.91214269532653
311,155.74618314,-0.14734459532538,-0.62447140503,9.88221882006
312,156.247604622,-0.22350621643036,-0.8148066009599999,9.762560650620001
313,156.74902624,-0.149964147949204,-0.78946729431,9.796854336380001
314,157.25044767,-0.1821741668724,-0.8301287383960001,9.89582253162
315,157.75186918,-0.022118005375300002,-0.8759035491660001,9.64606390714
316,158.25329064,-0.11143427124264,-0.9297974762,9.885664654900001
317,158.7496979163265,-0.029601708236326532,-0.9591931027612246,9.771325322204081
318,159.24610551199999,-0.151128726203,-0.9997470153620001,9.744059125260002
319,159.74752704,-0.222024298096772,-0.990364526394,9.67015480962
320,160.248948362,-0.29687165221484,-1.001522323558,9.8372373601
321,160.75036962000001,-0.182500488284,-0.994076806624,9.80203356654
322,161.2517909,-0.0757993743864,-0.991612930304,9.898744455180001
323,161.75321254,-0.1876108611992,-0.992436218246,9.9644937283
324,162.24962017959183,-0.1681065430944898,-0.9583866166285715,9.581254250816325
325,162.74602814,-0.10701845398035999,-0.985122427372,9.8497902561
326,163.247450576,-0.22099144592736,-0.9557415252539999,9.70125713208
327,163.74887312,-0.13221705321924002,-0.968824319478,9.7334402067
328,164.25029525000002,-0.1004770568736,-1.14395712889,10.7713518575
329,164.75171734,-0.1125898681638,-1.43996956784,8.55784187644
330,165.25314011999998,-0.11808943175846,-2.0111398131800002,10.05203768056
331,165.7495486979592,-0.054746358458367346,-2.0396126852857144,9.617225366653061
332,166.245956672,-0.1060634399156,-1.9481537933800002,9.81228125632
333,166.74737864,-0.10600356444239999,-0.929456185892,8.89747061466
334,167.24880056,-0.16162190553359998,-0.9846583923500001,10.177683398980001
335,167.75022260000003,-0.28714487915340003,-0.8772118286180001,9.7884867373
336,168.251645344,-0.264763421632924,-0.835406762696,10.11966105726
337,168.75306813999998,-0.11230845337286001,-0.761337789916,9.94753699052
338,169.24947612857142,-0.17106060417578572,-0.7193795527265305,9.662901810693878
339,169.74588404,-0.16006813659592,-0.418245254521,9.95693744144
340,170.24730643200002,-0.084193917847,-0.17054335327324,9.655736791839999
341,170.74872896,-0.08972940674726,-0.307972567748,10.00551143192
342,171.250151824,-0.20010986938791198,-0.2960932708742,9.755016339520001
343,171.75157476,-0.14836247863738,-0.3110561553944,9.8796860865
344,172.252997708,-0.15603252868972,-0.263473104854,9.79394438782
345,172.74940644081633,-0.2341742566230612,-0.22361050975334693,9.712842855571427
346,173.245815082,-0.22154828797338003,-0.2714275634754,9.910872235340001
347,173.74723788,-0.25761129455388,-0.293707232664,9.69966145004
348,174.248661278,-0.2759511566212,-0.3190974334748,9.92313174152
349,174.75008480199998,-0.1942660217094,-0.32224987792599996,9.93919034772
350,175.251507618,-0.2394630340608,-0.2722957580496,9.7179863431
351,175.75293043999997,-0.2000589752204,-0.2865221740714,9.846865337819999
352,176.24933945714284,-0.23002879551644898,-0.3498866925918367,9.878163356142858
353,176.7457483,-0.26923911438299997,-0.54356465149,9.79227086786
354,177.247171094,-0.271340744016,-0.73172037964,9.78721438308
355,177.74859383999998,-0.2691852264194,-0.849962493876,9.805913497819999
356,178.25001676399998,-0.2419089477574,-0.847848889166,9.802485625980001
357,178.75143984,-0.219144287108,-0.8893186523440001,9.67538193936
358,179.252862938,-0.15282020874580002,-0.925890600556,9.82416354718
359,179.75428614,-0.13298645324406,-0.920397024518,9.86854026476
360,180.25069495102042,-0.03576032987779592,-0.9230539687632653,9.72517537334694
361,180.74710385999998,0.013828244020800002,-0.940880429082,9.849167550739999
362,181.248527224,-0.04396956481822,-0.924549389666,9.724677429
363,181.7499503,-0.11618838501102001,-0.9286598419080001,9.81171543238
364,182.251373428,-0.37126395264812007,-0.912852713018,9.761366134820001
365,182.75279660200002,-0.33457824095211997,-0.9420090820260001,10.0028769103
366,183.25422038600001,-0.24831263123220002,-0.9067813385,9.77373341642
367,183.75063018163263,-0.061014955479367354,-0.9584721530020408,9.58553412622449
368,184.24704019600003,0.008487350460199994,-1.458767477446,9.5462694304
369,184.7484648,-0.1088566314812,-2.23841219782,9.8217924775
370,185.249889362,-0.18283279723852,-2.9530950074,9.73016202442
371,185.75131382,-0.29665011290324,-3.04669237058,9.616886581480001
372,186.252738884,-0.20195104064688,-2.6804669403,9.7954951634
373,186.75416411999998,-0.16728612670092002,-0.954753579698,9.66479894722
374,187.2505747897959,-0.23210305350285715,-1.056160845067347,9.849691950244898
375,187.7469852,-0.24198678589038,-1.91333919068,9.7226895629
376,188.24841073,-0.28555518493548,-2.47853984988,9.720540032899999
377,188.7498364,-0.217413885499558,-0.8610065277200001,9.62818807988
378,189.251261094,-0.10658136291727999,-0.823883724982,10.06513544346
379,189.7526857,0.69179839782344,-1.167545077532,9.86247787132
380,190.254111022,2.37029394844,-1.5708903168000001,9.71490574942
381,190.75052214489796,3.675646250244898,-1.2110122992530612,9.613104344530612
382,191.246932768,4.10733275752,-1.0187125763,9.81240998856
383,191.74835760000002,4.32647704464,-0.5949797332819999,9.5920562164
384,192.249782292,4.56162006218,-0.7516050292900001,9.49536029684
385,192.75120729999998,4.11882286372,-0.693489880364,9.90614805906
386,193.25263253199998,2.93721902158,-0.31760952759225,9.81677191752
387,193.75405792,0.47785429687986003,0.09753717040912001,9.86106181634
388,194.25046908367347,0.05471275485240816,-0.22283762717936734,9.791322513469387
389,194.7468804,0.10135423278812,-0.5852948730422,9.78868133244
390,195.248305492,0.08435558166878,0.5852439788838,9.91685678982
391,195.7497306,0.009136999504219997,0.750281780992,9.8012851229
392,196.251156376,-0.0097896423318,1.123785076928,9.949902072139999
393,196.75258183999998,0.152371142586,1.4059632843,9.91766510882
394,197.25400733200001,0.4027704345647,1.38509368286,9.90276509388
395,197.75041860204084,0.4908323700467347,1.4177660261224492,9.935909598020409
396,198.24682987399999,0.46286446839261997,1.36584371338,9.91314450974
397,198.74825565999998,0.16451389160920002,1.32011680298,9.86891748054
398,199.249681782,-0.18393450622356802,0.7442313629109001,9.8321060302
399,199.751108184,-0.288054986572,-0.7549251251193999,9.85999303906
400,200.252534556,-0.23184986572709998,-0.1336331085053,9.87240522742
401,200.75396106,-0.23373893737494403,0.15887960815662,9.840805939240001
402,201.2503739,-0.3344443153902041,-0.4507188477771429,9.777129578816327
403,201.74678694,-0.48150670165526,-0.2708347961402,9.90951006748
404,202.248213218,-0.6877029144079999,-0.07194339294408,9.854960504020001
405,202.7496393,-0.811899645988,0.009059161375,9.71563024266
406,203.25106606199998,-0.8020142028476,-0.0010717712417399991,9.92535910972
407,203.75249282000001,-0.7832402434964,-0.016672329713198,9.7756913456
408,204.25391973,-0.30895452575052,-0.481515682988,9.82017583892
409,204.75033242040817,-0.2353259433060612,-0.4445449517753061,9.942337048408163
410,205.24674486,-0.17020805054322,-0.14868580627323,9.70302046522
411,205.74817162,-0.031087353510400005,-0.21613255005475998,9.89008346602
412,206.249598006,-0.11616144104055999,-0.1694566131628,9.83866538952
413,206.75102432,-0.19899019775340002,-0.14453344115812,9.82555565142
414,207.25245145600002,-0.2699516326914,-0.09002279662578,9.76375816058
415,207.75387881999998,-0.21144130554218002,-0.064542782594948,9.83422262922
416,208.25029149795918,0.17980670227769796,-0.10386869780734694,9.885656956510203
417,208.74670416,0.310999273682814,-0.15115267639196,9.89074808286
418,209.24813102,0.41910147400180003,-0.19982546081199998,9.82864223332
419,209.7495578,0.2950065307586,-0.2382745056238,9.72724608756
420,210.2509851,0.49116761169,-0.35238820496,9.88191644934
421,210.75241266,0.16788787536494,-0.47422584229000003,9.8074612794
422,211.253839932,-0.03674259339,-0.4127037780774,9.80932340714
423,211.7502528020408,0.04968443577979592,-0.4049538125795918,9.913835094142858
424,212.24666625999998,-0.06328240356133001,-0.668372113036,9.76830270986
425,212.74809421999998,0.42780737001592,-0.897527581788,9.854939547459999
426,213.24952176,0.9528944457759999,-0.9544901275700001,9.87402186592
427,213.75094941999998,0.9771799438259999,-0.95983401487,9.64871639094
428,214.2523778,0.99986676634,-1.031313372806,9.90130413212
429,214.753806482,1.0041119384672,-1.031969009432,9.72993150332
430,215.2502208897959,0.9534713277969388,-1.0306037872142857,9.811603807632652
431,215.74663550000002,1.077327685516,-1.007372158798,9.96715818786
432,216.24806438,0.9826735199,-0.8171806640699999,9.819726772540001
433,216.74949332,0.9614955596764,-0.772774008204,9.67528314504
434,217.25092216000002,0.9998727539319999,-0.7478777801500001,9.91673105192
435,217.75235093999999,0.9554660980340001,-0.635895648198,9.772326342600001
436,218.25378016,0.994346246324,-0.597847769166,9.82166673922
437,218.75019531632654,1.053661959902041,-0.5970227704734694,9.811017272632654
438,219.246610048,0.9888766205026001,-0.6084157928439999,9.93491224362
439,219.7480391,0.887465506006,-0.616651666264,9.751342978079999
440,220.249468456,0.49114066772456,-0.4824796783484,9.83380350034
441,220.750898,0.15478711853188,-0.06704557800542,9.82469643856
442,221.25232722,0.4199427246124,0.10925480347005401,9.816783893
443,221.75375649999998,0.37201539001238004,-0.0924507476822,9.87292315054
444,222.25017179183672,0.502413389275102,-0.5954617309591838,9.77011559322449
445,222.74658717999998,0.730717465245,-0.782758245836,9.9027082123
446,223.24801665200002,0.5626619384482,-0.753509069824,9.7874598728
447,223.74944599999998,-0.0033350647013400026,-0.69526219481,9.84031795384
448,224.250875714,-0.5935217651243999,-0.6741710540760001,9.82241218898
449,224.75230552000002,-0.89568341674,-0.6424430328340001,9.883631881800001
450,225.253735352,-1.000312838724,-0.663761700436,9.85632566544
451,225.7501509510204,-0.8808417495612245,-0.7805472518020409,9.754282192693879
452,226.24656617,-0.5427323821894,-0.854833364858,10.06831483176
453,226.74799552000002,-0.42348435974566,-0.9115474273379999,9.78767243054
454,227.249424986,-0.6294620269434,-0.905071893304,9.66932553414
455,227.75085428,-0.9348000732280001,-0.9017009033000001,9.8183167053
456,228.252284074,-1.3568085021940002,-0.973509576428,9.80659009094
457,228.75371404,-1.36284095764,-1.176143197628,9.80942220164
458,229.25012987959184,-1.1205086657408163,-1.309315020532653,9.701869756163266
459,229.74654588,-1.1767748840580001,-1.251152215588,9.7495257566
460,230.24797651199998,-1.1834629760839999,-0.968800369266,9.78101726982
461,230.74940728,-1.054913296524,-0.875331738302,9.66925068954
462,231.250837942,-0.994037887538,-0.78553946228,9.80811691588
463,231.75226866,-0.8937434509259999,-0.796092517084,9.80271614678
464,232.253699518,-0.75347913209,-0.888746841426,9.85085005168
465,232.75011605918368,-0.9809773939795918,-1.086223838965306,9.896434544244897
466,233.24653253600002,-1.015892440822,-1.3156949982000001,9.798644613499999
467,233.74796326,-0.930941097986,-1.50242269594,9.71087912292
468,234.249394728,-0.8303412963854,-1.7366765625,9.84124302988
469,234.75082652,-0.78045603334,-1.93972332458,9.730796704120001
470,235.252257872,-0.5060287078918,-2.2918181396,9.68501590578
471,235.75368930000002,-0.3316353607388,-2.14198272406,9.72221355312
472,236.2501067020408,-0.09289865298879592,-2.1555572913877548,9.719297800122447
473,236.74652414,-0.08425678711188,-2.29222828676,9.716004464740001
474,237.2479561,-0.0536244873052,-1.9773460876000002,9.76012671194
475,237.74938817999998,-0.2434267913846,-1.92362280572,9.68989875202
476,238.25082058,-0.23396347045972,-2.29831762386,9.69479956024
477,238.75225316,-0.24960294799201999,-2.58157658386,9.64570165994
478,239.253685396,-0.2983386016874,-3.0056537109800003,9.68502189306
479,239.75010328367344,-0.20754799357102038,-3.115840983510204,9.735503895040816
480,240.24652158199999,-0.021633013921039997,-2.76643017886,9.61111159052
481,240.74795454,-0.016346008297612,-2.69580105286,9.693266748180001
482,241.24938707599998,0.004691244508664003,-2.22009927978,9.71106473696
483,241.75081932,0.03488046569904,-1.8310882324,9.73694292276
484,242.25225189600002,0.02973716125926,-1.3912758270219998,9.76479101254
485,242.75368461999997,0.063387185670686,-0.86242557678,9.7893220002
486,243.25010339387757,0.048603011149973466,-1.0898285877306122,9.78371893744898
487,243.74652247999998,0.07362589416594,-0.681463888528,9.81282612304
488,244.247956198,0.07932005309892,-0.614891326908,9.81111069032
489,244.749390322,0.07667954406869999,-0.612514270014,9.809712597699999
490,245.250824182,0.07932604065120001,-0.615579895024,9.809544946199999
491,245.75225798,0.079667330932,-0.614654818724,9.812371069340001
492,246.25369234000001,0.07938890991295999,-0.615609832762,9.811972897319999
493,246.75011248979592,0.07603270550020408,-0.6150923374714286,9.81291740257143
494,247.24653266,0.07846383362306,-0.614732656862,9.80831450508
495,247.74796716,0.077781253049984,-0.615546963502,9.8120327729
496,248.249401706,0.07975115662156,-0.6151517852739999,9.81443976746
497,248.75083616,0.07365283813710401,-0.61363693542,9.81110470268
498,249.252270882,0.07901768188876,-0.614217727664,9.8107185059
499,249.753705722,0.07758965149118,-0.613759680182,9.8150774415
500,250.25012614489796,0.07979019787796938,-0.6137054256530612,9.811496887204083
501,250.74654664000002,0.076820251462864,-0.6134692840520001,9.80974552916
502,251.2479812,0.07939489745716,-0.615409249876,9.81020058286
503,251.7494156,0.079224252320788,-0.61479253235,9.8150205598
504,252.25084985,0.08209228820473999,-0.61697798767,9.8125716523
505,252.75228402000002,0.07588320007609001,-0.614166833506,9.811892065439999
506,253.25371887,0.07949967956368,-0.61344832764,9.80842527468
507,253.7501398489796,0.07850104195869388,-0.6153092333755101,9.81300293912245
508,254.246560512,0.08153843994168,-0.614705712894,9.812490820319999
509,254.74799557999998,0.07708370361054001,-0.613211819462,9.81404758298
510,255.249431124,0.07973918151864,-0.61531943664,9.80806003404
511,255.75086668,0.07932304687292,-0.613020217894,9.81297880554
512,256.25230277,0.08189769287163999,-0.61336150817,9.8151732422
513,256.75373908,0.074967105104332,-0.6121520233119999,9.81419427798
514,257.2501603469388,0.07858657836693878,-0.6125781779367347,9.809688403102042
515,257.74658184,0.07685917053178,-0.6135710723919999,9.81131426698
516,258.248017828,0.08173303527655999,-0.6145739868119999,9.81639170836
517,258.74945414,0.075802368161592,-0.612457388308,9.8109071136
518,259.250890496,0.07928412780468,-0.6138914062540001,9.811095721440001
519,259.75232676,0.078490777586182,-0.612265786744,9.812874023540001
520,260.253763504,0.0791763519312,-0.6134513214039999,9.81069754942
521,260.7501858653061,0.07625876602079591,-0.6122513066489796,9.812104806734693
522,261.24660866,0.0820443878159,-0.61428059692,9.8116645386
523,261.74804616,0.0768621643115,-0.613217806998,9.815505551180001
524,262.24948294,0.07714657287502,-0.613151943972,9.81049397274
525,262.75091951999997,0.077173516847594,-0.61189455871,9.81085023188
526,263.252356712,0.081158230590736,-0.6135441284200001,9.81403860168
527,263.7537942,0.07802374878,-0.613990200808,9.81452059938
528,264.25021680816326,0.08064250711963265,-0.613745138989796,9.811506051857144
529,264.74663934,0.076176589964596,-0.613445333862,9.80861088868
530,265.24807643,0.08164621582140001,-0.614816482548,9.81067359924
531,265.7495135,0.0776225830072,-0.615193698122,9.81666414176
532,266.25095067,0.07902666320861401,-0.612511276248,9.81048199766
533,266.752387942,0.07936795348916,-0.613298638916,9.81125738524
534,267.25382497,0.07909552001692,-0.613720761102,9.8146942383
535,267.7502475387755,0.0786507306842204,-0.6123429528061224,9.81150605187755
536,268.24667074,0.08120313720418,-0.61439735413,9.80987725522
537,268.748108742,0.07702682190075999,-0.613328576662,9.81139509894
538,269.2495459,0.08200546875169999,-0.6144482482979999,9.813029699600001
539,269.75098264,0.07881111145158,-0.61226878051,9.81467328192
540,270.25242013999997,0.08025111694652401,-0.614550036618,9.80901205442
541,270.75385758,0.077826159666738,-0.613675854492,9.8115148499
542,271.2502807653061,0.08126264610938776,-0.6137298646265306,9.812220891836734
543,271.74670392,0.0786135223378,-0.613433358762,9.81378113708
544,272.248140976,0.07937992858824,-0.613556103512,9.810161663819999
545,272.749577942,0.076999877931,-0.612181961056,9.8105119355
546,273.251015132,0.081358813473004,-0.61495718994,9.810556842019999
547,273.7524524,0.08000862121766,-0.613148950198,9.81560135204
548,274.25389053,0.07983797607695,-0.613651904296,9.8112094848
549,274.7503148102041,0.08468410258306122,-0.5268340348182348,9.835465411775509
550,275.24673880800003,0.18642832031308,1.4370416564566,9.90872569898
551,275.74817736,0.305293139634,2.34791847842,9.97675622926
552,276.24961586,0.19166443175236,1.4640455016960001,9.89504714386
553,276.7510543,0.08411308593938001,2.19456837166,9.93870835
554,277.252493152,-0.14908697204348,2.92897716064,9.95392869914
555,277.7539321,-0.3117896301291,3.2458681824399997,10.00321520686
556,278.25035705918367,-0.652474804337551,1.8865513859918368,9.856159113653062
557,278.746782462,-0.6285938324028,-0.6304050659139999,10.03907763044
558,279.24822128200003,-0.52278186950728,1.2432007507340002,9.73404794312
559,279.74965954,-0.5376459594768,1.720653881774,9.86310057668
560,280.251098532,-0.4588228729356,2.2942730346599998,10.0121037234
561,280.75253774,-0.17452207946720602,2.28460314326,10.058375500559999
562,281.25397674,-0.17855169982436,2.1401146087000003,9.949105727940001
563,281.75040138571427,-0.48016475755408167,-0.4406622096438776,10.041901432387755
564,282.24682623,-0.38019737548480004,0.6060776550101,9.984016131639999
565,282.74826576,-0.1728485595718,1.0572185027960002,10.125690518059999
566,283.249704888,-0.24086112670864002,1.5099490448,8.77649817826
567,283.7511439,-0.09506730650895999,1.329975302124,10.40110878236
568,284.252583096,-0.27014024047634,1.33201406249,9.84003653892
569,284.75402228,-0.05174439696946,1.28438311158,10.24041794106
570,285.2504473183673,-0.04236190795366327,1.302417119779592,9.775592978571428
571,285.7468725,-0.31644794312679997,1.3024116210599999,9.91326725428
572,286.24831212000004,-1.3209191344920002,1.28469147036,9.766895636100001
573,286.74975152,-1.88954766538,1.262151342726,9.872941113100001
574,287.251190874,-2.1274299865,-0.3894301757676,9.80001875602
575,287.75263029999996,-2.2755469757,0.3993066375782,9.73199421374
576,288.254070116,-2.69982767944,0.735582348622,9.93718152508
577,288.7504961326531,-2.266311670434694,0.8054750061122449,9.732956131816326
578,289.246922176,-0.8520431671655,0.75116494446,9.75167828072
579,289.74836316,0.5079177795222001,0.5697182647719999,10.17840489724
580,290.24980361999997,1.03945643926,0.567056799314,9.582895267
581,290.7512438,0.9650551575580001,0.551974163822,9.96099700004
582,291.252684868,1.2742222412372,0.542879077148,9.835333319
583,291.754126124,2.0812989165999998,0.48557823486400004,10.10828471394
584,292.25055304489797,2.278647242979592,0.4563459217285714,9.862788185489796
585,292.74698015999996,2.44497963866,0.3970912445,9.836605673320001
586,293.248421688,2.7062553130800002,0.3181514007578,9.94821059028
587,293.74986342,3.40349339898,0.20135228576119998,9.7702636321
588,294.251304944,3.5022460419200003,0.16758550414968,9.82678908694
589,294.75274618,3.5844820313000003,0.104141436765306,9.93199630748
590,295.254187862,3.3970148711799997,0.09251661071796001,9.963763247860001
591,295.75061508979593,3.2109910770408168,0.10277505368661224,9.890239264387755
592,296.247042668,3.4001673156599996,0.05839656371984,9.72222253394
593,296.74848514,3.14832801814,0.10318941649312001,9.85531676338
594,297.249927168,2.6777725433,0.15868201904432,9.8586638028
595,297.75136910000003,2.150931115618,0.1872096954325,9.88748486928
596,298.252811496,0.7382318389426,0.3498255340606,9.84095263404
597,298.75425422,-0.2980122802576,0.412096041864,9.89975335662
598,299.25068206734693,-0.5413599504828571,-0.7234516968926531,9.750579687673468
599,299.74710974000004,-0.36560272522383996,-0.6803412231288,9.79575562158
600,300.248552448,-0.2370410705586,-0.13268108825764,9.88413184232
601,300.74999562,-0.058989331055198005,0.13066328430124,9.73182356854
602,301.251438384,0.0574804687438,0.17930313720796,9.89045169946
603,301.75288114,-0.0872924743674,0.17837207336618,10.05132815622
604,302.2493091367347,-0.2797132313036735,0.07342079006752654,9.852465773551021
605,302.7457369,-0.3122925842218,-0.00394878845024,9.68556077272
606,303.24717974,-0.43914778747096,-0.48853009644022,9.75492353216
607,303.74862268,-0.3143972076378,-0.39800434570516,9.65902695044
608,304.250065844,-0.22224284362988,-0.1922571991018,10.273978152740002
609,304.75150936,-0.27255322266020005,-0.12801080017218,9.62943648416
610,305.252952336,-0.27474167175186,-0.6875502319311999,10.00715202016
611,305.74938069183673,-0.22339972359881632,-0.8861083486367347,9.544684379612244
612,306.245809602,-0.24046594848538,-0.4363126831068,9.85887037346
613,306.747253,-0.20389998779587998,-0.1733485198958,9.88967032462
614,307.248696506,0.059638980103200005,-0.2265927978574,9.92478430488
615,307.75014018,-0.0440084838986,-0.2111209716758,9.6229160432
616,308.25158362400003,-0.1594574066184,-0.2604224487312,9.99202747176
617,308.7530267,-0.25961412963662,-0.25839266967756,9.857355523579999
618,309.2494561632653,-0.18890716552836734,-0.3076347600179592,9.638010714979591
619,309.7458862,-0.22843995666459999,-0.537936355598,9.84259022822
620,310.247330288,-0.39733374023538,-0.3673211517362,10.04638842788
621,310.74877472000003,-0.3676025665222,-0.29652138061940003,9.637980716240001
622,311.25021872599996,-0.29743448181119997,-0.31842084045374003,9.892771875040001
623,311.75166248,-0.13342354431754,-0.3509152679434,9.896038082579999
624,312.253106826,-0.12856764221354,-0.46849575806,9.749780227579999
625,312.7495369510204,-0.21718000450285713,-0.6118572281816327,9.71442833402041
626,313.24596692,-0.30554761046424,-0.5920548156600001,9.84509901082
627,313.74741144,-0.24746838684888,-0.5444208709739999,9.79865658868
628,314.24885582999997,-0.1760309417718,-0.585303854368,9.93102333026
629,314.75030002,-0.1824825256314,-0.568418966678,9.78811550868
630,315.251744514,-0.3332969055126,-0.6076763305666,9.79468385038
631,315.753188902,-0.3320395202602,-0.588279666134,9.8383390688
632,316.24961921020406,-0.33626501901551026,-0.5673110868510204,9.787143448795918
633,316.74604968,-0.26373655698538,-0.6024701568556,9.83974614266
634,317.24749376,-0.21392015075669998,-0.581028744508,9.7866425719
635,317.74893746000004,-0.241810153190346,-0.5629792785659999,9.753465563659999
636,318.250382,-0.32706386719418,-0.62042681579,9.87146518282
637,318.75182712000003,-0.31270273132094,-0.62482167664,9.79691121818
638,319.253272,-0.35598672179634,-0.88970484924,9.82731898506
639,319.74970254693875,-0.4786251021493674,-1.1616364054693877,9.727521514959182
640,320.24613318,-0.37062627869910003,-1.242811560068,9.91687475262
641,320.74757796,-0.31526540222344,-1.23163879396,9.81138611748
642,321.24902334,-0.3798321350132,-1.220214550746,9.66828968828
643,321.75046904,-0.2961501526036,-1.216223849462,9.771527005200001
644,322.25191434,-0.2196861602654,-1.180193774388,9.6863152035
645,322.75335942000004,-0.0640817413396,-1.192480224576,9.93043954488
646,323.2497906387755,-0.032891805221734696,-1.172417048189796,9.68672675657143
647,323.746222422,-0.20797152099320002,-1.176795840456,9.95982344056
648,324.247667982,-0.28786637877584,-1.167823498472,9.69509295052
649,324.74911346,-0.2964465362495,-1.1511332061900001,9.81515228602
650,325.25055906,-0.32791709290605603,-1.12945229188,9.6941109922
651,325.75200438,-0.23274201049382,-1.169176684582,9.792746877739999
652,326.25345002,-0.24799529113132,-1.156638757298,9.7781941406
653,326.7498813367347,-0.26910060648979595,-1.1726278343816325,9.897143274632652
654,327.24631268,-0.391268353277,-1.142633880618,9.32871184392
655,327.7477585,-0.39179825135100005,-1.17702636107,10.08243347148
656,328.24920434599994,-0.31430739440899996,-1.133029852236,9.7265245878
657,328.75065007999996,-0.2260149993868,-1.15725846862,10.11449380182
658,329.252096274,-0.17219891052000003,-1.105831411684,9.60583057278
659,329.75354278,-0.27753186950436,-1.156402249072,10.00683767436
660,330.2499747877551,-0.28241679289428573,-1.330741891667347,9.620949255428572
661,330.7464068,-0.26740692443552,-1.7435412871400002,9.48623527208
662,331.247853502,-0.09053473205615999,-1.8536942231,9.95047687694
663,331.74930004000004,-0.2269789947496,-1.83700093686,9.56725279526
664,332.25074636600004,-0.5453908538838,-2.14376401972,9.7802119445
665,332.75219254,-0.28355234983620003,-2.0609861572,9.75203453964
666,333.253639042,-0.10245594175392,-2.12349616694,9.71226823452
667,333.7500712673469,-0.3481820741217755,-2.694436685979592,9.773833371918368
668,334.246503856,-0.46090055233949995,-2.46420266418,9.54040462626
669,334.74795126,-0.051714459228400005,-2.59153986514,9.72594379584
670,335.24939879,-0.04701123961157999,-2.52557803338,9.782768628060001
671,335.75084688000004,-0.04986430664116,-2.06506667178,9.7191329589
672,336.25229447600003,0.1509520935056,-2.35694470822,9.70063143302
673,336.75374153999996,0.17287250977660001,-2.4954906005,9.6886293912
674,337.250175,0.3972830293467347,-2.507585449265306,9.711205444571428
675,337.74660861999996,0.5492438415404,-2.40404576116,9.72902438966
676,338.24805656999996,0.57956478882368,-2.39357952578,9.74143657816
677,338.74950442,0.4943290374802,-2.0492475678,9.70875354314
678,339.250952596,0.42668470459139995,-2.2111269379,9.74136772136
679,339.7524009,0.23855891419046402,-2.94554171442,9.61506936046
680,340.25384922800004,0.03128793639188,-3.2250165436600002,9.66074837048
681,340.7502835204082,-0.24159148548183676,-3.161489933489796,9.657876546244898
682,341.24671739999997,-0.5353437469483999,-3.4107952148800003,9.659532898
683,341.74816572000003,-0.5351281951764,-4.17412985228,9.68439918792
684,342.2496143,-0.659588378931842,-4.65093632814,9.48329538572
685,342.75106242000004,-0.5760291412292,-4.88312748418,9.575476693739999
686,343.252511104,-0.4958049682544,-3.72478227538,9.599786142020001
687,343.75395982000003,-0.4477578826858,-3.01767072142,9.66181415412
688,344.2503942714286,-0.2895865771244898,-1.0036445430612244,9.780211944653061
689,344.74682917999996,-0.22799388427636,-0.043460623177599994,9.86945935384
690,345.248277932,-0.1030966094969,1.648117721552,9.91942544816
691,345.74972651999997,0.14312636719218,2.2860581177,9.9516504362
692,346.251175332,0.6822572387986,2.149838388028,9.913668420599999
693,346.75262386,1.437329058796,1.24244332585,9.86809718626
694,347.25407242,1.7421761261200002,1.1438643218759998,9.90245972876
695,347.75050693061223,1.9721824988571428,1.0968914514714285,9.879718284918367
696,348.24694117599995,1.68570755318,0.521084399452,9.923790371339999
697,348.74839018,2.098468212836,-0.030072463997799996,9.81474513292
698,349.249839142,3.2208282531999997,0.8794481780987999,9.68075277102
699,349.7512876,3.46008471686,1.353209985316,9.848610708039999
700,350.252736868,3.24707467346,1.76457255256,10.0041672273
701,350.75418640000004,2.48370710448,1.8420125153,9.79291752314
702,351.25062139591836,1.047711069505306,2.155285407897959,10.059314201408164
703,351.7470573,0.560192074592,2.19543057862,10.16482813086
704,352.248507202,0.502184701536,2.1522872955,10.0180852838
705,352.7499566,0.3304378509454,2.02945871886,9.805350668620001
706,353.25140658600003,0.03396137695794,1.5508499908235998,9.991285015879999
707,353.7528565,-0.022147943116280003,-0.6693391021658001,9.78921721832
708,354.2492920734694,-0.09132233911693878,0.8544354372428572,9.91861902332653
709,354.74572809999995,-0.21261486511114,1.118240606714,9.9044446013
710,355.247178566,-0.07920628966998,1.27781477054,9.86495671714
711,355.748629,-0.04053271179194,1.29226571952,10.034970172340001
712,356.25007897800003,-0.05638774109066,1.219310430898,9.83764451322
713,356.75152970000005,0.0778531036382,1.184902981582,9.97439414102
714,357.25298016,0.06552474060065999,1.101652102662,9.890556482460001
715,357.7494164040816,0.014370117181632655,1.1047730208183673,9.852630736408164
716,358.245852838,-0.171351672366416,1.11625274042,9.87820117526
717,358.74730416,-0.155544543459,1.033187475566,9.9172938815
718,359.248755248,-0.26362878112598,-0.6490532867326,9.74015224874
719,359.75020592,-0.11921808471897,0.27638824767572,9.89556207316
720,360.25165732,0.045933480841799997,0.50886979981,10.01026853934
721,360.75310934000004,0.0573247924844,0.6262197692920001,9.78984591074
722,361.249546477551,0.11527253442887755,0.6529788581734693,9.850079918714286
723,361.74598378199994,0.043888732908700004,0.615091909794,9.99692229332
724,362.24743530599994,-0.16091836852480002,0.6359255859399999,9.7616625182
725,362.74888606,-0.108760830691,0.589240667718,9.90057065752
726,363.250337912,-0.202166592405,0.58388181153,9.89113727426
727,363.75179024,-0.15328125000613,0.5758644836460001,9.85453538796
728,364.253242126,-0.11913126525286,-0.7388784942594,9.83072889396
729,364.7496789877551,-0.29470348747591835,-0.43463494746273473,10.018540826979592
730,365.246116932,-0.1901256317166,0.1045186523449,9.71147787748
731,365.74757012000003,-0.10804831237522,0.22327270202760002,9.6930122773
732,366.24902284399997,0.014750326543413995,0.23819666748343998,10.04906785546
733,366.75047576,-0.03696113891396,0.2188868225062,9.80378193066
734,367.25192866799995,-0.06022276611692,0.09566306763168,9.66892736218
735,367.753381602,-0.061522064205479995,0.061471170044938,10.096878433419999
736,368.2498201183674,-0.05521680870330613,0.0632847252687755,9.800832329632653
737,368.74625871999996,-0.12848082275248,0.013166619873540002,9.78851368114
738,369.24771207,-0.23493644714146,-0.9929960540839999,9.8295044404
739,369.74916512000004,-0.16467854919658,-0.56877821961428,9.79723454604
740,370.25061888,-0.15745157776420002,-0.1418001251178,9.686141565
741,370.75207298000004,0.028392956544780003,-0.028871960450959997,9.89694519624
742,371.253526796,-0.08262817382415999,-0.02099533996762,9.79993493042
743,371.7499659938776,-0.13994673437469388,-0.6064409403768776,9.80171518755102
744,372.24640541,-0.29544661559738,-0.937440582248,10.542235309
745,372.74785918000003,-0.3105082946756,-0.873409735134,9.73345517538
746,373.24931326,-0.29594657592614,-0.8388555908140001,9.57694963092
747,373.75076742,-0.27120303039572,-0.867455117818,9.9176231961
748,374.25222162,-0.27305917053024,-0.919412072768,10.9912745271
749,374.75367588,-0.2114562744268,-0.8000233428839999,9.69017717274
750,375.250115832653,-0.14724482322233468,-0.818589570967347,10.12010615177551
751,375.74655636000006,-0.1513053588922,-0.80601687926,10.108919394179999
752,376.24801083,-0.1335732330386,-0.7609725494340001,9.5613939786
753,376.74946448000003,0.1379651001084,-0.835900735462,10.42349922194
754,377.25091884,0.6107299804494,-0.810992532346,10.36436618938
755,377.75237364000003,0.41947569579814004,-0.6640041961748,9.09211385208
756,378.25382799,-0.1953497680724,-0.579394143668,9.96871195654
757,378.7502682510204,-0.902778784332653,-0.3381376554502041,9.245090042530613
758,379.246708336,-1.1596804320764,-0.19437379760909998,9.83596799952
759,379.74816246,-0.72798414916142,-0.26764343263414003,10.73203461944
760,380.24961752,-0.5993596252455999,-0.055142330939000006,8.39187600384
761,380.75107276,-0.21349204101582,-0.6684529449374,9.51396660464
762,381.25252811999997,0.10465636596899999,-1.009165429646,9.22822879946
763,381.75398370000005,-0.006517446899580001,-1.0601015076359999,9.41285187382
764,382.2504248265306,0.018234530083959182,-1.0617665349346939,9.344978242204082
765,382.74686624000003,-0.7106921081346,-0.996121554502,9.42596759966
766,383.24832227999997,-0.48601233215679995,-1.020886056458,9.62395787666
767,383.749779,-0.5578359741226,-1.067094964568,9.54063814104
768,384.25123526000004,-0.5288382751177599,-1.7364819671200002,9.5821049101
769,384.75269114,-0.4969186523668,-1.966397854598,8.36680014956
770,385.25414737200003,-0.746961685182,-2.0385597931,10.18080291168
771,385.7505888795919,-0.534675890855102,-1.969811918346939,9.893917329530613
772,386.24703056,-0.17266893311546,-1.9546712403000002,9.523807141019999
773,386.74848732,0.052801199352800005,-1.98462095944,9.62189516594
774,387.249943632,0.154209320066146,-2.03698506776,10.0057509338
775,387.75139946,0.148170877078,-2.01924096676,9.670624832020001
776,388.252856028,-0.02055226136276001,-1.99282988892,9.93282558258
777,388.74929812448977,-0.1428396980110204,-1.6578728438367347,9.574396063428573
778,389.245740358,-0.14221326598359998,-1.16147370303,9.97341517666
779,389.74719748,-0.205166354367628,-1.3382081817720002,10.09220215706
780,390.24865443199997,-0.19929855649859998,-1.44200234078,9.934442220780001
781,390.75011168,-0.3669469299348,-1.51249974058,9.9073964632
782,391.25156873599997,-0.17466278686298,-1.054386392152,9.88542814644
783,391.75302538000005,-0.1789139465322,-1.031070877076,9.81415236522
784,392.24946754897957,-0.19905544981491838,-0.9211507836040815,9.850638960244899
785,392.7459096,-0.44049498596666,-0.526631863402,10.03942790226
786,393.247366298,-0.4496469543504,-0.271011428833,9.8518379976
787,393.74882326,-0.2802232726892,-0.11590397643494,9.96849041714
788,394.25028004,-0.2339485015874,-0.2584974517796,9.99400036894
789,394.75173692,-0.1585742431676,-0.610268939208,9.82143322428
790,395.253193936,-0.13743220825282,-0.66837810059,9.91305469686
791,395.74963610204077,-0.1531437807659184,-0.6344266214163266,9.756997973061225
792,396.246078838,0.0022543121273600007,-0.47872847901199994,9.79721658354
793,396.74753652,-0.028198361203499996,-0.34315839843600004,9.952916803199999
794,397.24899410600005,-0.14515315245456,-0.371479504394,9.77815821548
795,397.75045182,-0.22369183043940002,-0.46568460388399996,9.8822637271
796,398.251909458,-0.2974165191713,-0.6323240753120001,9.8192926757
797,398.75336662,-0.3891278045638,-0.575493255614,9.824920972280001
798,399.24980990408164,-0.289210827890551,-0.6600325572693877,9.726036847265306
799,399.74625372,-0.257946597295,-0.6428801238920001,9.7901153506
800,400.24771159999995,-0.25620422059072,-0.606595578004,9.74255325608
801,400.74916934,-0.292653424074,-0.49059580078799997,9.83366578668
802,401.25062696000003,-0.255084548962274,-0.489643780526,9.92712244232
803,401.752084422,-0.241642501819,-0.50235534668,9.763961736799999
804,402.25354186199996,-0.23496339111588,-0.569101547244,9.8306211183
805,402.7499843489796,-0.22448114823142856,-0.6339470065346938,9.844853032979591
806,403.246427132,-0.23029310302298,-0.590803417968,9.73470357974
807,403.747884482,-0.21489312742102,-0.6427154663100001,9.89146359564
808,404.249342156,-0.234520312501386,-0.653756506346,9.84534450052
809,404.75080034,-0.21677920532080003,-0.66162115173,9.7044844204
810,405.252258304,-0.22746398619619998,-0.688657928472,9.92535012806
811,405.753716462,-0.2376877258336,-0.627854370108,9.505712768439999
812,406.2501601122449,-0.20469168838081633,-0.6913938716938774,9.977098435163265
813,406.74660334,-0.2245001495351,-0.7315168029839999,9.893810714799999
814,407.24806163200003,-0.27349626160036,-0.755793319702,9.85985532562
815,407.74952028,-0.3745870422336,-0.78438087159,9.6782619506
816,408.250978792,-0.2544558563118,-0.832793197636,9.89628057838
817,408.75243724,-0.2166744232277,-0.87484674684,9.808955173000001
818,409.253896088,-0.22421274718858,-0.878885348518,9.69653594966
819,409.7503406510204,-0.24378793833269385,-0.833760064579592,9.919474387163266
820,410.24678523,-0.2983835083054,-0.808780133054,9.8065421903
821,410.74824508,-0.317232311995848,-0.844319229138,9.84807182906
822,411.249704602,-0.288911206055,-0.879103894062,9.757276639
823,411.7511644,-0.28112140503433997,-0.8989286682380001,9.7618481324
824,412.25262426200004,-0.32567774963159996,-0.8876571075440001,9.833147863819999
825,412.7540833,-0.4187062957792,-0.889207882682,9.78378351754
826,413.2505289102041,-0.36406435285285715,-0.8739805073693877,9.74245372865306
827,413.74697483999995,-0.28266918640272,-0.881163610828,9.7702606388
828,414.24843526999996,-0.25962311095668,-0.888686965958,9.90059161418
829,414.74989628000003,-0.28654911803822,-0.8802145843620001,9.825519726380001
830,415.25135689,-0.45537404479764,-0.86327580872,9.75988421618
831,415.75281714,-0.28971653137412,-0.7145660522420001,9.644623901300001
832,416.254278018,-0.21319266357522001,-0.48356043090440004,10.0264169584
833,416.7507243489796,-0.2767652799692388,-0.2646160546061388,9.791682988306123
834,417.247170846,-0.20391495667853998,-0.20887264709348,9.91511740728
835,417.74863230000005,-0.10741961974660001,-0.2951083190936,9.78245428174
836,418.250093528,-0.22674548034426,-0.5387027618454,9.7879269011
837,418.75155508000006,-0.22514081726059998,-0.701531158442,9.65664390554
838,419.25301638999997,-0.20816911010624,-0.775731857298,9.89062833262
839,419.7494626530612,-0.2708449383179592,-0.8020993727081632,9.994896118571429
840,420.24590945999995,-0.24682173157120002,-0.7914671356159999,9.65170118398
841,420.74737176,-0.2515459075898,-0.777261676026,9.786639578199999
842,421.24883342,-0.24962689818699998,-0.73233110962,9.84257825328
843,421.75029454,-0.24747437438898,-0.722822882084,9.81138611726
844,422.251756144,-0.4498595123322,-0.712611117554,9.6421031432
845,422.75321798,-0.39695353088108,-0.7689240142820001,10.0728503999
846,423.24966486938774,-0.32082875153918367,-0.7450313116612245,9.690905820979593
847,423.74611178,-0.22652094726386,-0.7601911743159999,9.740017529440001
848,424.24757347999997,-0.2502106841993,-0.803873336788,9.79634240102
849,424.74903498,-0.2057381652849,-0.8357869720540001,9.7312337953
850,425.25049696,-0.39267243345799996,-1.153246810872,9.91703641732
851,425.75195959999996,-0.6929060943515999,-2.20831578372,9.702319921780001
852,426.25342195999997,-0.4495870788608,-2.6042634064,9.66276617414
853,426.74986936530615,-0.3031563179039592,-2.608423714122449,9.808988837612244
854,427.246317422,-0.36992274170426,-2.5905100067,9.65647026678
855,427.74778008,-0.315636630233,-1.88449118038,9.88556586036
856,428.249242962,-0.28557314758192,-2.13307325134,9.39607775584
857,428.75070594199997,-0.7736362152453999,-1.8561820495,9.98519268478
858,429.252169064,-1.058679464752,-0.893866195662,9.610716412419999
859,429.75363169999997,-1.01809585878,-1.309875100712,9.790558428719999
860,430.2500803959184,-0.9620188592612245,-1.1409396487591836,9.58682328189796
861,430.74653018,-0.8165908905339999,-1.5142600799,9.77444593532
862,431.24799378000006,-0.623839718641,-1.67906736144,9.78475350024
863,431.749457186,-0.43394460754900005,-1.92214388116,9.80878153408
864,432.25092096000003,-0.1889520721444,-0.9197324066100001,9.8431829958
865,432.75238546,0.0865260681168,-0.840223745732,9.84090473322
866,433.25384940000004,1.742158163444,-1.44684327392,9.798746402159999
867,433.7502978387755,3.219327822265306,-1.104418655734694,9.600814595204081
868,434.24674732,2.84076559752,-1.1479837554680001,9.99212327296
869,434.748211696,0.9438622284366,-0.751099081428,9.80497644646
870,435.24967592,-1.733805532852,-0.460445498656,9.73016501772
871,435.75114018,-3.7267132599400004,-0.41487127074999997,9.6848871732
872,436.25260457999997,-3.8707168029399996,-0.1351868774424,9.67174749784
873,436.75406880199995,-3.17164652712,0.5761339233452,9.78116995252
874,437.25051857142853,-0.18909351267979593,0.9915808541306121,9.672787375857142
875,437.74696880999994,2.86866158752,0.588219790646,9.94232482826
876,438.24843314,4.037850247200001,0.373733816528,10.02697679442
877,438.74989701,3.6269098022399997,1.231129852272,9.93578642588
878,439.2513615,0.3399610473576,1.9221678313600001,9.73087154872
879,439.752825726,-0.6263754455492,2.20114868772,10.07445506282
880,440.2492757,-1.1723590056591835,2.2501544531632653,10.023810480775511
881,440.745726892,-1.4681230224980002,2.16901351316,9.9085191281
882,441.24719162,-1.212505581674,2.03964054566,9.82477128312
883,441.748655536,-1.066888394156,0.05383704529539999,9.7771493133
884,442.25012038,-0.93636881102,0.209797723412,9.91699150966
885,442.751585692,-0.3773922088592,1.215717901626,9.87972201254
886,443.25305072000003,-0.34671799622621596,1.25498724056,10.00715800812
887,443.74950119591836,-0.3389105380362653,1.310277305122449,9.985410741918367
888,444.24595176,0.12331356811156001,1.261366973864,9.87680008804
889,444.74741721600003,0.04525688782198,1.234360134828,9.665897662339999
890,445.2488827,-0.20834873656900002,1.172320147754,9.95012959892
891,445.75034851199996,-0.1413330963052,1.140966348356,10.02881197788
892,446.25181428,-0.17260007628524002,1.1209619476819999,9.86115761726
893,446.753279988,-0.115544723513796,1.007330245972,9.8969691464
894,447.24973145918364,-0.27683554200040816,-0.3176577945422449,9.938011350163265
895,447.746182424,-0.146566213992,-0.12768447873719999,9.86958509256
896,448.24764868,-0.020731887818600005,0.509378741454,9.839779074399999
897,448.749116296,-0.099719631958428,0.645670321666,9.81320034534
898,449.25058299999995,-0.30918504638546,0.7143175689740001,9.83598296844
899,449.75204918000003,-0.16728013914719997,0.68601442566,9.80064445442
900,450.25351598000003,-6.286926776000179e-05,0.641110803222,9.83029779042
901,450.74996781632655,-0.11689467138510204,0.580941925055847,10.294985344979592
902,451.24642015999996,-0.2633593414308,0.613412402348,9.796432214940001
903,451.74788696,-0.12053534546344,-0.23192471006840001,9.72062984676
904,452.249354126,-0.264556851207,-0.841451193207,9.65033302928
905,452.750821972,-0.22134171752128,-0.145614193725318,9.83682721264
906,453.25228904000005,-0.1820274719279,0.20078047485216,10.017477547899999
907,453.753755792,-0.09110354918904001,0.24760610046627998,10.08610982682
908,454.2502082816327,-0.04740550138022449,0.27944440257,9.684292023204081
909,454.746661102,-0.1563468750001,0.28524981994504,9.6719810119
910,455.24812844,-0.199235687257634,0.2552252563472,9.97461568006
911,455.749595518,-0.23723865966719998,0.2696552490202,9.5645943238
912,456.25106302200004,-0.39309754944142,0.21124671020480001,10.13667168318
913,456.75253086199996,-0.26271867370839996,0.21884490966773998,10.03047052952
914,457.2539986,0.05327720947385,0.20929776305932,9.52310959194
915,457.7504515877551,-0.004402070334489798,0.11088268358765306,10.008355884510204
916,458.2469048,-0.09273216247396,0.149548013302966,9.91358459446
917,458.748372914,-0.22789508972408,0.10328521728416,9.9085670287
918,459.24984098,-0.31340327453739997,0.07493716735707999,9.8569184326
919,459.751308912,-0.26222769470502,0.0430265258804,9.57906922294
920,460.25277697999996,-0.37799096372743995,-0.17647402038860002,10.10947024836
921,460.754244784,-0.3741918640136,-0.759331961078,9.58943367008
922,461.25069832857145,-0.36897047705,-0.9530283713857142,9.936288402530613
923,461.74715205200005,-0.33494946899546,-0.981278421024,9.81910406828
924,462.24862044,-0.09672286375924001,-1.047102539074,9.662074612060001
925,462.75008925599997,0.244660226432,-1.126985421824,9.96161072352
926,463.2515578,-0.312633874512,-1.064939447054,9.57904826698
927,463.75302632,-0.3030388275408,-1.1927586456519998,9.83091750182
928,464.24948021632656,-0.3856011994139387,-1.833387451142857,9.732846156571428
929,464.74593350000004,-0.34440380857732,-2.79025463554,9.64140559404
930,465.24740226,-0.5142017120365999,-3.494321521,9.6181469602
931,465.748871908,-0.49853529051074397,-4.0795834625200005,9.72679103338
932,466.25034086,-0.17765656129100002,-4.59861113896,9.421467956259999
933,466.751809934,-0.3863855072227,-4.7715435242,9.68162994724
934,467.253278982,-0.37728742676160004,-4.9904632782,9.43216471276
935,467.7497326346939,-0.13619229686740408,-5.174671867571428,9.672536876040816
936,468.24618686,-0.6251450042964,-4.60582314144,9.51671189588
937,468.74765591199997,-0.33744328307399996,-3.9738223938,9.4208362703
938,469.249125,-0.28465705262227997,-3.69979024664,9.739424761919999
939,469.75059460800003,-0.08076305237144,-3.72512655946,9.64178879702
940,470.25206404,-0.36707865600454,-3.88659877618,9.51934342354
941,470.753532996,-0.21502784728528,-3.2986604004399998,9.942740963799999
942,471.24998798367346,-0.27480099741142855,-2.3066054301836734,9.625546837489797
943,471.74644373,0.47259722900088,-1.8947658141939998,9.68905750104
944,472.2479136,2.442833102372,-1.099487603706,9.776236212139999
945,472.7493836,3.34754873664,-1.5752761962400001,9.82115779738
946,473.25085359999997,2.443836016906,-1.7410414856,9.6227723418
947,473.75232350799996,0.10676398314300001,-0.5175547393618,9.860825307999999
948,474.25379352,-2.4886618010999997,-0.41986488647259995,9.801988659600001
949,474.7502490632653,-4.354447940040816,-0.5500205121734694,9.927777529081633
950,475.24670449999996,-4.19700528258,-0.276244546506,9.498860019159999
951,475.74817391,-4.51483036188,-0.32710278626079997,9.33436409024
952,476.24964412,-5.38259982608,-0.8170968383563999,9.9646104859
953,476.75111470999997,-5.3958832032199995,-0.832137561038,9.45827641298
954,477.25258516,-5.9973803833399995,-0.9241362488039999,9.36709203176
955,477.75405586399995,-5.6641613158999995,-0.501241662592,9.4985636353
956,478.25051171224493,-5.464899967714286,-0.36220393588979594,9.43948681267347
957,478.746967732,-5.1114506836,-0.12503498839962,9.613518585320001
958,479.24843846000005,-3.39899076224,0.3130649780312,9.6439413208
959,479.74990965999996,-1.2581037597745999,0.34504747009200004,9.54376962898
960,480.25138066,2.133228927606,-0.3015928344754,10.01277432862
961,480.75285154,4.22513778076,-0.41640408324798,9.929227066260001
962,481.2493079102041,3.9670840796938776,0.399256476574898,10.030451773
963,481.74576443,1.709606854286,1.593984292604,9.88411088538
964,482.24723550000004,0.8324399322354,1.77217374574,9.92803255018
965,482.74870583999996,-0.01546583861972,1.2525503082340002,9.88932304708
966,483.250176902,0.0209923461726,-0.5810467071656,9.92854448556
967,483.75164855,0.035425332649060004,-0.716095870968,9.77396393754
968,484.25312016000004,-0.0947379913344,-0.535705993642,9.8008360567
969,484.74957707346937,-0.11141423128708164,-0.376974241304898,9.83362943365306
970,485.24603424000003,-0.1029648834164,-0.39919586791413997,9.68046836224
971,485.747506666,-0.176959011836558,-0.3901157501318,9.92120375098
972,486.248979042,0.04888534240836,-0.41787103271200005,9.803491534600001
973,486.7504517,-0.21818927307313998,-0.452595822148,9.7841487578
974,487.25192458,-0.08925040283384,-0.38623581848724003,9.84469784514
975,487.75339747,-0.13997392273573,0.2686912536544,9.81458945576
976,488.2498560020408,-0.1472692621987755,0.11873675910793877,9.818966048836735
977,488.746314712,-0.21110899659132,-0.05134023742884,10.56499398198
978,489.24778842,0.17250128174872,0.14190490723046,8.9445836426
979,489.7492628,-0.139225479103984,-0.003754193115560001,9.98943186932
980,490.25073688,0.023884332269799982,-0.17493821409712002,10.1398390963
981,490.752211216,0.01342707824648,-0.571532492049,9.64083677708
982,491.25368560000004,-0.5215993285756,-0.7918443512156,9.898495971480001
983,491.7501445591837,-0.23722607360183676,-0.768104758765306,9.780874851857142
984,492.24660446200005,-0.07552993469637999,-0.69043024291,9.70051467606
985,492.74807943599995,-0.18174006957958,-0.6820776123100001,9.89005053396
986,493.2495549,0.04932542724786001,-0.657540637212,9.79352825344
987,493.75103068,-0.0335123107906,-0.651523150638,9.74080489206
988,494.25250646,-0.073500155649786,-0.6970195404099999,9.88450606368
989,494.753982516,-0.322761813315,-0.7951824096526,9.82698368226
990,495.25044382448976,-0.17578954580285713,-0.8161762221571428,9.681903113469387
991,495.746905062,-0.06299200744858,-0.9266689819580001,9.87711144086
992,496.24838146,-0.0030147308391599973,-1.39524856569,9.69643116788
993,496.749857756,-0.20473225708885998,-2.24385188596,9.706768670479999
994,497.25133436000004,-0.2401875274474,-2.5155309265400003,9.77736187136
995,497.752811296,-0.38348154600539996,-2.53919371946,9.79060932308
996,498.24927344489794,-0.037825423273040816,-1.7225017127836735,9.592092936061224
997,498.74573590200004,-0.028374993902800006,-0.9515652099499999,9.90236991578
998,499.24721342199996,-0.0965103057884,-0.844911996474,9.833917264
999,499.74869167800006,-0.0627016113254,-0.6800867523159999,9.74040971398
1000,500.25016998,-0.16799265746584,-0.70262089233,10.249863299460001
1001,500.75164852800003,-0.3170796295212,-0.22633233947099998,9.30813563248
1002,501.2531271,-0.051340237425200004,-0.07973020019982,9.54145544128
1003,501.7495902714286,-0.08036451379304081,-0.07288618749742858,10.297615589816326
1004,502.24605415999997,-0.006122268666040003,-0.2946951782256,9.787687399520001
1005,502.747533166,-0.15964302062812,-0.5785858245819999,9.76761713574
1006,503.2490123,-0.15421830138792,-0.398180978392,9.87470744056
1007,503.75049183199997,-0.13879736938036,-0.24905508728179998,9.85966072964
1008,504.25197148,-0.1917871765129,-0.13543835449624,9.816571334899999
1009,504.753451374,0.01250499572212,0.054519625855116,9.85672683138
1010,505.24991683469386,0.06600967095387755,0.28958046737244897,9.754914550591836
1011,505.746382924,-0.008047265629399997,0.5545398284944,9.89206833798
1012,506.24786368,-0.005517526243340001,0.4076383117654,9.86655239898
1013,506.74934465999996,-0.0458855804358,-0.24536975096639999,9.9633740571
1014,507.25082574,-0.2258832733237,-0.7668942352512,9.732170846679999
1015,507.752306434,-0.23254741516032,-0.781443978888,9.7814633424
1016,508.25378788200004,-0.12411290589294,-0.6238067871199999,9.813463797199999
1017,508.7502555448979,-0.21175760696624282,-0.6138917728387755,9.812016215489797
1018,509.24672282,-0.23727159118684,-0.61775337524,9.815646258540001
1019,509.74820470400005,-0.1408750488326,-0.581537686162,9.77212875378
1020,510.249687,-0.1831830688533,-0.515372277832,9.86715714118
1021,510.75116969199996,-0.24394770813838001,-0.5172284179672,10.00788250134
1022,511.2526524,-0.1199216217186,-0.484269955434,9.71090307294
1023,511.754135458,-0.1550176391608,-0.636635110484,9.8061260556
1024,512.2506035612245,-0.15592982390469387,-0.5997782648897959,9.655820617653061
1025,512.747071428,0.11860735473596,-0.63280307922,9.92681408402
1026,513.24855426,0.1290197021568,-0.501630853272,9.67097809772
1027,513.750036968,0.013897100829659996,-0.477180697634,10.1081350247
1028,514.25151998,-0.25748854980811997,-0.45038941040200003,9.74590029632
1029,514.753003144,-0.1734712646514,-0.37379967956800003,9.06177494214
1030,515.2494716734694,-0.2441239742352245,-0.4867785551118367,10.706326895469388
1031,515.745940808,0.0863973358446,-0.35681000976708,9.63791485302
1032,516.24742456,-0.2936473571894,-0.539861352542,9.743828604579999
1033,516.748908028,-0.2429447937042,-0.636910537714,9.85641547844
1034,517.25039176,-0.3242676819006,-0.6366081665059999,9.73133258944
1035,517.75187572,-0.29698242187159996,-0.672323895266,9.82428928506
1036,518.2533597400001,-0.14005475463682,-0.651798577884,9.79983014868
1037,518.7498291836735,-0.3608567374052041,-0.8002817239855101,9.753921717061225
1038,519.24629852,-0.25049209897068,-0.78394976805928,9.92322454856
1039,519.747782046,-0.32419283752128003,-1.113136221364,9.81699046326
1040,520.2492661599999,-0.2151925048822,-1.75062455748,9.75512112168
1041,520.750751024,-0.21792282716188002,-2.03048857724,9.69098848588
1042,521.2522355799999,-0.32226784057732,-0.984894900518,9.834282504499999
1043,521.75371939,-0.2682631439196,-0.7180358367840001,9.68537815228
1044,522.2501890061225,-0.39687062167657144,-0.7129184987653061,9.827779354265305
1045,522.746659906,-0.24941134644795998,-0.42272394103794403,9.94413606274
1046,523.24814484,-0.21162093199606002,-0.17832117919920001,9.98967735962
1047,523.74962923,-0.247300735472,-0.05674699401776,9.09978090804
1048,524.25111402,-0.2506118499694,-0.3273392944314,10.639625784340002
1049,524.752598896,-0.28794721069662,0.02082170104856,9.4426010104
1050,525.25408386,-0.14156361695043998,-0.15127542114360001,9.84744912386
1051,525.7505538632653,-0.21142768081816324,-0.17044657492605103,9.92427664634694
1052,526.24702408,-0.0468825073088,-0.26059309387496,9.87482719096
1053,526.748509546,-0.24782464601819998,-0.4567631561166,9.8800722841
1054,527.2499949,-0.25937462768540004,-0.649894537354,9.66089506562
1055,527.751480078,-0.2208237945534,-0.7554101165839999,9.82029858416
1056,528.2529654,-0.2361279693576,-0.878038110354,9.84502416686
1057,528.7494362,-0.3066419266689796,-1.6167603784693878,9.704225062020408
1058,529.2459069,-0.37157231140119995,-2.25017174376,9.73753569034
1059,529.7473917880001,-0.25252786559699997,-1.18902840273,9.81537981264
1060,530.2488773,-0.2595123413138,-0.843004962188,9.8132482453
1061,530.750363452,-0.27987599488736,-0.6120652038544,10.400758511240001
1062,531.25184944,-0.3303210937692,-0.06775210876101999,8.43095374162
1063,531.7533355840001,-0.29035420530426,-0.0438378387438,10.754538820939999
1064,532.2498068285714,-0.22923147395469387,0.2580114216709816,9.647850456918368
1065,532.746278302,-0.211040139759,0.1913440979052,9.970511215
1066,533.247764644,-0.2180395843546,0.3375360900904,9.8516344207
1067,533.7492508,-0.140593634033628,0.6372638031,9.86703439592
1068,534.25073726,-0.055223162849,0.883187402332,9.929891683780001
1069,534.752223652,-0.19171233215344,0.8172046142620001,9.86581892438
1070,535.25371046,-0.186323538211,0.707455838012,9.87407575404
1071,535.7501829591837,-0.14088458003306123,0.5170981582285714,9.859045967346939
1072,536.24665534,-0.26793382871872,0.03917653198379999,9.8704083802
1073,536.7481432,-0.310095153811,-0.551656823736,9.80772173732
1074,537.2496308,-0.30635592956282,-0.447703994746,9.7758769593
1075,537.75111854,-0.33236584168302,-0.502262539676,9.86594466286
1076,538.2526063199999,-0.3411346069332,-0.597742987062,9.794228796159999
1077,538.75409302,-0.3498375091512,-0.700297723382,9.7746165805
1078,539.2505657428571,-0.277409857928449,-0.69677961078,9.85375798432653
1079,539.74703912,-0.19854711915220002,-0.66930916444,9.79308218086
1080,540.24852722,0.03870650938564,-0.587926400762,9.88651788016
1081,540.75001526,-0.40414158325940003,-0.619738247676,10.91148744496
1082,541.25150344,-0.29467122802624,-0.26518853760175803,8.55974591688
1083,541.7529916799999,-0.29204568786101404,-0.33303345337400003,9.8532600403
1084,542.2494648734694,-0.22479885490591836,-0.48790885769591835,9.908006399204082
1085,542.745937784,-0.309589205937,-0.632719253546,9.76895235884
1086,543.24742564,-0.34964890136916,-0.691478063964,9.92120674394
1087,543.748913166,-0.32017219850412,-0.648337774656,9.71807615664
1088,544.25040086,-0.2555934906088,-0.648643139664,9.06269103708
1089,544.7518887,-0.1918201080174,-0.7637777160458,10.60178447594
1090,545.25337648,-0.108653054802336,-0.69458560181,9.84725752244
1091,545.7498500265306,-0.18180458846892245,-0.6596812470273469,9.799796728061224
1092,546.246323182,-0.3580314697408,-0.582567544554,9.80706909476
1093,546.747810964,-0.24926165770834,-0.484275942998,9.72940160514
1094,547.2492989,-0.28608208923837997,-0.426289526364,9.736386081260001
1095,547.750786902,-0.43283092346400004,-0.40467447509000004,10.04921455126
1096,548.252275,-0.31004126586642,-0.37959562683000003,9.72000714102
1097,548.753763064,-0.18201849059571998,-0.396178143312,9.8158857607
1098,549.2502364653061,-0.35208925518889794,-0.4699553758519592,10.026245214061225
1099,549.746710272,-0.2041394897426,-0.44071951904,9.74075699158
1100,550.2481988200001,-0.16114290161115602,-0.463696737664,9.74288855892
1101,550.749687574,-0.28323800353862,-0.50648675537,9.83935096444
1102,551.2511762199999,-0.1675765228309,-0.499367559816,9.8285284699
1103,551.752664392,-0.20468136292014003,-0.530113623052,9.7832596071
1104,552.25415286,-0.10109676820460001,-0.658714196758,10.80765137374
1105,552.7506268959183,-0.2216370625372653,-0.37627467564244904,8.505508622285713
1106,553.2471007400001,-0.22729932860852198,-0.42171204529039996,10.08305917086
1107,553.748589552,-0.05210065612916,-0.40763232422,9.92834989026
1108,554.25007836,-0.13039384460694,-0.41564366454999996,9.7334162568
1109,554.751566552,-0.09525292053375999,-0.44493475341200006,9.82238823858
1110,555.25305534,-0.12781919860316,-0.542235415654,9.91245594172
1111,555.7495297979592,-0.16148052606136734,-0.5146359315183674,8.634815237857142
1112,556.24600416,-0.16827407225858,-0.7708011108294001,11.02843325434
1113,556.7474934,-0.1040246795784,-0.605853121954,9.67961214294
1114,557.2489826,-0.131414721675642,-0.609712097166,9.84658991052
1115,557.750471804,-0.24159160767065999,-0.6033952331519999,9.92574231286
1116,558.25196116,-0.242399926757,-0.586896542362,9.68772826546
1117,558.753450484,-0.19329903259200001,-0.599135092156,9.80591948578
1118,559.2499250755102,-0.5163772084865306,-0.5796894275918367,9.798608383040817
1119,559.7464000240001,-0.948451684626,-0.572795864872,9.91427915054
1120,560.24788972,-0.4152544738818,-0.578741500862,9.807808557
1121,560.749379084,-0.2692630646018,-0.601991152954,9.84138673082
1122,561.250868764,-0.25169260254479997,-0.663133007834,10.3869152982
1123,561.752359004,-0.064084735100814,-0.6164929962132,9.47412545468
1124,562.2538491600001,0.1755369689936,-0.6361141937220001,9.23870102232
1125,562.7503243877551,0.16920018720293878,-0.8133076975265306,9.587913871081632
1126,563.24679984,0.12356504516893999,-0.8127947845660001,10.19281992266
1127,563.748290434,-0.08104446716326001,-0.900368673706,10.06488695968
1128,564.24978104,-0.06591093752165998,-1.21199364622,9.66559229756
1129,564.75127174,-0.3227947448616,-1.6560841552471999,9.73364378362
1130,565.2527626,-0.21010009461122,-1.67578917848,9.76381504178
1131,565.75425376,-0.1228585144032,-1.6693286132399998,9.773044848760001
1132,566.2507300714286,-0.051123280429938786,-1.6773873652040816,9.80010221477551
1133,566.747206238,0.26080265808499997,-1.73311995846,9.7944263853
1134,567.24869756,0.1577958618176,-2.57772659006,9.671864254639999
1135,567.750189018,-0.16525335388360002,-3.2943014648999998,9.64461192636
1136,568.2516806,-0.17563875732738002,-2.8711254638000003,9.63447500602
1137,568.753172454,-0.26825416261216,-2.6588698517,9.70846314712
1138,569.2496494857143,-0.2345041827597959,-1.1860265023387755,9.853201997857143
1139,569.746126648,-0.3793621124278,-0.52042277527772,9.76268040164
1140,570.24761874,-0.37701499328259996,-0.05663023681386,9.84717369676
1141,570.749110598,-0.4123325500604,0.0128552673309,9.82445394284
1142,571.25060274,-0.4422792755074,-0.08601712647102,9.79688726804
1143,571.752095396,-0.36187547606785997,0.00043110351452399997,9.84922742588
1144,572.25358794,-0.0458197174044,-0.014277310181922,9.87522236956
1145,572.7500654061224,1.0556506814816327,0.0762587660177347,9.915564151571429
1146,573.24654302,1.76534195246,0.055438714602159996,10.038739333339999
1147,573.74803604,1.86014281314,-0.1108894043009,9.97357983366
1148,574.2495288,2.08450824288,-0.9332463043200001,9.725090570119999
1149,574.751020962,2.18380275884,-1.120108721902,9.64396227708
1150,575.25251356,2.5046934631799997,-0.36799774475002,9.734003036499999
1151,575.754006716,2.1950563568000003,0.3894511322021,9.84040477316
1152,576.2504847428571,2.2302947313265307,1.0500297172612245,10.037294685040816
1153,576.746962114,0.6349346466222601,2.04419108268,9.8869310209
1154,577.24845478,0.1438149352946,2.30036237178,10.034143890200001
1155,577.74994798,1.158210488926,2.3077719635,9.9103153933
1156,578.251440982,1.20042570194,1.359038864126,10.241319067560001
1157,578.752934344,0.3727338958977999,-0.6228188415756,9.5993700067
1158,579.2494126204082,0.24887429996061222,0.8991098831832653,9.805377979020408
1159,579.74589254,-0.16532520445848,1.1803644195460001,9.99000068648
1160,580.2473864,-0.1533980072016,1.321452026346,9.96684084726
1161,580.748877656,0.04121229858376,1.40133490908,10.002601483240001
1162,581.25037018,0.2365830230736,1.3735975891,9.92195219446
1163,581.751863552,-0.08312813415562001,1.37130136408,9.82004710694
1164,582.25335704,-0.2554917022573,1.276512478678,10.066416778179999
1165,582.7498356714286,0.09529367252337143,1.1451095488081633,9.609398785020408
1166,583.24631438,-0.17125587157076003,0.3576063537744,10.0221538238
1167,583.747807824,-0.22860461424782,-0.7845425353768999,10.04672971818
1168,584.24930144,-0.093453662113,0.32357911376860005,9.83158211978
1169,584.750795488,-0.2713646942148,0.5469506103538,9.81337997172
1170,585.25228942,-0.32766561583952,-0.2342957794222,9.54784714926
1171,585.753783104,-0.3460024841338,-0.7070576660207399,10.749964334260001
1172,586.250261989796,-0.3101794682567347,-0.2026174303930612,9.635349921612246
1173,586.7467407600001,-0.3010928741355,0.11895762634692,9.35872443242
1174,587.24823472,-0.2525727722128,0.13349838867586,9.90933044058
1175,587.7497290800001,-0.298230825804768,-0.02629132690664,9.698562735000001
1176,588.25122334,-0.2712778747538,-0.159346636962856,9.9284187469
1177,588.75271754,-0.2141596527068,-0.23131996764528,9.59052939146
1178,589.2542117600001,-0.21834494934324,-0.33306039734000004,9.67096312896
1179,589.7506909081633,-0.32514834033242856,-0.3335889512584286,10.017141695795917
1180,590.2471701999999,-0.5935876281856001,-0.36492313842100005,9.9380976201
1181,590.7486643,-0.4729355255156,-0.34716406860497995,9.87199208704
1182,591.25015854,-0.2424807586778,-0.3470982055664,9.92903845876
1183,591.75165352,-0.11915820923269999,-0.6165917907699999,9.43163780808
1184,592.25314824,-0.5394991058126,-0.649014367674,10.2743673436
1185,592.749627467347,-0.261661993536,-0.5634924970326531,9.481259130408162
1186,593.2461069999999,-0.2498753814686,-0.648514407352,11.07214236156
1187,593.7476040500001,-0.12669353939572,-0.1443897399918,8.30678096012
1188,594.24909984,-0.4091262176462,-0.10147997132480001,10.13321986076
1189,594.7505925,-0.4155119384762,-0.15828085327073999,9.987967913479999
1190,595.25208648,-0.10071655883704,-0.18034497069976002,9.68661757536
1191,595.753583562,-0.35728601989799996,-0.19041004028736,9.9141653866
1192,596.2500645489796,-0.8018152696365918,-0.17760719454759183,9.859629448061224
1193,596.74654298,-0.40821012268564,-0.21977297973513998,9.7949323333
1194,597.248037282,-0.32266002503096,-0.55023777466,9.80247365112
1195,597.749531702,-0.24721092223858002,-0.554836212154,9.96858322446
1196,598.25102648,-0.18292261047862,-0.575463317868,9.67654053038
1197,598.752521992,-0.25757237548994,-0.642359207172,10.20870788272
1198,599.25401724,-0.34367632141820004,-0.606909924318,9.48170569186
1199,599.7504979510204,-0.37513215356775514,-0.6018861264591837,9.801956522183675
1200,600.2469784,-0.24025638427985999,-0.587076168824,9.339558288660001
1201,600.748474824,-0.25344396057306,-0.666734518434,10.02969813524
1202,601.2499705820001,-0.21752166137466003,-0.630426022346,9.845443294939999
1203,601.751463768,-0.17425862731957997,-0.62040885316,9.79454014872
1204,602.25295798,-0.19243981933680002,-0.616005010978,10.06682991998
1205,602.7494384367347,-0.3955356426546939,-0.6487875739877551,11.01378141712245
1206,603.24591872,-0.323276742579,-0.424517211927,8.149239568544
1207,603.747413876,-0.31911838987962,-0.22148541868932,9.9181291445
1208,604.2489089000001,-0.253527786253416,-0.10349777526908,10.31765432742
1209,604.7504035960001,-0.40011196287899997,-0.17978214111432,9.6318794038
1210,605.25189832,-0.4193439697302,-0.4941524047844,10.1155356349
1211,605.7533929360001,-0.5166296630706,-0.64943050235222,10.00176023268
1212,606.2498726367347,-0.4214684498040816,-0.5717131571877551,9.390340034285714
1213,606.7463537660001,-0.3436254272482,-0.655660546892,10.047325479
1214,607.24784916,-0.393130480962,-0.598254922484,9.76722195752
1215,607.749342536,-0.33802108155280003,-0.6532176269500001,9.9800134554
1216,608.2508365,-0.5592370605507999,-0.6852809509300001,9.68572543038
1217,608.7523313300001,-0.3209445922874,-0.754919137574,9.68634214746
1218,609.253826002,-0.237867352303,-0.758394909678,9.71131621406
1219,609.7503049836735,-0.26215077302918366,-0.7959712997918368,9.894922382632654
1220,610.2467842,-0.6423292694072,-0.7876051666339999,9.92667038258
1221,610.7482786659999,-0.5206742523326,-0.696702200287,9.0884105532
1222,611.24977302,-0.66012426448186,-0.867607800255,11.065514144660002
1223,611.751267664,-0.57772062377544,-0.7016568969870001,9.9188147187
1224,612.25276208,-0.0952798645024,-0.6267346984892,8.914945276040001
1225,612.754256128,-0.33147369691359996,-0.691579852304,9.68916827076
1226,613.2507353244898,-0.2990016921855918,-0.6325387105997959,8.32731794744898
1227,613.747214864,-0.34722693787590003,-0.742318341066,10.60579313988
1228,614.24870924,0.003664379880700002,-0.6799969390939999,9.72342004396
1229,614.7502030640001,-0.14666500853732,-0.6551186737019999,9.73196427636
1230,615.2516971,-0.10683882751499998,-0.756490869142,10.55029454956
1231,615.7531914919999,-0.0491966949446,-0.833227294924,10.14803605034
1232,616.2496708959184,-0.13155194652375513,-0.8518357413306124,10.039029852163265
1233,616.746150368,-0.00031434631240000123,-0.847330966186,9.569396338179999
1234,617.2476447,0.03880530395278,-0.9358658569620001,10.0106128235
1235,617.749139072,0.3133912994366,-1.107427093553,10.39674685386
1236,618.25063332,0.70490214846,-1.81714323128,10.271274774379998
1237,618.75212711,0.15578105164436198,-1.2861015381140002,9.820969189360001
1238,619.253621,-2.99477134094,-0.32865655518992,10.04836431844
1239,619.7501003877551,-1.6359083151836735,0.23226801658036736,8.757043715367347
1240,620.24657956,-0.5620601898606,0.0249531097426,10.2183089169
1241,620.748073248,0.006173162835400006,-0.34337095641700005,9.08828481434
1242,621.249566962,0.25876389770576,-0.645885873416,9.5564871824
1243,621.751060892,0.037395236205468,-0.7088060302700001,9.93748090226
1244,622.2525547399999,-0.54819901428992,-0.7264872619499999,9.41040296624
1245,622.754048282,-0.38616097413238004,-0.879684686284,10.3768711854
1246,623.2505268959184,-0.4209796703065306,-0.8883322953367346,9.797438366755102
1247,623.74700526,-0.0341170532172,-1.398083670008,9.7614409791
1248,624.24849868,0.2885489593626,-2.24777373048,9.8328574674
1249,624.749992582,0.4009382446274,-2.32005841374,9.73430840182
1250,625.251486224,0.8320148162686,-2.2486598877399997,9.78131964144
1251,625.752980552,0.43390868224080004,-1.93476264046,9.645932180680001
1252,626.2494594387755,-0.2243711728412245,-2.0025662543061227,9.622510295040815
1253,626.74593724,-0.7835007019058,-2.03365898434,9.70333481142
1254,627.24743014,-0.843477978518,-0.815632882706,9.82571432212
1255,627.74892436,-0.790386383076,-0.09040599975864,9.791492486480001
1256,628.25041802,-0.5690356841862,0.11948153686352,9.872375290019999
1257,628.75190982,-0.04298461303664,0.3393652862528,9.784654706
1258,629.25340208,0.024701632696179997,0.3190315704418,9.88525450738
1259,629.7498803795918,-0.10412225216987755,-0.7553384492877551,9.85906124167347
1260,630.2463585,-0.1521795410141,-0.9470176666419999,9.88764054572
1261,630.747850786,-0.051591714492299996,-2.188682611034,9.734706573659999
1262,631.2493432,-0.3430985229496,-2.8374664581199998,9.65500032326
1263,631.750836236,-0.42531954346120004,-2.2238265289,9.6403637601
1264,632.25232906,-0.24730672302278,-1.9418069915199998,9.80302749932
1265,632.753821356,-0.23807991029419998,-1.8350909088399998,9.62534399394
1266,633.2502986408164,-0.06881709820030613,-2.11467394144898,9.725523628979593
1267,633.746776006,-0.51368678285486,-2.25936562492,9.754908563179999
1268,634.24826812,-0.581082632447,-2.42239460444,9.70536758428
1269,634.749760044,-0.4283193054274,-2.40747063906,9.73153915998
1270,635.2512518999999,-0.358402697758554,-1.98819851988,9.76721297606
1271,635.752742802,-0.3030597839255,-1.202039346332,9.80925155638
1272,636.2542338999999,-0.2202190521236,-0.8758855865380001,9.7939443877
1273,636.7507106897959,-0.022975691193061226,-0.8017786111510204,9.762273737040816
1274,637.24718726,0.06851252747176,-0.779761477674,9.80033908996
1275,637.74867782,-0.5445885223396,0.08408913574922,9.91130633244
1276,638.2501684399999,-1.52896549988,1.201829782042,9.925838113280001
1277,638.751659938,-2.00284705808,1.78054134518,9.87598877566
1278,639.25315114,0.2059447357496,1.1428344634779999,9.84189267888
1279,639.7496265755102,2.620392702040816,0.7722899331795918,9.836937860122449
1280,640.2461021,3.2780632324599996,0.299652868654,9.8008510256
1281,640.7475926,2.120759857172,0.2032174072322,9.75248360606
1282,641.24908312,-0.71627549744256,0.2142165344216,9.881242850040001
1283,641.750573822,-1.7581269562200001,-0.4463807464584,9.74564582548
1284,642.2520645,-1.90920478822,-0.46826823120199995,9.79794706434
1285,642.7535554479999,-1.79962665706,-0.38811291504,9.87891069918
1286,643.2500313591837,-0.6806193386714285,-0.3412536247416327,9.722615390714285
1287,643.7465082399999,-0.25663233032258,-0.47208229981000005,9.84143163762
1288,644.2479997,-0.0230430816638,-0.698615222168,9.89862170974
1289,644.74948916,0.1957389587442,-0.381188314823442,9.85139791274
1290,645.2509790600001,0.3006887145974,-0.0004161346466999985,9.87662944306
1291,645.7524702000001,0.315307315059,0.37698206177444,9.92446397118
1292,646.2539611799999,0.20006795654809997,0.690514068614,9.861504894680001
1293,646.7504369877552,0.082924496399,0.4708840568693878,9.94467402542857
1294,647.24691282,-0.170154162605,-0.12319980468528,9.87638395374
1295,647.7484036999999,-0.3111699188116,-0.44376418761819997,9.83005230098
1296,648.2498945,-0.22220991209919996,-0.638293661496,9.86762716374
1297,648.75138502,-0.263733563236904,-0.5904291961620001,9.74145454098
1298,649.2528755999999,-0.20633991394084,-0.596761029048,9.854610232479999
1299,649.7493515632653,-0.035702287323510204,-0.5582533918081632,9.772434240877551
1300,650.24582748,-0.20052001647756001,-0.539759564212,9.8616426086
1301,650.74731824,-0.2392624511754,-0.479333221438,9.80068936134
1302,651.24880896,0.015004797358539998,-0.493580593876,9.86497767298
1303,651.7503001,0.19210751040760002,-0.48257248535499997,9.83395019538
1304,652.251791,0.215207473763,-0.43945914001794,9.74979818998
1305,652.7532810600001,0.2427531921414,-0.474306674202,9.91503358152
1306,653.2497563632653,0.23546952227828571,-0.47494398155918366,9.78744893577551
1307,653.746232118,0.294401788327,-0.48189888611,9.88541916502
1308,654.24772274,0.34198483886512,-0.46655279846,9.74916949768
1309,654.74921297,0.35272949523254,-0.49802634886599995,9.91043215078
1310,655.25070328,0.2342568603538,-0.49042814941199997,9.800979757699999
1311,655.7521941,0.23909180602866,-0.533574426268,9.8252532805
1312,656.2536847800001,0.2043670166046,-0.5717869628919999,9.82965412858
1313,656.7501603959183,0.28926581557759184,-0.5695625273959184,9.746620573653061
1314,657.2466359599999,0.23898702392294,-0.576002197264,9.84109334136
1315,657.748126182,0.2656914916898,-0.563745684812,9.78601387926
1316,658.24961648,0.30296398314146,-0.5628116272,9.78521154796
1317,658.751106972,0.3856101196468,-0.5669220794704,9.79431262208
1318,659.2525973600001,0.40956330870880003,-0.5734155761799999,9.84712879038
1319,659.7540869979999,0.46794789733578,-0.6509303832979999,9.74395733662
1320,660.2505617959183,0.41271318708877547,-0.6497437488755102,9.852716273285715
1321,660.747037386,0.2566772369288,-0.6201214507992,9.7711138641
1322,661.2485276799999,0.0943338318012,-0.628393249508,9.83995271302
1323,661.75001702,-0.02806663512466,-0.59358762817,9.8353273317
1324,662.2515065399999,-0.10469528503419999,-0.607110507196,9.81676892374
1325,662.7529964959999,-0.24713907165927998,-0.6063231445280001,9.91467432866
1326,663.2494714306123,-0.30477234509195916,-0.5386563888857143,9.728783177102041
1327,663.745946972,-0.3319556945838,-0.52737731323,9.91315049736
1328,664.24743718,-0.5134442871218,-0.27209517517156,9.8810123292
1329,664.748926712,-0.6390600677148001,0.060165884402800004,9.91095905458
1330,665.25041612,-0.40634799499632,0.10931168517992801,10.04346949762
1331,665.7519052160001,-0.08411607971148,0.156694152835,10.04005060752
1332,666.2533943,0.27912156372944,0.2389780426036,9.90658215656
1333,666.7498711061224,0.432053580772449,0.25975575349367347,9.946265613510205
1334,667.24634718,0.37818256529718,0.21864133300416,10.11112281252
1335,667.747834688,0.29104277343572,0.16152311096719998,9.88462880848
1336,668.2493224799999,-0.178635525511226,-0.06002817077475,9.8719381988
1337,668.7508115280001,-0.2743884063712,-0.53276910095,9.8020814663
1338,669.2523006,-0.26570945434140003,-0.675946362316,9.81568218392
1339,669.7537895080001,-0.19380198667718,-1.093000094582,9.6101056825
1340,670.2502635897958,-0.36963032937842855,-1.9006435097755103,9.760040626
1341,670.7467378880001,0.027222390769559998,-2.88210064086,9.6336397433
1342,671.2482270400001,1.0641251403724,-2.229658401514,9.77826898484
1343,671.749715608,3.1674881744800003,-1.209254342692,10.2242006657
1344,672.2512042599999,4.4836861267,-0.448057260141172,9.17121535942
1345,672.75269342,4.39520811766,-0.20481608275764,9.9163238981
1346,673.25418254,4.5414360352,0.13537548523128,9.70610405298
1347,673.7506589306122,5.21251256510204,0.12702462644320817,9.601899075081633
1348,674.24713482,5.61036917726,0.06076463928758599,9.0750253879
1349,674.7486228040001,4.5238206665,0.4212929168799,9.94495635702
1350,675.2501108399999,1.0639275512872,1.171748336752,10.00354751566
1351,675.7515980320001,-0.0074904235782599984,1.33849259028,9.80375199276
1352,676.25308548,0.04834346924224,0.16783398742088,9.8174694673
1353,676.7495594816327,0.15490949670089796,-0.8459795519877551,9.963953322122448
1354,677.24603338,0.28554919738120005,-1.02457438656,9.818861572440001
1355,677.747522142,0.19101777648836,-2.28646826486,9.801021670459999
1356,678.24901084,0.08297245788472,-3.0811716705200003,9.61812301014
1357,678.75049906,-0.11098520507114,-3.11825256044,9.63254701552
1358,679.25198732,-0.10133028259219999,-3.02525095826,9.72062685238
1359,679.753475516,-0.032063323976360004,-2.30283223572,9.686440942379999
1360,680.2499487142858,0.06228883704859183,-2.41273167822449,9.760538569938776
1361,680.746422202,-0.038347256470820004,-2.81210320128,9.66784660952
1362,681.2479104199999,-0.012022998044399998,-3.28720621956,9.69154832132
1363,681.749399724,0.02536325683028,-2.5714187073,9.725587536599999
1364,682.2508886600001,0.14682068481336,-1.8936132111000001,9.72172856148
1365,682.75237576,0.1859074035751,-1.3165362487999999,9.72048015756
1366,683.25386268,0.14642850036888,-1.64756087952,9.73693394172
1367,683.7503343938776,0.09697079717626532,-2.1215046349591837,9.74419500555102
1368,684.2468060799999,0.09371711425792001,-1.85820883482,9.77169465646
1369,684.748292918,0.19601139221326,-1.42418339548,9.768593105979999
1370,685.249779606,0.30106593017,-1.2435300657800001,9.77229640514
1371,685.751266206,0.2212010101358,-1.28794869688,9.76765306096
1372,686.2527525999999,0.13461806030218,-1.2850447357199999,9.79172300716
1373,686.754238954,0.12471465454076,-1.6696848724200002,9.77011693728
1374,687.2507102204081,0.14782219400469387,-1.5726633032244897,9.777028768122449
1375,687.747181254,0.224952209469,-0.945805187986,9.791196102899999
1376,688.24866702,0.2479653533982,-0.787156100468,9.808982116700001
1377,688.7501525739999,0.25023762817600004,-0.786419631964,9.812900967440001
1378,689.251638,0.25820106811892,-0.693693457036,9.82091530148
1379,689.753123214,0.258192086786,-0.70372260132,9.81432899782
1380,690.2495934591836,0.22069921687734692,-0.9622754685020409,9.799222412102042
1381,690.74606478,0.281956668094,-0.5020559692338,9.826860937620001
1382,691.24755068,0.270987478636,-0.558647286984,9.83013612666
1383,691.7490339199999,0.273583081054,-0.552911215202,9.82612446902
1384,692.25051704,0.27475065307400004,-0.5507826416080001,9.82394200732
1385,692.7520009899999,0.278190499876,-0.5517586120579999,9.8277141632
1386,693.25348478,0.271990393068,-0.549845590214,9.82422042846
1387,693.7499540285713,0.27569912968979593,-0.5516945819469388,9.825567626959183
1388,694.24642308,0.275645791626,-0.551572998048,9.82347497868
1389,694.74790682,0.27803781738800004,-0.5518065124520001,9.82630110166
1390,695.2493903999999,0.271924530022,-0.550923348998,9.82783092034
1391,695.750873376,0.276217602534,-0.551378402704,9.826256195140001
1392,696.252356122,0.275939181518,-0.55112393188,9.82764830012
1393,696.753838938,0.27634633484800003,-0.552090921024,9.827845889259999
1394,697.2503067551021,0.2717277962816326,-0.5497180798612245,9.826080845387756
1395,697.7467744679999,0.27582242432000004,-0.551584973146,9.82444196776
1396,698.24825686,0.272813681028,-0.55010006103,9.82535806272
1397,698.7497393799999,0.275091943364,-0.552201690678,9.82931283878
1398,699.25122172,0.27336154175,-0.551333496098,9.82689386898
1399,699.752703592,0.275639804086,-0.5498216400079999,9.82431622926
1400,700.25418528,0.2759152313242,-0.551318527224,9.82629810804
1401,700.7506517571428,0.27615736046326533,-0.5510316747632653,9.825619559795918
1402,701.24711804,0.274535101316,-0.55078862915,9.83043550418
1403,701.7485993399999,0.275651779176,-0.5511868011459999,9.82664239194
1404,702.2500805200001,0.27527755737,-0.551255657964,9.82608854372
1405,702.7515624680001,0.277268417356,-0.552183728028,9.82952240298
1406,703.253043962,0.273424411014,-0.548839682,9.82960024102
1407,703.7495078734694,0.2742052973510204,-0.5529165306836735,9.828714144959184
1408,704.2459716000001,0.274744665528,-0.551396365356,9.82143322444
1409,704.74745148,0.2813728820746,-0.502391271969,9.827774038720001
1410,705.2489311999999,0.4089735351564,0.507618402098582,9.9092735595
1411,705.75041056,0.524515264905,1.40174804994,9.90816586326
1412,706.2518897,0.5789480712985999,1.78022400516,9.93623249824
1413,706.7533689960001,0.5022535583456,1.6021303528039998,9.91957513724
1414,707.2498333571428,0.316689400184898,0.6478955514142857,9.881532879204082
1415,707.74629764,0.2103276214584,0.03000959472954,9.8678217588
1416,708.24777656,0.22297931213247998,0.49215855102260003,9.90801916796
1417,708.749254852,0.29069250183052,0.70421956786,9.93561278662
1418,709.250732922,0.34585578918640003,0.761903613276,9.85856800262
1419,709.75221147,0.33609009704366,0.674997335818,9.864094510060001
1420,710.253689802,0.46295428161786,0.5922673736640001,9.87974895614
1421,710.7501529244898,0.5578532036071429,0.4912569972489796,9.913563210653061
1422,711.24661584,0.4779321350016,0.52010543518,9.86888155526
1423,711.74809485,0.480961834727,0.1019499938992,9.80084204352
1424,712.2495737,0.49902626953019996,-0.716709594764,9.8627083922
1425,712.751049222,0.34649046936760003,-1.02061062924,9.845578015040001
1426,713.25252462,0.2611229919414,-1.7959892212119999,9.664763021579999
1427,713.754001682,0.34844241027996,-0.78963494568,9.85527784406
1428,714.2504638489796,0.34723200894428574,-0.8060126635408164,9.972268683142858
1429,714.746925886,-0.33318014833736,-0.7468209777554,9.77234131148
1430,715.24840262,-2.1478475280200002,-0.769432955936,9.8121585115
1431,715.749878712,-3.47464044806,-0.17766254883032,9.97784296826
1432,716.2513546600001,-3.91878185126,-0.39103483887080004,9.88165299684
1433,716.75283089,-4.21940170898,-0.673299865696,9.80915276198
1434,717.2492922632654,-3.829492651469388,-0.7163430101020408,10.01959475787755
1435,717.7457535359999,-3.5731565825600002,0.056729031371199994,9.50750903328
1436,718.24722946,-3.151546325666,0.10330617369959999,9.66702032792
1437,718.748704804,-1.2653816253484,0.21719234619302,9.7313565402
1438,719.25017998,-0.27948381042279996,-0.21152812500260001,9.666951470579999
1439,719.7516559800001,-0.1980770965528,-0.060483224482219995,9.8472874604
1440,720.2531318,0.09438472595068,0.16775914307037,9.64224085718
1441,720.7495925020407,-0.015647053608163264,-0.043000376172346935,9.610632953489796
1442,721.24605282,-0.0773920623704,-0.14550342407615602,9.59857665718
1443,721.747527992,0.1652653289908,-0.3867208099346,9.64666565566
1444,722.2490027,0.10841954041446002,-0.44758424377719996,9.60574974082
1445,722.750477844,0.20137024841392,-0.48371610718600005,9.8391863066
1446,723.2519530000001,0.0055115386952,-0.5081782379199999,9.95409036172
1447,723.753427712,-0.17560582580439998,-0.479902038576,10.025988848979999
1448,724.249887655102,-0.19838032313577553,-0.4124871265653061,9.957229548265307
1449,724.7463481760001,-0.3391377594017,-0.387319564828,9.98348024628
1450,725.2478235,-0.2755499908406,-0.36360887145939996,9.897205655
1451,725.74929822,-0.12040960692856001,-0.482752111822,9.91436597002
1452,726.2507730000001,-0.017917739865840002,-0.525889407358,9.991258072199999
1453,726.7522479520001,-0.0788470367446,-0.421307885748,9.8774677002
1454,727.2537229,-0.39560633240160004,-0.40203695983800003,9.8427339296
1455,727.750182522449,-0.6233068878775511,-0.4324079459020408,9.950771549408163
1456,728.246642204,-0.17420174560832,-0.388660775756,9.84260220398
1457,728.748117616,0.005101391608819998,-0.47380671386800005,9.8449642914
1458,729.2495931000001,-0.11378737793214,-0.47871650390799997,9.82552272022
1459,729.751067378,-0.14526990966456,-0.5320386199939999,9.86401966514
1460,730.2525419000001,-0.23331980896128002,-0.55068384704,9.81763711858
1461,730.754017284,-0.21180654601494,-0.531305145266,9.782900354019999
1462,731.250477944898,-0.2646252192291837,-0.5518015024734694,9.800377153530611
1463,731.7469382,-0.25248894653082,-0.545762081914,9.86138514396
1464,732.2484132000001,-0.2527883239816,-0.54844749756,9.85660408626
1465,732.749887878,-0.291563690180972,-0.55623729859,9.82951641546
1466,733.2513624999999,-0.28457921448118,-0.5705235900879999,9.81826281772
1467,733.75283819,-0.347436502077,-0.58787550659,9.80908989268
1468,734.2492994795919,-0.2807702169602041,-0.5878367708142858,9.865225973489796
1469,734.74575978,-0.278753329465084,-0.569050653078,9.778700088279999
1470,735.2472347199999,-0.22864652709251998,-0.582501681518,9.8279117522
1471,735.7487095399999,-0.23638543395856002,-0.581349078372,9.80077618104
1472,736.25018448,-0.28446545105604,-0.582585507196,9.87406078482
1473,736.751659886,-0.2943868194608,-0.561141101072,9.79782431938
1474,737.25313536,-0.32034583740314,-0.636338726806,9.78701978754
1475,737.749596410204,-0.3010576209226531,-0.8314444716775511,9.871616765204081
1476,738.2460576000001,-0.191820108028,-0.88449867555,9.80236587536
1477,738.747534416,-0.19476298827377,-0.932039813224,9.77984371038
1478,739.2490114,-0.2577100891126,-0.935434753414,9.81571511524
1479,739.7504859200001,-0.31975007629078,-0.7460336151200001,9.82937271448
1480,740.25195992,-0.35684892882336,-0.651609970094,9.79867455138
1481,740.753435708,-0.37989799804900004,-0.590650735476,9.8242952729
1482,741.249896634694,-0.3379085400612245,-0.42832052737142856,9.846713449857143
1483,741.746358172,-0.3173670318538,-0.12167896727866,9.86451962582
1484,742.2478345200001,-0.3055027038602,-0.08036488037216,9.84755690018
1485,742.7493099799999,-0.24966282348888,-0.07385042724988,9.8302139648
1486,743.25078522,-0.2303589660622,0.631482824704,9.91267448724
1487,743.752261416,-0.25548870850259997,0.2490820312504,9.84927832044
1488,744.25373786,-0.26148224487398,-0.75140145264,9.80939825164
1489,744.7501989183675,-0.2325399001789796,-0.7095184263836735,9.848589140714285
1490,745.24665994,-0.212549002071998,-0.1038690032904,9.85603227506
1491,745.74813608,-0.1627595397967,0.13425281982232,9.81961300962
1492,746.24961228,-0.19084413757308,-0.692498941034,9.770982137979999
1493,746.751088728,-0.269622317499492,-0.8062683563199999,9.867564294080001
1494,747.25256528,-0.29674591370729997,-0.929965127548,9.7855139189
1495,747.754041512,-0.2399300628624,-1.082162631226,9.78705571276
1496,748.2505031081633,-0.16303545582093878,-1.7065400073061225,9.770363037836734
1497,748.7469656019999,-0.18471588134774003,-2.35937565304,9.76180322568
1498,749.2484432800001,-0.33268318175951994,-2.7454019073400002,9.71883657508
1499,749.74992018,-0.2903332489054,-2.17366883242,9.682528079579999
1500,750.25139722,-0.22269789733684,-1.6923208008000001,9.82804048456
1501,750.752874884,-0.21338725891328,-1.0393606384660001,9.73321567398
1502,751.2493380020408,-0.28645838834061227,-2.392703938346939,9.655689258081633
1503,751.745800726,-0.34726286315599997,-2.3458228363,9.725928826959999
1504,752.247278202,-0.3000690032962,-1.4722244933900002,9.76796441342
1505,752.748756114,-0.2777444274908,-0.852034185782,9.79845001832
1506,753.25023414,-0.21970711669460002,-0.688714810178,9.8234570161
1507,753.75171366,-0.21589304809649998,-0.721523583992,9.7965729215
1508,754.25319382,-0.22575454101320003,-0.42950184631520005,9.8313515993
1509,754.7496563081631,-0.12398197407778573,0.02436871275520408,9.869405038183674
1510,755.24611838,-0.12028686218928,0.20183727721539999,9.8917420163
1511,755.74759714,-0.09585466919204,0.23572081604156,9.8233492401
1512,756.24907598,0.0062779449416600006,0.5717330749653999,9.92387719102
1513,756.7505549800001,0.8551896240554001,0.607846975712,9.83058519264
1514,757.25203416,2.12286747444,0.14278208312738,9.86980064362
1515,757.753513442,2.313139801054,-0.09589957580592,10.04894810486
1516,758.2499780816327,2.8356175885714285,0.010924221741061224,9.831729303163264
1517,758.7464429199999,2.869862091,0.3091581024178,9.61785955864
1518,759.2479226800001,3.73713159486,0.542280322264,9.95762301658
1519,759.749402668,4.0844423585,0.899901644889,9.957485302919999
1520,760.2508829,3.5543586730919996,0.9971005187879599,9.992030465760001
1521,760.7523630800001,2.6937742675916003,1.152899533052,9.8495956608
1522,761.25384338,0.93687775267858,0.1211520629734,9.76497962042
1523,761.7503099897959,-0.3028263917197959,-0.7949754115530613,9.856290473244897
1524,762.2467771800001,-0.6662525207455999,-0.804139782702,9.94342653828
1525,762.74825692,-0.7385012787046,-0.55843472901,9.66431096162
1526,763.2497363199999,-0.77260635681,-0.640320446778,9.87171366638
1527,763.751216882,-0.747716116334,0.4917094848686,9.79545325016
1528,764.25269742,-0.5152794708202,0.527206668093,9.89739725634
1529,764.75417902,-0.48276408691839995,0.14902410278286,9.73002730392
1530,765.2506461714285,-0.6142980707938775,-0.49820072095714285,9.967661936408163
1531,765.74711286,-0.592096728488,-0.59147701721,9.72428823846
1532,766.2485945000001,-0.5255451232977,-0.6091821990999999,9.83103126526
1533,766.75007624,-1.0160121917898,-0.4312621856644,9.744930313380001
1534,767.25155804,-1.0586435394604,-0.39955512084600003,9.80835342478
1535,767.7530404,-1.00614471129,-0.556282205198,9.73788596192
1536,768.2495081387756,-0.703906626822449,-0.6576619767163265,9.944958128530612
1537,768.74597606,-0.606457864374,-0.6894363098140001,9.70006860338
1538,769.2474591,-0.3926484832748,-0.722631280516,9.72488998692
1539,769.74894166,-0.4759742065434,-0.660525430298,10.00181412084
1540,770.2504242,-0.682089587417,-0.568954852296,9.77561949452
1541,770.7519074400001,-0.6342670348994001,-0.3936214599574,9.84642824674
1542,771.25339078,-0.49023355406839997,-0.364477066038,9.76464431766
1543,771.7498593265307,-0.32558518702530614,-0.3631692754,9.761308397510204
1544,772.2463278800001,-0.26330245972382,-0.394396847534,9.94246553612
1545,772.747811826,0.01962119750368,-0.4081292907692,9.7796910276
1546,773.249296002,0.373494314580526,-0.43325005188219995,9.897139791959999
1547,773.75077982,0.867907177782,-0.45773912658599997,9.690560376
1548,774.25226366,0.742072851542,-0.47927334595,9.91975775786
1549,774.75374788,0.34605337828960003,-0.44633284606800006,9.757351483259999
1550,775.2502173979592,0.15378224898469386,-0.44886759543877547,9.89954745865306
1551,775.746687192,0.39962098387848,-0.41821531677400003,9.79259718934
1552,776.2481720000001,0.3272824127278,-0.418146459964,9.85858596534
1553,776.749656246,0.2604643615639,-0.28125911864479997,9.735613687239999
1554,777.251140342,-0.27427763671986,-0.26792484741,9.90519603862
1555,777.75262564,-0.925782824676,-0.2333317840564,9.772158691560001
1556,778.2541113039999,-1.357332412756,-0.44554847717400003,9.74201138322
1557,778.7505822775511,-1.1042323085387755,-0.6849755859367346,10.060316199387755
1558,779.24705374,-0.571331909175,-0.719074676508,9.648213436879999
1559,779.74853861,-0.32860865478446,-0.8540699523899999,9.78628930662
1560,780.2500231199999,-0.13018727416728,-0.896434854114,9.88173382882
1561,780.751508224,-0.2651496185376,-0.941308538836,9.66862199752
1562,781.2529931240001,-0.21469254456242,-0.8384484375140001,9.87406677226
1563,781.7494642061224,-0.06869490330936735,-0.4676245085942857,9.911977732061224
1564,782.2459354800001,-0.026018893428180007,0.18617384949080001,9.88780520324
1565,782.7474211960001,-0.12007131042081999,0.409180105596,9.75005266128
1566,783.24890686,-0.33353640747535995,0.432744104008,9.91843151544
1567,783.75039404,-0.2966111938524,0.19717896423136,9.83317181424
1568,784.25188202,-0.23289169921728,-0.43177711486180004,10.013097656280001
1569,784.753367156,-0.25382416991564,-0.67794620361,9.576416738819999
1570,785.2498368142857,-0.4229683918683674,-0.7172014290959183,9.89714327410204
1571,785.746308448,-0.36714152526834,-0.644628488158,9.60658799736
1572,786.24779504,-0.655840173307442,-0.6598787750280001,10.0386644898
1573,786.74928152,-0.6071913391111601,-0.517719396972,10.10857511
1574,787.25076812,-0.41411085204832,-0.449751736452,9.68322862248
1575,787.752254568,-0.1550056640534,-0.354885012818,9.49362390732
1576,788.2537409,-0.16013399963640002,-0.415978967284,10.136007065180001
1577,788.7502131265306,-0.03063425492893877,-0.3824241326714286,9.717910888285715
1578,789.24668574,0.0374940307612,-0.34714011840799996,9.66629284086
1579,789.7481729000001,-0.17393529968762,-0.32193852539,10.06498874842
1580,790.2496601600001,-0.1152154083222,-0.2642814239614,9.854457550020001
1581,790.75114764,-0.1971610015817,-0.3072690307638,9.701044573899999
1582,791.2526351600001,-0.18838026122258,-0.490832308954,9.977561553560001
1583,791.754123016,-0.2073997100882,-0.6574598052999999,9.6903867372
1584,792.2505962857143,-0.07988184403469388,-0.718545572712245,9.816638236510205
1585,792.747069242,-0.0842268493653,-0.792437118528,9.93385544156
1586,793.248557022,-0.12534933471652002,-0.8704638610940001,9.82220561802
1587,793.750045008,-0.10583890683413999,-1.725713360486,9.54099439994
1588,794.2515329600001,-0.3439218109234,-2.66524060352,9.77253890072
1589,794.75302098,-0.3150438629268,-3.2639236359400003,9.65464705824
1590,795.2494940612244,-0.32943432555767344,-3.09715738722449,9.745716331755103
1591,795.7459676899999,-0.17797390135906,-1.94247460328,9.6227424042
1592,796.2474563799999,-0.13058245238917998,-1.120485937476,9.872045974899999
1593,796.7489446300001,-0.18774258727947998,-1.5379408355800002,9.74238859872
1594,797.25043278,-0.1232716552712,-1.433598815902,9.7697247528
1595,797.75192132,-0.10136321411218001,-0.70485724182,9.76302767954
1596,798.2534098399999,-0.127489883423,-0.8934530547980001,9.88063511372
1597,798.7498838551021,0.060862211888367344,-0.24338469524930204,9.80211232077551
1598,799.2463581000001,1.683040100176,-0.42513392944480005,9.69058432594
1599,799.7478466360001,2.5670028899800004,-0.8939919341954,9.7659585846
1600,800.249335,2.64629300538,-1.088213049302,10.142910708839999
1601,800.7508237259999,1.4309672881917999,-0.843948001104,9.83164798282
1602,801.25231246,-3.1540221771540002,-0.42877735290179997,9.73182057532
1603,801.7538015120001,-4.64129038694,0.033191976928820005,9.653569299179999
1604,802.2502760244897,-5.098868277387755,0.06996878487666532,9.72845630542857
1605,802.7467503319999,-5.14419958194,0.12042158202551599,9.55845708616
1606,803.24823982,-3.12298272394,0.433726062018,9.766901623579999
1607,803.749728742,1.405951309155,0.471088366702,9.98846488046
1608,804.25121756,3.16755703128,0.420562435916,10.10407247354
1609,804.7527067440001,2.8455376739399996,0.9659562835200001,9.8486466336
1610,805.25419598,0.5799509857241599,1.5794285614399999,9.9359989836
1611,805.7506704734693,0.0019948313168571446,0.9906277341011224,10.029089299693878
1612,806.2471448399999,0.48366521300542,-0.63206361695,9.74601705278
1613,806.748635468,0.7099915649494,-0.700133065798,9.786094711859999
1614,807.2501271799999,0.3884003173866,0.1296094757144,9.82490300872
1615,807.751616316,0.23053559875978,0.2565035980266,9.53080957956
1616,808.25310482,-0.19955003357216,-0.1927930847172,10.28197452418
1617,808.7495800102041,-0.14111980515916123,-0.24973271895761223,9.679544752591836
1618,809.24605522,-0.024701632678259998,0.0261685821546,8.80254700946
1619,809.7475457,0.09143885193548,0.01096918945452,10.55839270928
1620,810.24903628,0.06506369934511999,0.382155303958,9.72623419176
1621,810.7505271360001,-0.020085232541999995,0.2793191528342,10.18912261076
1622,811.2520182000001,-0.18600619811321,-0.21594693603540002,9.55205639662
1623,811.753508952,-0.27538533325054,-0.529715451048,9.82044827258
1624,812.2499845755102,-0.20243108320836736,-0.5916675801204082,9.798877211714286
1625,812.74646106,-0.1216131042502,-0.5776098541279999,9.74747502104
1626,813.247952702,0.2239133697484,-0.03572770385312,9.69177884206
1627,813.7494443,-0.0866967132562,0.215042816162842,9.84420387288
1628,814.2509361799999,-0.26082660827704,0.1755519378656,10.0120318727
1629,814.75242786,-0.20852836303508,0.10952723693454,9.8902032162
1630,815.2539194,0.3091311584504,-0.328725411988,9.91183922456
1631,815.750396510204,0.40463610590775506,-0.5893733713612245,9.793185985163266
1632,816.2468737,0.49211364440600003,-0.596928680422,9.78318476254
1633,816.74836613,0.567826199358,-0.599251849364,9.87183341626
1634,817.24985898,0.68093399047,-0.5684608795239999,9.80889829062
1635,817.75135114,0.47327082823864003,-0.55534216004,9.76376714204
1636,818.25284308,0.44941643370718,-0.66776737061,9.93216994648
1637,818.7493204510204,0.40609022490163266,-0.7368809135571429,9.950478282244898
1638,819.24579774,0.29801826782488,-0.7185477722100001,9.7578933563
1639,819.74729053,0.11211086425,-0.731418008426,9.843389566099999
1640,820.248783764,0.09402247925263801,-0.731438964842,9.909120877180001
1641,820.7502758100001,0.13467194824126,-0.6930617706319999,9.8365757352
1642,821.2517672439999,0.12139455871063999,-0.62560903931,9.822744498319999
1643,821.753259942,-0.38922360534219996,-0.568990777588,9.88040758702
1644,822.2497379734695,-1.2438888300387756,-0.4265028786142857,9.935026740244899
1645,822.74621556,-1.8736656921200001,-0.220698056032,9.7634138766
1646,823.24770798,-2.3395448913799997,-0.17802479553240003,9.57516534126
1647,823.7492005,-2.68597847902,-0.24396866455059998,9.98578844632
1648,824.250692842,-2.7503685791200003,-0.2530308196976,9.97093034354
1649,824.752185722,-2.85005827334,-0.2368285125696,9.64322281454
1650,825.2536791,-2.709293994188,-0.288108874508,10.02686303106
1651,825.7501565367347,-2.983528373877551,-0.33100758455306123,9.712106631857143
1652,826.2466335800001,-2.8369994293,-0.47940207824840003,8.98683178736
1653,826.7481265920001,-2.0200941925199998,-0.760625271604,10.38518789026
1654,827.24961996,-1.8715371185199998,-0.718386108404,9.8700281711
1655,827.75111291,-1.1396850127936,-0.854072946144,10.08629244716
1656,828.2526059799999,-0.4609664153998,-0.851366574112,9.53248309938
1657,828.75409876,-0.4691573821982,-0.901655996716,9.77268260178
1658,829.2505766020408,-0.4727566932945306,-0.9003623806448979,9.952879411530612
1659,829.74705464,-0.370368814084,-0.8918962921220001,9.6396213044
1660,830.24854748,-0.14568305053194,-0.910775033576,9.93834011536
1661,830.7500407480001,-0.21580922241279998,-0.7935657714680001,9.64417782898
1662,831.2515341,-0.1645558044427,-0.7661667480559999,9.85785248998
1663,831.75302745,-0.5296974884209,-0.774663079826,10.00061062332
1664,832.2495060163264,-0.36290961127714283,-0.7175496844938776,9.729916534367348
1665,832.745984662,0.04144581298306,-0.6433082336379999,9.828678158499999
1666,833.24747852,0.16146024170306,-0.61881317139,9.74112522574
1667,833.7489720000001,-0.09216334534052001,-0.60822119751,9.84373983822
1668,834.250465564,-0.1140987304618,-0.611083245848,10.04096071434
1669,834.7519591759999,-0.5161716156072,-0.540379275512,9.73834700326
1670,835.25345292,-1.211152395664,-0.558488616952,9.78993273006
1671,835.7499313,-1.6770757683,-0.5540010101861225,9.595022557857144
1672,836.2464091,-1.69788023982,-0.515662673948,9.93707674262
1673,836.747902692,-1.6561470245999999,-0.375350454716,10.048385274700001
1674,837.249396184,-2.13842611996,-0.317022747806,9.71037018132
1675,837.750889956,-2.6629174346399997,-0.17347725219600002,9.795920278879999
1676,838.25238402,-2.5409600464,-0.143728115844,9.79928827538
1677,838.7538774760001,-2.2308080108799997,-0.11372450866224,9.8962925537
1678,839.2503558959185,-2.510194309755102,-0.2862445473175796,10.044021513
1679,839.7468345579999,-2.0397543091,-0.681799191278,9.7046131527
1680,840.2483283,-1.565438653554,-1.387506665078,9.83530038754
1681,840.7498218000001,-1.266962338262,-2.50512456664,9.636429940840001
1682,841.25131526,-0.5822202667176399,-2.89062990416,9.50165321018
1683,841.7528085280001,-0.42854982605258,-2.87836141662,9.69765262762
1684,842.2492866938775,-0.42207331442904084,-1.9162477952285715,9.896712537836734
1685,842.745765104,-0.238657708734064,-0.4858147430438,9.77840370438
1686,843.2472585200001,-0.12105626219514001,0.262802499392596,9.9389747952
1687,843.7487516599999,-0.031144235231200003,0.558060507204,9.932442379320001
1688,844.2502447800001,-0.3424937805122,0.913705938738,9.7641653137
1689,844.751737436,-0.3560495910674,1.3438753967200001,10.01407063282
1690,845.2532298,0.015723303220499998,1.5041770476799998,9.96065271624
1691,845.7497082061225,0.12552468436512246,1.482443772877551,10.061672562734694
1692,846.24618776,0.2153032745378,1.46359044806,9.760545840539999
1693,846.747679484,0.18024318237748,1.4108102051399998,9.92376043434
1694,847.24916978,-0.21525836792087,1.28636798398,9.97128061508
1695,847.750661824,-0.352349285891,0.36034565731120005,9.637489737240001
1696,848.2521534599999,0.022073098755070002,-0.7847730560339999,10.18049155932
1697,848.753645656,-0.14931749268172,-0.722960595702,9.749292242320001
1698,849.2501230918367,-0.025645649190959185,-0.521915691144898,9.699102042163265
1699,849.74659996,-0.0574415496873,-0.484775903324,9.74023607452
1700,850.24809132,-0.225913211061,-0.522144195558,9.76712915022
1701,850.7495831699999,-0.21677621154362,-0.7899582733180001,10.54628887974
1702,851.2510753399999,0.0835502563486,-0.777279638662,9.54654785148
1703,851.752567454,0.08035589904710001,-0.913568225094,9.691635141079999
1704,852.25406048,-0.1639510620148,-1.516936514252,9.19360579842
1705,852.7505367142857,0.10185553725591835,-2.604036918142857,10.319946703204081
1706,853.2470120199999,-0.06295308837500001,-3.0719538391,9.43194916092
1707,853.748503672,-0.012543914797679996,-3.275877777,9.66876869206
1708,854.2499954,0.0069156189090999985,-3.3120904724,9.7384697482
1709,854.751486672,0.08471782837,-3.0010552734599996,9.85533771968
