Time_interval,Time,Acceleration_x,Acceleration_y,Acceleration_z
0,0.25280913349081635,-0.8349062088534694,0.2975156215885714,-0.04271191079185715
1,0.7490966316600001,-0.7699495801428,-0.5381222973538,0.139832288524
2,1.25039853174,0.899878695028,-0.27561240875660004,0.4336559998346
3,1.751700985,-0.05507399198542,0.9444281687618999,-0.11933931563233799
4,2.2530039525000003,-0.0011626536218920002,-0.0007509088799219998,-0.00043420689854
5,2.7543082500000002,0.00048101277082199993,-0.00017571122346463997,0.000239839926406
6,3.250600737244898,0.00025463301930204096,-9.609961274081622e-05,-2.7785243979387768e-05
7,3.746894375,0.00026304883866200003,0.00034264522598400016,-0.000150018539325
8,4.24820244276,-0.000274085840084,0.00010329335905228012,-0.000442833490734
9,4.749511587,0.0003257738520729401,0.00045577848359999994,-0.0001374826882598
10,5.250821424240001,-0.00010826285019400011,-0.00011099483785999997,-0.00030269856102492
11,5.752132925,0.0009627483876957999,-0.0006918317083643989,-0.0012272407323455996
12,6.253445697759999,-0.000367117309828,0.0012882610034839997,0.0009109453787313999
13,6.749746350673469,0.0004334183771044898,0.0004602453805828572,0.00016005891518448983
14,7.246047872,-0.0001529364008704,1.0717622906799874e-05,-1.1953886103800013e-05
15,7.747363702,0.00015676375478387999,0.00034461314764019994,-0.0003301331890312
16,8.248680642,0.0032052346784829998,-7.377333025600009e-05,-0.00035575068090200004
17,8.749998602,0.002967669358644,-0.0015896004161700004,-0.009961804333342001
18,9.2513176995,0.002013194253608,0.004588944735298,-0.0472052757064
19,9.752637767,0.0018698476718238,0.005671931570140001,-0.10208815336240001
20,10.253958514999999,0.009774454580768,0.0085908290466488,-0.165955569744
21,10.750267144489795,-0.011777311782020409,-0.014186005906857145,-0.18710171994081634
22,11.2465770012,-0.0047865560554336,-0.032975921602349995,-0.1392548412058
23,11.74790093,0.01558442255566,-0.026478068289480003,-0.00775387434562
24,12.249225241,0.02360035301126,0.008643063212546001,0.11944731965460001
25,12.750550620199999,-0.003372001611834,0.02014218160408,0.11627979807759999
26,13.2518778282,-0.01984412150486,0.037478635309198,0.026449080296299998
27,13.753205479999998,-0.010632184474416,0.01910627998454,0.012728437979926
28,14.249520645306122,0.010776706028530612,-0.0007079972378244898,0.0030070865499591836
29,14.74583658,-0.0003133377061839998,0.00413809538816,-0.04080423442628
30,15.24716666,0.007997171087008,0.007252199818147998,-0.0787382713722
31,15.74849764,0.0086670709402486,-0.021102040706538,-0.053148791268200005
32,16.24982928,-0.015570611199622,-0.007973009115140001,-0.0379108621172
33,16.75116144,-0.011332331961288,0.00044094289795999943,-0.021464959020099997
34,17.2524941112,-0.0026597684817830005,0.020899673215988,0.005053412660652
35,17.75382742,0.014838135046938001,-0.004137918827652,0.02994985123232
36,18.250149727346937,-0.004241648442881632,-0.012617742697653062,0.06350860516673469
37,18.746471569999997,-0.022831810321186002,-0.0069390514407600004,0.0589007164164
38,19.247804707,0.029214366767634,-0.045009383249240004,0.020809383145422
39,19.74913966,-0.02469576010484,0.012804559152579999,0.005725497999156
40,20.2504757322,0.012007732893958002,0.013598941332059999,-0.00373346057704054
41,20.751812140000002,-0.008430389650406,0.022039015868086,0.014931464723984
42,21.253148870199997,-0.0022956043106339996,-0.0057856481711098,0.014498322620007999
43,21.749472972040817,0.010032649864063265,0.007184437255458163,0.015711495707330613
44,22.2457979004,-0.00770274057958,0.004674106295350001,0.009383472295535
45,22.7471361302,-0.011165715586642,-0.002848738659353599,-0.001343786441336
46,23.2484743958,-0.00399867877324,0.00807752556626,0.010474581516354
47,23.749812700000003,0.011701304912179999,0.01674922640198,0.00881053858914
48,24.251150966199997,0.01770659338674,0.002688387686999999,-0.0015086753665640002
49,24.75248981,-0.0171813441440972,0.00468736711458,-0.000984317716496244
50,25.2538293612,0.020221959650606004,-0.018100668340304004,-0.003512008441778
51,25.750156208367347,-0.02246253638014898,0.0030088119927142855,0.0019452017564263264
52,26.2464840462,0.0037027837709799993,0.006824992091620002,0.0009212165816819999
53,26.74782606,-0.01054537982724,-0.007384726332592,0.0011789538408662
54,27.2491689042,0.030418407786860002,0.003965987061319999,0.054094167985580005
55,27.75051213,0.015402528252879999,0.0022433128501799997,0.264508842372
56,28.251855039000002,-0.030193636026318,-0.03849557651989,0.572966276408
57,28.75319885,-0.004243782693024,-0.034575779534,0.7035460674840001
58,29.249530559795918,-0.009894225366683674,-0.03801667682402041,0.6765635767775511
59,29.74586245,-0.007860962078319999,-0.06543300874891,0.474465110302
60,30.247207674000002,0.013276316803020001,-0.015170911105807998,0.167280161678
61,30.7485540102,0.009971177913134,-0.001428613506040001,0.10430859402279999
62,31.249901141400002,-0.006490330891674,-0.0033689305781400003,0.05033271020258
63,31.75124863,-0.008895628889866,-0.015035409014699998,0.010638476125998
64,32.252597225,-0.014999506957640001,-0.02772083747196,-0.03188220328658
65,32.75394582,0.020866245786452003,-0.0152181914718,-0.062537586354
66,33.25028131632653,-0.007953801220879592,0.017220678340367345,-0.04404027068204082
67,33.74661775,0.00451235548692,0.013805751129999998,-0.042396931461519995
68,34.2479674764,-0.018060958701554,0.0036887820148319987,-0.0502521739158
69,34.749318509999995,0.0045154201617,0.0010382516362799996,-0.01991949999257
70,35.2506707836,0.00266245967758,0.008246368329300001,-0.012520601908122
71,35.75202333,-0.0016395833344400007,0.02539062539232,-0.00891253521696
72,36.2533757164,-0.0081995046975,-0.00519479623894,-0.012783177501224001
73,36.74971531897959,-0.004645670830571429,-0.004256135025918367,-0.009766823203422448
74,37.2460561124,-0.0127609260108,0.0268865589951,-0.011814571564977
75,37.7474105,0.09200552292348001,-5.391443597999999e-05,-0.009946443733936
76,38.2487649136,-0.08964889717808001,-0.011792976429160001,-0.004725856404268
77,38.75011984,0.0475511419352,0.00689993494298,0.00459075717267
78,39.2514752,-0.027309684438612,0.017517855485059998,0.002688016621664
79,39.75283119,0.01680612760532,-0.0004098005604339999,0.005009596238364
80,40.254187707599996,0.0029075092916219995,-0.024108795701279998,0.0010201950254639998
81,40.75053140816327,-0.024853117810979593,-0.002450778548959184,0.005236902302736735
82,41.246876094,0.0053547740826259994,0.00306632223428,0.01827142471486
83,41.748234860000004,0.0014318567422938,0.018692830307777998,0.017807461200106
84,42.2495940454,0.010809633386862002,-0.002093571908379999,0.0136816249064442
85,42.750953910199996,-0.00966024884009,-0.011741706675854,0.009482374491408
86,43.252313906,0.005875702910146,-0.018773274411221997,0.009747878786004
87,43.75367487,-0.01117883892694,0.02087226385238,0.0324787262803223
88,44.25002329346938,0.015921187473248978,0.00855902732560694,0.042203292896204087
89,44.74637208,-0.018944104761242,6.902016199999985e-05,0.027712288033779998
90,45.247735394,0.0016187369824504003,-0.014228185769586,0.0444200851024
91,45.7490990404,0.01547026838954,0.006663919037277999,0.045577537678000005
92,46.2504627,-0.01391438899622,0.007178769083440001,0.03809188479616
93,46.7518265,-0.006430267169616599,0.007081322687439998,0.001589933268436
94,47.25319019,0.0030420321685,0.0206430662967,0.0117388687165388
95,47.74954060979592,0.011455308305555101,-0.0022004036982040793,0.22561809998224489
96,48.245891424199996,-0.007038786784099999,-0.05730507062304,0.477184174064
97,48.74725636,-0.0004555905615620001,-0.06030335781962,0.619905526638
98,49.248621770999996,-0.0021197661481399998,-0.04375151271898,0.6731549882919999
99,49.749987510000004,-0.02609360648384,-0.03681027459134,0.570878763194
100,50.251353976,0.04046495848556,0.0028626328327819995,0.27051011949799997
101,50.75272041,-0.014146833457318,-0.00610485153234,0.0959415737496
102,51.254086584999996,-0.008826073454859999,0.007741137659921999,0.02400462223262
103,51.75043973469388,-0.008015660426481632,-0.0013637347151591835,0.011885781592089795
104,52.246793049999994,0.004585520857798,0.014358576657908,0.011380119651838001
105,52.74816041,0.0014168158640199995,-0.009118118397614,0.007680117676422
106,53.249528391599995,0.008491052630858,-0.0009594033188799999,0.005075212300012
107,53.7508961902,-0.003609338989728,-0.004662437327419999,0.0050248898262494
108,54.25226373,-0.005718573080446,0.00023719202794000033,0.00412484861471
109,54.75363133,0.005182524052982001,0.012842499267842,-0.04213356140511
110,55.24998559469388,0.011365931120632652,-0.008393289579406958,-0.07258692444571428
111,55.7463399104,0.0014212043116402,0.01035291330052,-0.046207968984
112,56.2477075284,-0.011243310709646001,0.006998971767199999,-0.008803833253088
113,56.74907547,-0.00391306580048,0.001677139568904,-0.006072247624311999
114,57.2504442072,0.00745806287008,0.016824627396664002,-0.0061982077988752
115,57.75181278,0.011857547630300001,-0.00505368118128,-0.00922622033892
116,58.25318096,0.006360314563154001,-0.010733183418368,-0.004485347978494
117,58.74953587673469,-0.0295250863501,0.0059175572679183676,-0.005959999329608163
118,59.2458911128,-0.0017141259554800002,-0.015907421616829998,-0.006165685814496
119,59.74726038,0.003875658941064,0.00383053746088,-0.00234464889617642
120,60.248629959999995,0.0144962361083,0.015319173484920002,-0.0009053785123479998
121,60.749999900000006,-0.008313619186792,-0.010513820842820001,-0.00309068769681
122,61.251369811800004,-0.007081990838432,0.0018827182352379995,-0.001109226728008
123,61.75273970999999,0.0027320126801199996,-0.006189962678440001,-0.04284229872758
124,62.254109610200004,-0.0008029350085920004,-0.010090730117360001,-0.048156101202966
125,62.75046607428572,-0.0009035556309183668,-0.010831044036245715,0.002399770110457143
126,63.2468226222,-0.003257274274086,-0.00019735239516799983,0.0025956902091619997
127,63.7481931,0.003319555874772,-0.0076117309724356005,0.00098452791561944
128,64.249563878,0.089569852446326,-0.0018092697566359998,-0.00013677617544399998
129,64.75093481,0.00018930697796000002,0.0011400350458199999,0.004949285644032
130,65.2523060402,-0.079227923812282,-0.0023450065662600004,0.0115585415874
131,65.7536774002,-0.00017737517122000003,-0.00518758954474,0.0621147397718
132,66.25003464591838,0.027039629254479593,0.0032611578252142856,0.26854524138367347
133,66.74639241,0.006921479710896,-0.03112069455866,0.5378609776559999
134,67.2477648258,-0.008805098579400001,-0.01698995631262,0.70742999434
135,67.74913726,-0.009943103845986,-0.031180828494120003,0.6464310288420001
136,68.2505100442,-0.0694040725927,-0.01928742763214,0.37207328647
137,68.7518829502,0.07898136413058,0.06104868268836,0.164978534733
138,69.253255846,-0.028281386317620002,-0.0170517968485,0.04933195302835
139,69.74961531632653,0.015712526987859184,0.010013897542136736,-0.023291238782755103
140,70.24597472420001,0.0042138262551000005,0.0057981679674399995,-0.0345194930212
141,70.7473482702,0.014798422081787,0.0016736599346040004,-0.048828709051
142,71.248722655,-0.00218119361503,-0.021410911279828002,-0.1038794949628
143,71.75009716,0.0066891715117579995,-0.0025894468558513993,-0.17287650853599998
144,72.251472371,-0.017516876608342,-0.005776375476100001,-0.18630224556000002
145,72.75284773999999,0.018107242929519998,0.01783239293876,-0.18801337301
146,73.2542233394,-0.0010208166013861999,-0.00548497657222,-0.19148153096
147,73.75058535489796,-0.008633534300812245,0.010317723970963266,-0.19822840665918368
148,74.24694718880001,-0.0004149378556380001,0.03767331537644,-0.19689104706799998
149,74.74832318,0.026459109103300002,0.0025841137201799984,-0.151574546698
150,75.2496999036,-0.01462348689326,0.0033634077737000004,-0.15707626282599998
151,75.75107668,0.005468177105098,0.0071688894662460005,-0.164626107516
152,76.25245319,0.004064580732568,0.021782835069792,-0.127291749866
153,76.75382996,0.01114218330058,0.007276761405200001,-0.1359088583194
154,77.25019311938776,-0.004172385717571428,0.023339130381063264,-0.15657700507142858
155,77.74655674,0.0300455037044138,-0.0160894698717,-0.164461393958
156,78.247935332,-0.01172752687749,0.0033027437530399996,-0.17869986266000001
157,78.74931397,-0.0014759747685979996,0.02637035810148,-0.18356291085999998
158,79.2506924182,-0.0224530816798,0.004830155175979999,-0.18781719505600003
159,79.75207143,0.12710099879081999,0.06649110784836,-0.161890570968
160,80.25345087800001,-0.1563880079596,-0.020633366254600004,-0.107491695881
161,80.74981702714285,0.051095199240408166,0.0011289354166326513,-0.019017701060683265
162,81.2461838982,0.014809647167139998,-0.052424541956400006,0.00349679751569
163,81.74756495,0.017116441150306,-0.0697715058629,0.004956264416654
164,82.24894645,0.007757198381971341,0.0028446795804000008,0.03849687620986
165,82.7503283704,-0.025083683021967798,-0.034376688208456,0.0864611901324
166,83.25171066200001,-0.02626229293466,-0.06792318149042,0.1573124647112
167,83.75309329,0.0402236242908,0.065218460753666,0.161316052678
168,84.24946282265306,-0.00857041291577551,-0.02199188862046939,0.13188952602285714
169,84.74583243,-0.002128835616303998,-0.00731288298728,0.192266444264
170,85.2472153604,0.04302691282796,0.04435560747138,0.19550668597600002
171,85.74859898999999,-0.014274961184042001,0.015672711173576,0.211777937112
172,86.2499834412,-0.01776416452686,-0.068680943831118,0.18494892388
173,86.75136834999999,0.0424573213872,0.01176330394806,0.1133594986758
174,87.2527540068,-0.0158656347059,0.03101844472652,0.0498243092372
175,87.75413984999999,-0.007764404744659999,0.01067677892822,0.01310140877886
176,88.25051213061225,-0.10104205724073469,0.032515257948979595,-0.0713462057922449
177,88.74688474,0.051804013863699996,0.054916271398154005,-0.0804040531068
178,89.24827085999999,0.04313289457944,0.0012870746863800004,-0.1018661293328
179,89.74965758,0.04324751881894,-0.041936005307508,-0.1363317146852
180,90.2510455402,-0.02058086307728,-0.013834978562082,-0.15002483695000002
181,90.75243381,-0.01701459252266,0.0465629046149,-0.152580582494
182,91.253821767,0.05416270658376,0.019186326751512002,-0.12977765888360002
183,91.75019619142857,-0.02107112712362653,-0.021463745823163266,-0.09799581279693878
184,92.2465714306,-0.009279395667586,0.00369911946232,-0.0512755268074
185,92.74796092000001,0.10769828909235599,0.022709861796134004,-0.015511118255199801
186,93.249350835,-0.1374717249688,-0.00189764515626,-0.010269197854009999
187,93.75074143,0.062522851674118,0.008435595166236,0.003785626920404
188,94.2521327656,0.0015140538015459995,-0.007330805425219999,0.029107068097332
189,94.75352462999999,0.0005090415478320001,-0.05151796893414,0.06437011070519999
190,95.24990262979591,-0.01042598976167347,-0.0019341151832040807,0.043047181073673474
191,95.7462812804,-0.028693195927100002,-0.05458939068852,-0.01169054561076
192,96.2476747512,0.02902954353774,0.0318905465485968,-0.01478017420956
193,96.74906867,-0.01122809743549,0.024768388904703998,0.023319947006882
194,97.25046348,-0.01185196839264,0.01534067617736,0.0495141236862
195,97.75185864999999,0.0176191981701546,-0.0021601944977739994,0.0315535460414
196,98.25325408459999,-0.004974058577638,-0.023916090829206,0.02377680243956
197,98.7496361122449,0.0024359057732183677,-0.010924157096987144,0.018108770574632654
198,99.24601883999999,-0.018622471839379998,0.012481573446928,0.002164988475848
199,99.74741608000001,0.023514771060686,0.007148566451408001,-0.0050010258189059995
200,100.24881368,-0.00206203635834,-0.00984039930646,-0.0005093345791454001
201,100.75021183999999,-0.01997084274878,0.00436951017918,0.00658119070827
202,101.2516102,0.0011162533797740002,0.015907457526816,0.008020373159544
203,101.75300896,0.0012964802048580002,-0.01814705573836,0.002850023261296
204,102.24939506530613,-0.003678979684732653,-0.00924319781510204,-0.016284524860034694
205,102.745780242,0.00044988808256000014,-0.0005309230667800005,-0.0008318720768974
206,103.24718091999999,-0.0065861170641856,0.005288009149512001,0.00034722935657999985
207,103.748581,0.0224207848111796,0.014631822509552002,0.017269593537754
208,104.24998228,0.09129570557076,-0.005419292952779999,0.0165098797435
209,104.75138378,0.006286817453832,-0.00013871487355399917,0.00029902193460999997
210,105.25278488,0.0004336039258840002,-0.0026019133812645993,5.780347166700003e-05
211,105.75418666,0.062719426304,0.007023014891668,0.000669948804452
212,106.25057496122449,0.010785393340857144,-0.008021416550979592,-0.0012412971807130612
213,106.74696324,-0.020869223363840003,0.0006441423670999996,0.000519977621815
214,107.248365988,0.013438918143830001,0.0003729103223484001,5.2330746514000026e-05
215,107.74976858,-0.0010800883826380002,-0.0004871659914697999,-0.0003477580472884
216,108.25117098000001,0.00015393917449209202,0.00022325525073540006,-0.0002790327742396
217,108.75257362,2.684887495540004e-05,0.0005563324504106,-0.0004109160415412
218,109.25397656,-0.0002932395599886,0.0004846373759116,-0.0002049738273534
219,109.75036590408163,-0.00021118570921122452,-0.00024887032771632645,-0.00048186632383040814
220,110.24675577600001,0.00014672761779,-3.9692483885999987e-05,-0.00030865190896340006
221,110.74815991999999,-3.9500186895993945e-07,0.00022489817799999998,-9.96350601412e-05
222,111.249564106,-0.000203743791224,0.0004312832932703999,-0.00010305913279639998
223,111.750968622,0.0002726441715004,-3.435732818000033e-06,-0.00029286864330966
224,112.252373794,0.0010740734822799998,-5.482885040199992e-05,-9.876861820100002e-05
225,112.75377924200001,0.005205312669051599,-0.00080722255626,-0.00019037371497580003
226,113.25017076734694,-0.00720481213417551,-0.0006510620383265307,1.6549390771428593e-05
227,113.7465626,-0.02429133484992,-0.0030761722752999997,0.0007401926246216001
228,114.24796864,-0.022630518972696,-0.0057154347191224,0.0021527874050724
229,114.7493751,-0.007154426593207999,-0.003511123982526,0.018646044940822
230,115.25078181999999,0.012503025261106,0.012900491291928001,0.18234403476240002
231,115.75218892000001,-0.03013012252749,-0.016664893525176,0.540416804558
232,116.25359645799999,-0.04490083813614001,-0.03276662303986,0.6858192622679999
233,116.74999019387755,-0.02476643508638163,0.01989703950429796,0.5478616405469388
234,117.246383964,-0.06622504046199999,0.0033836038773399995,0.493686198004
235,117.74779206,0.0097495060077,-0.01553627573612,0.404491209986
236,118.24920062999999,0.0103208773590954,-0.021997834798715997,0.220292705004
237,118.75060926,0.00905882052147,-0.00810369420848,0.0620755008222
238,119.252018332,0.010746971136146,-0.013053655187246,0.012816011740440001
239,119.753427402,-0.004092222470356,0.006724202260445999,0.0125778837965
240,120.24982211224489,0.0015214433778591838,-0.010423686688003878,0.007210444972306123
241,120.746217,0.004412077646776,0.010208478328029999,-0.044485027168738
242,121.24762616800001,-0.011722142901456001,-0.004154582945066,0.007131510142724
243,121.74903516,-0.0026014033703,-0.004850003198086,-0.0079047728160998
244,122.25044378000001,0.001797970766282,0.01023039966766,-0.010113312841886
245,122.751852222,-0.003281497182582,0.00659600338982,-0.006949549230802
246,123.253260408,0.0032611354989844003,0.02045919040166,0.003682454496163
247,123.74965448979593,0.005056102095469387,-0.034402135179973474,0.005883555145477551
248,124.24604826000001,-0.006834360771006,0.010991043355679998,-0.010977355951594001
249,124.7474561,-0.00384740686022,-0.00868357500118,-0.0089443827371894
250,125.24886458,-0.002140399245062,0.0095080194813,-0.006089796265742
251,125.75027299999999,-0.0070066250117539995,-0.00779091125236,-0.00423268228057
252,126.251680656,0.0042808883729200005,0.008426285701828,0.00493607443521824
253,126.75308833999999,0.0053436507754759995,0.01335848401424,0.006039965415148
254,127.24948205102041,-0.006654799621683469,0.020523353014571425,0.040739123676632655
255,127.7458758,0.003954540928684001,0.0031777533908980003,0.084593618883
256,128.247283984,-0.02968036737328,-0.04742182410982,0.10769317343719999
257,128.748692242,0.0085484049653,-0.048096444413460004,0.131567824784
258,129.250100628,0.0073030432035091596,-0.05087617609782,0.1337762650864
259,129.7515091,0.026515925694064402,0.016866456121282,0.08317070081700001
260,130.25291736,0.015327974585554,0.026592207663859998,0.028025050225868
261,130.74931179795917,0.024698128427897956,-0.02791941884217347,-0.03917239421056939
262,131.24570677399998,0.01947706329596,-0.005632402682734,-0.098737538605
263,131.74711612,0.006344078845062,-0.02248217263202,-0.210382687156
264,132.248525708,-0.0147185467653,-0.004875328382864,-0.379016497724
265,132.7499357,-0.008043325720512,-0.0401093143408,-0.5483686382282
266,133.251345832,-0.06649559149614,-0.0020966125656279987,-0.732924102544
267,133.75275646,-0.0009602239915059999,-0.008190357228784,-0.7693067359820001
268,134.25416793,-0.1022118102772,0.0117147199737212,-0.7883946251839999
269,134.7505657244898,-0.02111071436481633,0.0741728558472449,-0.46417182561836734
270,135.246963686,-0.014243624302762001,0.04379229186008,-0.038255382198976
271,135.74837626000001,-0.009555119360304,-0.002640369041026,0.22826619774
272,136.24978926,-0.026249458174967998,-0.011889359913846001,0.25199087769
273,136.75120252,-0.027019823994926,-0.01707826366627,0.192038336998
274,137.252616262,-0.0053440740796559996,-0.0150733418390478,0.157815703452
275,137.7540304,-0.03322455506786,-0.02281089780596,0.14630722672
276,138.25043137959184,0.03901771195605715,0.01294123492532449,0.06370155216816327
277,138.74683292,-0.0002075970547119999,0.005816848316603999,-0.002308638084808
278,139.248247716,-0.022605520803062,0.012414708677955999,-0.02670386973242
279,139.74966304,-0.0114863772227946,-0.0014811875665419999,-0.01630966770486
280,140.251079646,0.0018028273715718001,0.004623525832182,-0.0028737316106260003
281,140.75249638,0.008529316196616999,0.003686179862924,0.0006046122732179999
282,141.253913736,0.004288098942428,0.001389810833912,0.0014927202684078
283,141.75031709183673,-2.1167128013061224e-05,0.008335029610781633,0.002467591850040408
284,142.24672014,0.008821625970498001,0.0006585861925619999,0.001202473661374
285,142.74813756,0.020917452163985863,0.0059704313706841995,0.001640046685994
286,143.24955574400002,0.0062148031307266,-0.0035228868763758003,0.0020771332249218
287,143.75097395999998,0.007412602519165999,-0.012314841197402,-0.031732546574899996
288,144.25239148,-0.0038589168797419997,-0.015961925062566,-0.0824450078604
289,144.7538092,-0.01253841776386,-0.005860524671279999,-0.1256536533002
290,145.25021366938773,-0.01975291197653061,0.011879692805387755,-0.15517816890816324
291,145.74661826,-0.01200552533361,0.014648500420014001,-0.16812174677800001
292,146.24803694,0.014340296666499998,0.0016436463979459994,-0.12601469695200002
293,146.7494557,0.039714855067084,0.035061171828902,-0.138625422118
294,147.250874724,-0.03574074602652,-0.0089098023167,-0.149747368696
295,147.7522939,0.006727020377199999,0.010193343161148,-0.139574436244
296,148.2537128,0.0185256576538498,0.05000408213562,-0.028002723496282
297,148.75011769591836,0.004093784933706326,0.013764689722312245,0.04109698595302041
298,149.24652317,-0.01939277983216,0.0184984802451712,0.14839002116959998
299,149.74794296,0.0033786581837478,-0.013278697709960001,0.18144231349399997
300,150.24936264,-0.0087050610496,-0.03874440235108,0.0994656851878
301,150.7507825,0.0015298159879383998,-0.01507231914324,0.022771183350146
302,151.252202444,-0.0050984692475058,-0.011751791265148002,-0.0125565139161676
303,151.7536221,-0.005389056978897999,0.019094066535838002,-0.003197693567918
304,152.2500271102041,-0.007606813693534694,0.007069162235942858,0.004860051344224898
305,152.74643224,0.018557529980514,-0.018333227430308,-0.001993461686268
306,153.247851932,0.039801892992942,0.0063327644882000015,0.015382099761281999
307,153.749272,-0.03655579674966,-0.016304477489646002,0.0013052527048899997
308,154.25069266,0.025356151172280003,0.0015134944398400008,0.0043656016490240005
309,154.75211364,-0.012986128619043,0.017722714329336,-0.0060270526324882005
310,155.253534972,-0.0025457153938719997,0.00300680613132,-0.002767697760044
311,155.74994214081633,-0.002175758991962857,-0.0018642474517755105,-0.001084455849487755
312,156.24634942,-0.0011065465401199999,-0.00539449603326,3.1348149028799994e-05
313,156.747771,0.0015271347475982002,0.007881491772020001,-0.0003168586435362
314,157.24919247,0.0045013204688539995,-0.009048729809996,-0.0019871019127114
315,157.75061398,-0.009307783739880001,-0.00441917856388,-0.0031578114291465997
316,158.25203538,0.00571927460797,-0.008701102032718,-0.0053627692045714005
317,158.75345694,-0.0025581652953040003,0.00955757001644,-0.003317437441864
318,159.24986449591836,-0.0005292312572,0.01165505405522449,-0.0012277160717163267
319,159.746271842,-0.003890954162843,-0.011853394367919998,0.00023101401160480006
320,160.247693156,0.0026862704942600003,0.005969510162300001,0.004416146839312
321,160.7491144,0.0011409115513400002,-0.0025938387859239997,0.0011581916199479999
322,161.250535716,0.002898339843718,0.004739137189299999,-0.0037914977138459997
323,161.7519573,0.012326403288237,-1.8413904260000254e-05,-0.0022758974647136
324,162.25337917000002,-0.010559370434019999,-0.0185711843238726,-0.0026170662195720003
325,162.7497871489796,0.0031002235632694073,0.006069626753938776,-0.0007457092431224489
326,163.24619535600002,-0.002670369278786,0.00563126520312,0.0031526810198046003
327,163.7476179,-0.0006192404219130003,-0.0006642904298600008,-0.0009739210386412
328,164.249039984,0.038237030563099995,-0.027511903036660002,6.614341170400003e-05
329,164.75046214000002,-0.047060913732384,0.019001526293632002,-0.00014399205696000002
330,165.25188488799998,0.00537442269684,0.006722334250827999,-0.002042810291896
331,165.75330768,-0.004033087744234,-0.006183410975580002,-0.006506577751297999
332,166.24971568163267,0.0029527607979565307,-0.010506942708387755,-0.0029589011422020404
333,166.74612342,-0.042615678870546,0.00324734730544,0.0031033230515356
334,167.24754532,0.022319159099459997,0.01890162583616,0.0037034896878264
335,167.74896736,-0.0013223224504140003,0.012768621053948,0.0031937986586
336,168.250390124,0.019292314387016,-0.00867526613852,3.2481066842000064e-05
337,168.75181292000002,0.0095174121675,-0.0017157239272000005,-0.0020690938038364
338,169.253235108,-0.005642321501046,0.0063580322262300005,-0.003994988794672001
339,169.74964301836735,0.007732866702430612,-0.01091187525057143,-0.001876789617969592
340,170.246051194,-0.00866153997304,-0.0034559224641859997,-0.0014834095212494
341,170.74747372000002,0.008905072035397999,0.00593658593492,-0.000528289955053464
342,171.248896598,-0.0025336081812940003,-0.0007410625198800012,-0.0015123590687
343,171.75031955999998,0.00560293147336,0.002273769732572,0.0007264122482906001
344,172.251742468,-0.004284865306822001,0.00266422830532,0.002011755523282
345,172.75316546000002,-0.00410803337573,0.010457160203202,0.0023749581084252
346,173.24957405510204,0.0012159361313836734,-0.0011553344872567357,0.0009153100854897959
347,173.74598268000003,-0.0063691893131,-0.005254565179099999,0.00021019783909339998
348,174.24740605800002,0.007047259863285999,0.0024989901875,0.001623736095092
349,174.748829502,0.00663147160856,-0.005306604002687999,0.0024212040204106
350,175.250252434,-0.00632177241155,-0.0038450448289000004,0.002730011774658
351,175.7516752,0.0020399716307800005,0.004303439837120001,0.0030803593668452
352,176.253098406,0.0036066812283699996,0.0001650776910960003,0.00231865080414
353,176.74950730612244,-0.003469110181918368,0.00740330120655102,0.0031716128671726534
354,177.245915896,-0.0021609625315659998,-0.010997371711540001,0.001456505365036
355,177.74733858,0.0015629975406819998,0.004771411881222001,0.0029527379073619998
356,178.248761524,-0.0009860542693160002,-0.00725304773008,0.001724116041955
357,178.75018459999998,-0.005034877788035999,0.0023038634103799997,-0.0003016350522412
358,179.25160769800002,0.00113349701318,0.00034613530118200107,-0.0039106847274104
359,179.7530309,0.0017346769188712,-5.4410148059997194e-05,-0.0044664062073166005
360,180.24943974693878,-0.0034140536505326527,-0.002128105400869388,-0.007914958809218367
361,180.74584862,0.004627432450791,-0.00165019636708,-0.01336716440524
362,181.24727194800002,-0.0064294851944840005,0.0032522468268460004,-0.0078772966701
363,181.7486951,0.004217068646274,8.963273808500014e-05,-0.0041470893193028
364,182.25011817200001,-0.002112662028472,0.0030829005030999996,0.009613871129940001
365,182.75154139999998,0.00981201856436,-0.007098645559619999,0.005581076151058
366,183.252965144,0.0009551271424800001,-0.02344562722376,0.0050849736854868
367,183.7493749367347,-0.010834676859959185,0.008636938864387754,0.004198253178583673
368,184.24578497599998,-0.01665303843124,-0.00891370105597,-0.00484707722671
369,184.74720954,0.005280814990846,0.0004584207784799985,0.00117559592589
370,185.248633968,-0.00785351178562,0.0168464078929654,-3.378837099199967e-06
371,185.7500587,0.004415188087579999,0.020523625856419998,0.0018714441278781999
372,186.25148387599998,0.013612618008834001,-0.0005582490378700005,-0.008155953720856
373,186.7529091,-0.0011107829953660002,0.0095614750951,-0.0062390300794568
374,187.24931944081632,0.007053248745557756,-0.0023737715047979593,-0.006600690810804081
375,187.74572970199998,-0.006716949558054,-0.007918001300116,-0.006077414818644
376,188.24715553000001,-0.004186580385742,-0.0044865834895794,-0.0006808546348900001
377,188.74858124,-0.002771744411438,-0.018087062779022,0.0033142799698160003
378,189.25000563199998,0.029939895589202,-0.005089936694556,0.003664009627043
379,189.751430342,-0.007882450288216,-0.03754134617694,-0.040818587242759996
380,190.25285591,-0.003121137628439999,0.016378698786918,-0.1976770414444
381,190.7542814,-0.007701221154641999,0.0182634527415,-0.363568882346
382,191.25069201632652,0.008323210681389796,0.014633939288081634,-0.45541687523061225
383,191.7471026,-0.023507205061820004,0.01520616458742,-0.449753096106
384,192.248527306,-0.022266328819060002,0.0333373374865,-0.48934417128600005
385,192.7499519,0.00160789255085,0.031098728021652,-0.464790369874
386,193.251377232,-0.002027802653874,0.043391341250395996,-0.35253666281999996
387,193.7528027,0.006621616454068,0.038433423666704,-0.1288855476656
388,194.25422813199998,-0.00491861321926,0.00020903641402999996,-0.0315290798992
389,194.75063935714283,-0.009041294569553061,-0.005270751725157142,-0.02414412857367347
390,195.247050266,0.012904556607840002,0.013796397894214002,-0.016507735128722
391,195.74847544,-0.0020241091308664,0.015007991912163,-0.01407049370862
392,196.24990106799999,0.009005218203590001,0.0019130512606079996,-0.0133747255156
393,196.7513267,0.002460814966106,0.0001150504502419998,-0.02095183311906
394,197.252751986,-0.0022653051000699996,-0.010245036566178,-0.0385661330076
395,197.75417762,0.004223918952206,0.0007981716745960003,-0.041134179904800006
396,198.25058888163267,-0.0007077153790604085,0.006099947776122449,-0.03767932727142857
397,198.74700038,-0.0007251574842460004,0.0018286780642460005,-0.02095179552194
398,199.24842658,-0.0117768101398198,0.0008698087559460003,-0.001135878211304
399,199.74985288,-0.0066328054854,0.002892283155232001,0.0009810597415119999
400,200.251279314,0.0056458482698043995,0.003716690754766,0.0006829613388554
401,200.75270576,0.0047765717189644594,-0.008542146477828,0.0002553170150642
402,201.2541329,-0.010834593019009998,-0.0025079355204480004,0.0047534195822559995
403,201.7505459612245,0.006055000770867755,-0.011433087878561225,0.015183393292040815
404,202.24695796,0.00149316896664,0.014899176489854,0.0293819345526
405,202.74838405999998,-0.005096826665036001,-0.0035384097411579997,0.0324339062346
406,203.249810782,0.0038293703737199997,0.0014257596153240005,0.0357383555924
407,203.75123756000002,-0.005437854463252,-0.006910144286456,0.029798418246000002
408,204.25266443,-0.0030587946155900005,-0.0025475195973599994,0.008608879768312
409,204.7540914,0.009478333508752,-0.0037508039171654,-0.00015628281508859996
410,205.2505038489796,-0.009024009668910205,0.000926817568591837,0.00100525665065551
411,205.7469163,0.0053749251364354,0.0040353409666,-0.005861088454108
412,206.24834274,-0.0009105028206699998,0.0007466098665860006,-0.004522501305892
413,206.74976906,-0.0032249073224008,0.007384891277377999,0.0005984280794919999
414,207.2511962,0.00039685803437999987,-0.00138803888084,0.0014092183906536002
415,207.75262356,-0.00270152369496,-0.0003407706974840001,0.0003296224377772
416,208.254050498,0.0022641375570059998,-0.005011195140576,-0.01671946914172
417,208.75046315306122,0.0029324672982510205,-0.006277827783387756,-0.02558510011265306
418,209.24687574,-0.0004447829165002004,0.00011348811959999926,-0.0273959560694
419,209.74830247999998,-0.004433644916688,0.006773354466683999,-0.023424851057199998
420,210.24972984,-0.0005361107177491997,0.010056404181772,-0.0297982380172
421,210.75115738,-0.0011400263383399998,-0.002208793535788,-0.0215875394646
422,211.25258466,-0.0007260754335680003,0.002735253898500001,-0.010208737835988
423,211.75401178,0.005343927312778,0.0129346897453314,-0.00854503420648
424,212.2504252142857,-0.001354772303110204,0.006959863282267347,-0.012412218282346938
425,212.74683892000002,0.0012308099307576001,-0.01094446042522,-0.03363716747612
426,213.24826646000002,0.002767078028992,0.000158888456214,-0.0592023161054
427,213.74969414,-0.006028899224624001,0.01074539501266,-0.06346056960480001
428,214.25112249999998,0.003717860579526,-0.00356607158674,-0.063588588908
429,214.752551182,-0.0020199085773404003,0.00959663668622,-0.0644493027778
430,215.25397991999998,-0.00183650378111,-0.01634433566622,-0.06825694218259999
431,215.75039448163264,0.007542421889577551,-0.009975131117059183,-0.06233158700040817
432,216.24680912,0.0058507926759099995,0.012391486549604001,-0.056855365409400005
433,216.748238,-0.0066982595067759994,0.00550315761924,-0.0594745266438
434,217.249666868,0.00500157756673,0.00173582178548,-0.0592112743848
435,217.75109562,-0.0014911119449859999,0.009325092397422,-0.0591968615358
436,218.2525249,0.00339714431242,-0.0030770159782840005,-0.061264810711
437,218.75395433999998,-0.0003241564425599999,0.009649750590256,-0.0617470379176
438,219.25036907755103,0.006473077460971428,0.002557521914055102,-0.06227321132081633
439,219.74678380199998,-0.002118627913286,0.00696950644203,-0.0591323427858
440,220.248213174,0.0024600241240624,0.00440805712634,-0.0393321492902
441,220.7496427,0.0017154352553360004,0.006517229424820001,-0.018082479554840002
442,221.251071948,-0.001045104693484,-0.0013182327798599996,-0.02975496236266
443,221.7525012,-0.001209733821288,0.0028352411465105997,-0.0286024206504
444,222.25393081800001,-0.006671839319140001,-0.003857883838496,-0.0356311482932
445,222.75034620204082,0.003757845657830612,0.005864348015224489,-0.04672692183918367
446,223.24676136,0.0014984996618,0.01860018890366,-0.042827570736
447,223.74819072,0.00496505018292,-0.0009208417221999998,-0.01902744292266
448,224.24962043399998,-0.0010878018102169998,-0.00340792407314014,0.0105453129086744
449,224.75105022,0.002958887377824,-0.0159476500382928,0.0324934810022
450,225.252480032,0.002214905461269,0.00854058693172,0.043080407455999996
451,225.75390998,-0.003050823248486,0.00325307639298,0.031675103269
452,226.2503251755102,0.011169610735020407,-0.001803950530346939,0.016440379489836735
453,226.74674026,0.0006369001794319999,-0.019360965788552,0.0062103355046
454,227.24816967200002,-0.0066509645528856,-0.012258575447142,0.02059602815658
455,227.74959901999998,0.000510735856756,-0.0234941998972,0.042880936377
456,228.251028708,-0.0019340162632939994,0.00317346102598,0.0697835169734
457,228.7524588,0.002126511139548,-0.009943571705092,0.071970654055
458,229.2538889,-0.003082503229486,-0.00853155793642,0.06230560965779999
459,229.7503049,-0.001038938979734694,-0.0028286379830700006,0.0655596154377551
460,230.246721192,-0.002945548147714,-0.0252365045895406,0.0683783499904
461,230.74815193999999,-0.008972266754498,-0.013960192194032,0.0718386281284
462,231.24958268400002,0.0016237029430280004,-0.015281773767939998,0.0739011925468
463,231.75101334,-0.00219380866638,-0.015254952441866,0.0697420787064
464,232.252444196,0.0030575542523868,0.00010241067027000034,0.062021300867199994
465,232.75387508,0.0081958393847,0.0003583816724040002,0.0759729178246
466,233.2502915122449,0.004285239186857143,-0.0024944108772653067,0.07502192365326531
467,233.74670798,-0.0029552120438580006,-0.019915010325100003,0.071596972942
468,234.24813938800003,0.00603756448236,-0.0137456944206262,0.0751796033974
469,234.74957116000002,-0.00021625025190600015,-0.00638695450484,0.074979694783
470,235.251002552,-0.0031884063973524,-0.01474880698347,0.0613934884964
471,235.75243397999998,0.0027756858339876,0.005818377863140001,0.054899925887399996
472,236.25386572800002,0.0025616822023336,0.0080369461977684,0.0373288001494
473,236.750283122449,0.00010530872067346928,0.005940642959346939,0.024146393854081634
474,237.24670078,0.0038503913206499995,-0.0018459948235819998,0.023840337470659997
475,237.74813288000001,-0.001422531530562,0.006748443534684,0.038498607688
476,238.24956525000002,-0.00254694355658,0.007215133236096,0.042720761112999994
477,238.75099782,-0.0030656885178650005,0.00428106050814,0.039250596575
478,239.25243007600002,-0.005234469640628,-0.008809847186859999,0.0421251239258
479,239.75386228,0.01863953465568,-0.0008336201130200008,0.044582294821800005
480,240.2502806122449,-0.0019304575492191224,0.0024328484031020405,0.02878724848244898
481,240.74669918,-0.00763136587047,0.006396873919042,0.01395048347296
482,241.248131764,0.0028923973909420002,-0.001248910119446,0.006913482099558
483,241.74956402,-0.0002835589650200001,0.0016381002774999997,0.0025688332458595198
484,242.250996554,0.002338363761008,0.0009566901161220001,0.0002877920866188
485,242.75242928,0.0013461420219100001,-0.0010000482109214,0.0009646351763518001
486,243.253862428,-0.0015140409767499998,0.001483788573964,0.0001400049496232
487,243.75028142244898,0.0016510989041081633,-0.0005231795415204082,-0.00029190633048163265
488,244.246700876,0.00031342771829819997,-6.722290063399996e-05,-0.0006752200308421199
489,244.74813500199997,-0.00013352508660779999,-0.000303648877666,-0.00011325397296619998
490,245.24956882200001,0.00010125208641764004,0.000483973976174,-0.0002425169409496
491,245.75100262,-0.00020902126096039998,0.00048053173342799994,-0.000255178841767
492,246.25243702,0.00033407879983199997,0.000241789473326,-0.0007877846562757999
493,246.75387148000002,0.000635138200532,-0.0003401901573752,-0.0002133899845762
494,247.25029165306123,5.496012020653065e-05,0.0008158054659342856,-0.0005443073234169388
495,247.74671181999997,0.0002403283305902,-0.000536791561104,-0.00011337050237536001
496,248.248146328,0.00019017734567799998,-0.00013236907334999995,-0.0001543013484044
497,248.74958085999998,-0.00027530743746099996,-4.955050566040006e-05,-0.0001761000684854
498,249.251015524,0.0002903547696834,8.11412743128e-05,-0.00043476969126019996
499,249.75245036200002,0.0004885747656502001,-2.9620919509999942e-05,-0.0004987811064092
500,250.253885148,0.00022014372044820002,-0.0003502848651375998,-0.0004344405175696
501,250.75030562448978,-6.811218071428583e-06,0.00023491201627122454,-0.0007370147719236734
502,251.24672586,0.00012093876495599996,0.00012266452419240005,-0.00016549589925960004
503,251.74816026,0.00016221371477560004,0.00018740844905331988,-0.00052142033351936
504,252.24959448,2.875320609799998e-05,0.0004476746826752,-0.0001986002642822
505,252.75102868000002,0.0002722146734012,-0.00024378869643219999,-0.000251997163288
506,253.25246353999998,5.332687916400009e-06,0.00014257007287199998,-0.000260499386314
507,253.75389882,0.00016740215942000002,-0.00015449892740719993,-3.05726693358e-05
508,254.2503194734694,0.0006712110218653061,0.0002119593911163267,-0.0003023744531910204
509,254.74674028,0.0007894008048759999,-0.0007335645796919999,-0.0005613991478044
510,255.248175686,8.322506212999999e-05,-0.00018441026114599996,-0.0007870615506392
511,255.74961132,-0.000104637853876,0.00013216615639400004,-0.00010139225867324
512,256.25104747,6.242552769500004e-05,-2.274493683180001e-05,-5.8341852902000105e-06
513,256.75248372000004,0.00029072984124880005,0.00022059493676599998,1.1182228314400001e-05
514,257.25391937200004,0.000486545087767,0.000428726803351152,-0.000639659503985
515,257.7503408632653,-1.7545623132653006e-05,-0.00020978560823061232,-0.0005462418775902041
516,258.24676251,0.000237468937392034,-0.000339448787302,-0.0002923677268006
517,258.74819878,-0.00010268014857799996,0.00024194579570599995,-0.00014911001548180002
518,259.24963517,4.2377859312839985e-05,-0.00010435284135000002,-0.00064064770590566
519,259.7510714,-0.000330041926453,0.0003051361347444,-0.00010304788942773999
520,260.252508104,-0.00012670353056222,-0.0002805463317738,-0.00036655781440874004
521,260.75394484000003,0.00042481633821985594,0.0006667138079479999,-0.000441766941192
522,261.25036768163267,1.9218887622449148e-06,-0.0006396821037857143,0.00015260756240940819
523,261.74679078,0.0002627181447824,0.00013401556786780003,-0.0002726414567054
524,262.24822758,5.7397065704000034e-05,6.255473024819989e-05,-0.0002591058507072
525,262.74966412000003,0.00022216428999860004,0.00014163641255800002,-0.00040377031077355995
526,263.25110132000003,0.0001862780470596,-0.00016269575774399998,-0.0005192861031158
527,263.75253878,0.00023262385280600002,-0.00027517133390799994,-0.000162318778466
528,264.25397576,0.00015848656185160002,0.00036979004736,-0.00045542728038546
529,264.7503983428571,0.00019264752424510206,-0.00012799995774081635,-0.0006854585443306123
530,265.24682103,0.000376885710268,0.00016721661194400006,-0.0001081151515132
531,265.74825812,0.00017641344110510003,-0.00030360417428600004,-0.000423504444782
532,266.249695292,3.4295730187999986e-05,-0.00040488460082000003,-8.4946517612e-05
533,266.75113256000003,0.00018592457285399999,-1.2358948337999938e-05,-0.0001141598110674
534,267.252569632,4.7082919582e-05,-0.0003281132133626,-0.000326508636338
535,267.754006522,0.00012216503726159998,-0.0005021682194277999,-8.310790754355999e-05
536,268.2504297612245,0.00018371590314265307,0.0003528350355395918,-8.392776953979591e-05
537,268.746853442,-0.00022816427052799998,0.000208605127562,-0.0002230045991306
538,269.248290496,0.000458737909752,0.00019391608424399996,-0.00017513498659500003
539,269.7497273,0.00023524209866199994,0.000164798851978,-0.00027297409717600004
540,270.25116464,3.504365682780004e-05,-0.00028074720872,-0.0001549108826904
541,270.75260216,0.0001694409362556,-0.0002288563828812,-0.00036334026376239997
542,271.25403976,0.00013834536074619995,-0.00032594812093399985,-0.00050383063382346
543,271.75046296938774,-3.902283401306128e-05,7.923221065163272e-05,-1.9207986419304085e-05
544,272.246885558,0.00031545212488,6.527733075163994e-05,-0.0002535846759864
545,272.74832254,5.8506932081399996e-05,-0.0004338828101132,-0.00031707710933952
546,273.24975977400004,-4.750768660200002e-05,-8.470910565739998e-05,-0.000212336184942
547,273.75119702,-0.000179515881468836,7.857394431599996e-05,-0.0003936341579516
548,274.252635136,0.00017665311694399998,0.00026370063412000007,-0.000519657372516
549,274.75407386,0.0027402597850478,0.0009304311032130001,-0.00012079159959059999
550,275.25049779591836,0.017440693852204082,-0.0015971060580408166,8.63073712020408e-05
551,275.74692196,0.004495437172868,0.010176240411174,-0.003220225721532
552,276.24836048000003,0.00554563081856,-0.000393173833866,-0.003424863477802
553,276.74979896,-0.002883129827666,0.0067020549995980006,0.00030016961493459996
554,277.251237812,0.0006526098583141999,0.0032203497459519998,0.03798636598276
555,277.7526767,0.004704330228278,-0.0018315441342,0.06587753891920001
556,278.25411603199996,-0.01795577746828,0.002721489435776,0.08072625458159999
557,278.75054147959185,0.004564480571079225,-0.001632590255108163,0.06212270746448979
558,279.24696588,0.01280851703138,0.0004927024618940001,0.061187961995000005
559,279.7484041,-0.0034464368967959996,0.002611590447168,0.057067865878
560,280.249843144,0.002842007316528,0.00473043872019,0.04815907333
561,280.75128236,0.005585304517792,0.005526389246362,0.01660724648298
562,281.25272134,-0.0012224146541800001,0.00033771062223999983,0.0101597400588
563,281.75416036,-0.005230036256416599,0.006469633923607999,0.01748674843432
564,282.25058523265307,0.018486166848759183,-0.03328219240461224,0.014155947555367346
565,282.74701036,0.013115540640532,-0.012917091343676,0.01439953013788
566,283.24844942799996,-0.052834253505174004,0.00789445073326,0.014705920219760001
567,283.74988852,0.0113894623612436,0.017490263841919998,0.01404971676834
568,284.251327762,0.005503498372369999,0.0139063572977658,0.009096601772912
569,284.75276688,0.014821757878698001,-0.00667152892821,0.0012641670136149799
570,285.254206314,-0.002267070291892,0.0206902331304,-0.0029126429581483996
571,285.7506315102041,-5.981837358979608e-05,-0.004098524566795918,0.00407761180274449
572,286.2470567,-0.00784781644148,0.00189481481907,0.050554058552
573,286.74849614,0.002599772978532,0.0016787870505399999,0.0714282054452
574,287.249935494,-0.01717687360938,-0.016178056261858,0.07515167318299999
575,287.75137490000003,0.0074343911933354,0.019085711044939998,0.0850043991206
576,288.252814736,-0.00032368700939199995,0.0012527899071779996,0.09686987906740001
577,288.75425516,-0.005160487834776,-0.022728250017486,0.08048351764839999
578,289.25068117755103,-0.007230815088748979,-0.0130215046202449,0.027270990148955104
579,289.74710776,0.01023791911099,-0.01113109830858,-0.02576973535176
580,290.2485482,-0.0095817879591152,0.0031442912657920004,-0.0431821479272
581,290.74998836,0.00356576487402,0.00649208002832,-0.040023870654399996
582,291.251429486,-0.00247653640822,-0.0160083114730502,-0.0512193240608
583,291.75287068,0.006998082063760001,0.0032010770216399998,-0.0740796452756
584,292.24929761632654,-0.003391383320581633,-0.004860832849283673,-0.08095739371244898
585,292.74572476000003,0.0030928703673319996,0.006142817549984,-0.08453402906659999
586,293.247166268,-0.00169710951806,9.035149402000016e-05,-0.09027005434299999
587,293.74860796,-0.002981237192014,-0.001634924299628,-0.1143061678146
588,294.250049536,-0.002260401882474,0.00639038794666,-0.11213893488440001
589,294.75149082,0.0030650201254160004,0.006161609151172,-0.114662406292
590,295.25293244799997,0.003570187855664,0.011307056892284,-0.105831720382
591,295.7493596387755,0.007038334631555103,-0.0010502334127346937,-0.10118617999510204
592,296.24578726799996,-0.006682970858932,0.003109716392,-0.1048966209564
593,296.7472297,0.00231383378614,0.0288722590371,-0.09490980804299999
594,297.24867172800003,0.003995316782832,-0.0033456070166999995,-0.081351277381
595,297.75011367999997,0.00105399906601,0.01137896267756,-0.0642048303038
596,298.251556096,0.0032544263916874008,0.01544596460698,-0.02358990300966
597,298.75299878000004,-0.00044373406086999995,0.008828258821811999,0.007874431803008
598,299.24942669183673,-0.01499686737944898,0.0033031797450408166,0.005982501001832652
599,299.74585428,0.005954325301499999,-0.00147182157228,0.001235804817248
600,300.24729701399997,0.003595523004998,-0.006278264876430001,-0.0014479335767579999
601,300.7487402,-0.0016855367363739998,-0.005036990614634001,-0.0042000156853379995
602,301.250182944,0.00331444101408,-0.0019888082619200003,-0.006948551661688
603,301.7516257,0.0028417510635140005,0.00854088624852,-0.0009347687264860001
604,302.253068156,0.0007339199910000005,0.01009138896945685,0.00238900502440126
605,302.7494958755102,-0.00418147332544898,-0.007676257553144898,0.00024650985942653065
606,303.2459243,-0.006539959171924,0.0006512448373137999,0.004854882899758
607,303.74736726,-0.002648637210974,0.01539607229632,0.002478018027656
608,304.248810412,0.01329673446745,-0.006419592955894,-0.0025683317797579996
609,304.75025392,-0.0042459065088786005,0.0005476549929200003,-0.0019211359438078399
610,305.251696948,-0.0012819886392399999,-0.016397009603380003,-0.0014264656624148001
611,305.75313968,-0.0019214915204320002,-0.004743063114556,-0.0020681276835968
612,306.24956859183675,0.0070538008868979585,0.006149431595269388,-0.0005510624530289795
613,306.74599758,-0.0008882116984463998,-0.0013189813958300002,0.000246408513192
614,307.24744100600003,0.004704434136752,-0.007571399948344,-0.009902968618536
615,307.74888480000004,-0.00500076340498,0.01150998488138,-0.0029934455736852
616,308.250328164,0.007372693875876001,-0.004125030795532,-0.003658507918274
617,308.75177122,0.0009398633995880001,-0.0009474801082400003,-0.000713496651724
618,309.253215194,-0.0028468694722864002,0.00924021341872,-0.0012269298682899999
619,309.7496451755102,0.0003422883016734698,0.005296541968134693,-0.0036423544409836736
620,310.24607484,0.007448484822516001,-0.013582740491504,0.00215972217263
621,310.74751926,-0.0062418601196023,0.011989281170940001,0.00262354905054
622,311.24896332000003,0.0032814242784000003,-0.009432525737386,-0.002977115053044
623,311.75040702,-1.2641828426000079e-05,-0.00038924745414000095,-0.0027223941848999998
624,312.251851366,-0.002993811686256,-0.0033364988034399997,-0.0043124599675346
625,312.75329596,-0.0071244537836724,-0.007558087445440001,-0.000777619691816
626,313.24972591020406,0.00340621635277551,0.010352678056571429,0.0008812824320469387
627,313.74615598,0.00047690602002580017,-0.004123162739462,-0.001000198761606
628,314.24760038,0.0028072691334779997,0.00218254809294,-0.0014063671847104001
629,314.74904452,0.0005698903184195998,0.013028372711704001,-0.000182899401898
630,315.25048908,-0.0008509155275095995,-0.01024380132576,-0.00034335263605399994
631,315.75193348199997,0.0004196515488400003,0.002133325794168,-0.0007423600440679999
632,316.25337816399997,-0.0010466188747900002,-0.0022945029666960005,0.0005699287620502001
633,316.74980870612245,-0.003130999509063265,0.0025478541292857154,0.0013066180008653061
634,317.24623832000003,-0.0005720663725399998,0.010379058793114,0.00015210206063419996
635,317.74768202,-0.00012128522606799981,-0.0019085802599559999,-0.004272613160788
636,318.24912658,0.004296910455704,-0.002858168278326001,-0.00052533905608
637,318.750571686,-0.001970162782776,0.003912664865879999,-0.0005162553442952001
638,319.25201652,-0.0025381963519880003,-0.0034836072287739994,0.000826788854288
639,319.75346160000004,-0.0031436743872826,-0.00570720373592,0.0038191186347098
640,320.2498921714286,0.0016796761010916326,0.0016064984085367353,0.00257193580106449
641,320.74632248,0.002586421333078,-0.0010552466472279996,-0.002216520691532
642,321.24776792,-0.0010830181649809996,-0.008603112279497999,0.000890967399134
643,321.74921353999997,-0.001627034004438,-0.0046968501433,0.001218758379162
644,322.25065883999997,-0.0014813017095599997,-0.005316865706248,-0.00198307236647838
645,322.75210405999997,0.004203582015124,0.00344789396978,-0.00446595355736
646,323.25354962,-0.0020147198717586,0.004941340498613999,-0.0059610778608077996
647,323.74998145510204,0.004983943773220408,-0.0016096841202040823,-0.0027576958062816327
648,324.246412486,-0.000691261440298,0.0027760372122019993,0.0009687429643599998
649,324.74785808,0.001981441089272,-0.002281255703,-0.000545344823252
650,325.24930355,-0.0004998744648919999,-0.007809092915112,-0.000624669166052
651,325.7507489,-0.002278650524038,0.009489962811482799,0.00316244221516
652,326.25219459799996,0.0055218577201374,-0.006854016873994,-0.004055099289286
653,326.75364032,0.0005061072391199996,0.007315311897252001,0.0011846172274095998
654,327.2500716632653,-0.011477410337083672,-0.0013452297153469389,0.001835280924844898
655,327.74650304000005,0.0071629507937399995,-0.008559864516402,0.0033567348518708
656,328.247948886,-0.0006265916494800003,-0.006166396719030001,0.0012997736034560002
657,328.74939464000005,0.008475650930750001,-0.0022246823927600003,-0.000211635523054
658,329.250840816,-0.0047368296516066,0.0054150534230960005,-0.00211511230425
659,329.7522874,0.006835676301734,-0.007115017007162,-0.0008657228923684001
660,330.25373376199997,-0.00434121629225,0.00733490323614,0.0028672114189388
661,330.7501658285714,-0.011877335038091836,-0.0023283521642040814,-0.0007542475811693877
662,331.246598064,0.00682716920934,-0.0013748436191920012,-0.00578498057663
663,331.74804456,-0.004046673840502,0.010986473572030002,-0.000963426816738
664,332.249490926,0.0001387580204980002,0.0006015023670199991,0.006815742123999999
665,332.75093706,0.0015492858458619999,-0.00986121175002,-0.00382906061354
666,333.25238360199995,-0.00012910706037600012,0.0008797333022800008,-0.0083709931066
667,333.75383028,0.002007447434828,0.00776761706102,0.0006954449253700002
668,334.2502628755102,-0.0056562061439857135,-0.0015271321070469395,0.003109327781179388
669,334.74669574,0.003882836466904,0.002754025534166,-0.01450177093236
670,335.24814338,0.004101315681069999,-0.00036113223985999977,-0.012804588971263998
671,335.74959134,-0.0005604339577544001,-0.0040889610425400005,-0.013266752864860001
672,336.25103895200004,0.0014926762691339999,0.0021148249587599997,-0.023129989365300002
673,336.75248614,-0.002213901756162,0.00389690795902,-0.027833899408599996
674,337.253934014,0.0024331758631040003,0.010367873721080001,-0.0371434312312
675,337.7503676142857,0.0008375559058734697,0.007503497594583674,-0.052725181059591834
676,338.246801088,0.0038316728736240003,0.0037805645258520005,-0.0577883260698
677,338.74824894,0.0004672527684540001,-0.00268430188308,-0.0546804995836
678,339.249697076,0.000471655996704,0.00017831275186600063,-0.0519586551932
679,339.75114546,-0.00297908480268,-0.00912063485912,-0.0472311514622
680,340.25259377599997,-0.0018672309540899998,0.0034871458071160013,-0.032077620960400004
681,340.75404249999997,0.004462036742264,0.009518561847318,-0.016015477990984198
682,341.2504762755102,-0.0012235758556212244,0.0021847398486122445,0.0005629811804834103
683,341.74691035999996,0.011508155631888,0.0017531513981999996,0.007618813663659601
684,342.24835869000003,-0.013488586712607999,0.003836405769359999,0.0069676912250246
685,342.74980694,0.008590368022454,-0.0030337016938,0.006598394806384
686,343.251255704,0.0079298180439596,-0.0009336761754880001,-0.0018297898908460001
687,343.75270426000003,0.0015229057148142,-0.0028154411358540005,-0.001260194805198
688,344.254153236,0.009029846498068001,-0.0016364028860810001,0.00010563005927505999
689,344.7505881122449,0.009944642019520408,-0.0013847792028142858,-0.00042048747398775507
690,345.247022458,0.011446545161086,-0.0030336559656199994,-0.001114513534146
691,345.74847108,0.004398971311586,-0.006331451280514,-0.01725445708972
692,346.24991989800003,-0.0049116173669,-0.005140151102134,-0.08024864017660001
693,346.75136832,0.004231866598214,-0.0061760857231,-0.20099741607399998
694,347.25281696999997,0.0033310620111279996,-0.014334644041798,-0.271349696222
695,347.75426592,-0.02752844292654,0.015302041768579999,-0.281759221858
696,348.25070008979594,0.004437810038361224,0.014360539178130613,-0.23162860407959182
697,348.74713474,0.0028135053353799994,0.014773161225774,-0.239348000582
698,349.24858356199996,-0.020413667494340003,-0.00525239960228,-0.33334261477399996
699,349.75003214,0.0018103099056460004,0.032237439341266,-0.336958972814
700,350.251481572,0.0002522384006319997,0.036295013846492,-0.304912866356
701,350.75293062,-0.0050441405083816,0.027581961695276,-0.213998843432
702,351.2493660102041,0.003552005246040816,0.03172199623901836,-0.11087627769775511
703,351.7458023,0.013694055135787999,-0.008157974658658,-0.044316926262600004
704,352.247251416,0.00668168565244,-0.0002741496354459999,-0.0327993565058
705,352.7487006,-0.0079624076562,0.006373716629852,-0.0228802153652
706,353.250150586,-0.003801496708994,-0.00024902812204000006,-0.0057463678580260006
707,353.75160054,-0.014418788812800001,-0.0011242518569377995,-0.012780592842272
708,354.253051424,0.013019341686696,0.003692689398292,-0.0025841323357384
709,354.7494876,0.005526292270661225,-0.0004879004339551016,0.0033361717514897964
710,355.245923088,0.0005747160222,-0.0049142975078599995,-0.002182931660152
711,355.74737309999995,0.0047529182685847994,-0.0024137230688199987,-0.0024743282120576002
712,356.24882396399994,-0.003907493883697,-0.0045234504615,-0.000869457248958
713,356.75027388,0.0010507776681749998,0.0019597669510012,-0.0046492276851480005
714,357.25172469999995,-0.0002931798902180001,0.0019097086405199994,-0.003687385740934
715,357.75317548,-0.0048378304945146,-0.00015703175181800005,-0.002882354012514
716,358.2496118489796,0.0014255349714959184,0.0006167867187571425,0.004045077616506836
717,358.7460486,-0.0019044381098994002,-0.0009090742654800005,0.0042704119927706
718,359.24749964800003,-0.018067556712312,-0.002047845127152,0.001099442711628
719,359.7489504,0.01005195329886,4.9041230126000145e-05,0.0019286508555520002
720,360.25040187999997,0.004320370201086,0.0007289401449039995,-0.0034289457218404
721,360.75185378000003,-0.00351709349984,0.0017609688092980003,-0.004315427427566
722,361.253305456,0.0044555399654799994,-0.0015031303845799999,-0.0071429670857714005
723,361.74974288571434,0.004313284265391837,0.0015384648174367353,-0.004523818730094694
724,362.246179722,-0.002509178705238,0.003558350923179999,0.002448680664056
725,362.74763065999997,0.0002639152849280005,-0.0008252709363199989,-3.1206656554000016e-05
726,363.24908235199996,0.0006440286336699999,-0.00042021842678999986,0.0031978043797
727,363.75053472,0.00026667098549200017,-0.0061746115787779995,0.000932261590906
728,364.25198660399997,-0.008788068098734,0.0009539315637780003,-0.0013466446987460002
729,364.753438064,0.012828568909648,0.0008943775204660006,0.0032920009130993997
730,365.2498758530612,-0.003915810909602041,-0.0030241578406326524,0.0009543726371681632
731,365.74631464,-0.004902775092044,0.00015022714651999997,0.0013625632981962
732,366.24776726,-0.0006332245467999997,0.0005260423015400003,-0.00310606343212922
733,366.74922028000003,0.0012474773541220003,-0.0022997732288599997,-0.0023487114508498
734,367.25067315,-0.009222491197564,0.004581101349944,0.000435144965335
735,367.752126062,0.006843864805912,0.0013233090748820003,-0.001089215332224
736,368.253579108,0.00017778251342799977,-0.0007544838174200003,-0.0009942784136560002
737,368.7500177632653,-0.0013323042412877555,-5.8263103340816496e-05,-0.001727594980753061
738,369.24645653,-0.008472674834002,-0.0049897294968,0.0013815186580654
739,369.74790962,0.0044034219159,0.006258925376784,-0.00022689801977000004
740,370.24936328,-0.0002492738049080002,-0.00406166728618,-0.0010028064658784
741,370.75081744000005,0.002414577798728,0.00032982820669599956,-0.0039147041901676
742,371.25227126,-0.00045827981120000026,0.0024912658503239574,-0.0005958595560540001
743,371.753725,-0.005502049447638,0.003604153990344,-0.00077477994255
744,372.2501644183673,0.019589356631142855,0.005035516292891837,0.004271709311411837
745,372.74660362000003,-0.003535759541602,0.00471832346101,0.002449914752258
746,373.24805774,-0.00725445587168,-0.006873765187288,0.000862665832999
747,373.74951186,-0.0005820424105599999,0.004843786759193999,0.001937756608218
748,374.25096608,0.0347534880600334,0.00430130412852,0.0027997062517579998
749,374.75242039999995,-0.0007199511116261997,0.0024187327545600002,-0.00024137413361400003
750,375.25387480999996,0.0029633346757118,-0.0072821025814999996,-0.0026993560638882003
751,375.75031541632654,0.002227727466020408,0.0017619171010408161,-0.0005289576065612244
752,376.246755308,-0.0049096785301052,-0.0027710682059500003,-0.002832259596306
753,376.74820897999996,0.020000055367002,0.00028528266619999966,-0.010966157878258
754,377.249663288,0.0176315250990206,0.00631576020172,-0.0271540929186
755,377.75111808,-0.01763215449624,0.01984463932086,-0.01994853815086
756,378.25257251000005,0.0033140850626719996,0.008254124950942,-0.00357057968272
757,378.75402723999997,-0.012777753332393999,0.011656622011660001,0.0179700183962
758,379.25046736938776,-0.0018886951163387758,-0.018242002768308164,0.02392437797491837
759,379.74690690000006,0.02646718071726,-0.021559603614432002,0.01282913795718
760,380.24836194000005,-0.03845179385312,-0.00019626551452000087,0.01250738144814
761,380.74981714,-0.016368755343898,-0.00465516954586,-0.0019257496878079998
762,381.25127258,-0.018242163611426,0.0012016011871660004,-0.010623007223266001
763,381.75272812000003,-0.011638829279328,0.007321742893684,-0.007597726190034
764,382.254183828,-0.016613984778648002,0.003961650115500001,-0.009924578081289999
765,382.75062524489795,-0.011300309475265308,0.00915003602230102,0.01615894330927143
766,383.24706672,-0.00790248720886,-0.0083445268778,0.0064126663840800005
767,383.74852336000004,-0.007734820619718,0.006646853741886001,0.0096464489466518
768,384.24997973999996,-0.00649652908554,-0.008841514299332,0.004928279351386
769,384.75143562,-0.035286601697578,-0.0172412089142,0.005937876831496
770,385.252891792,0.00523641058815,0.014337202720997599,0.018673783330560002
771,385.7493333285715,0.0013446421458530615,-0.009776138767314285,0.008367854291814083
772,386.24577507000004,-0.00546184388924,0.00952603643918,-0.005894202373601201
773,386.74723178,-0.0025547353553059993,-0.00591797746014,-0.0147958529987956
774,387.248688064,0.00866692413592,-0.0133862373987,-0.01660737266722
775,387.75014391999997,-0.001351278666154,0.01357763632192,-0.012553935079300001
776,388.251600408,0.0077163541411500005,-0.002398534966371999,-0.009494123463506
777,388.75305714,-0.003307151515708,-0.00255425171,-0.0038483835150259996
778,389.24949930612246,0.008272851855142857,0.005824145375571428,-1.0163207078367316e-05
779,389.74594190000005,0.012202870389354002,0.0011562366135140004,-0.0009434891582060001
780,390.24739887199996,0.008602674621958,0.0028156176949800005,-0.000679263367678
781,390.74885611999997,0.008216841630656,0.0023950509448799995,0.000788794629972
782,391.250313182,0.005537818493160001,-0.00273344774625,-0.002632991748286
783,391.75176982,0.0017667660771,0.00608518591066,-0.003808783028628
784,392.25322656,0.0036264514553035997,-0.005513350227384001,-0.001243699911318
785,392.7496686102041,0.014390794874128573,0.005460570300893878,0.009796959410861224
786,393.246110672,0.0009312642832840002,0.0014599757725399995,0.010630191741674
787,393.7475677,0.00695760056326,-0.00688534960252,0.0021733643255679998
788,394.24902446,0.003885914524988,0.000417858986848,0.00270833880844846
789,394.75048133999996,-0.0018334861473419998,-0.0029016837852120004,-0.004271305662248
790,395.251938336,0.007232975549972,0.0059439271596599995,-0.0035123235430440003
791,395.7533951,-0.0014926736146860004,-0.00020516685206,-0.0053651002256839995
792,396.2498378285714,-0.0005214839738326532,-0.010376221936959184,-0.010525363055734692
793,396.74628098,0.004999879123598,0.004467459469730001,-0.005886838433676001
794,397.247738504,-0.0023326388839000002,0.007811716646078,-0.001221973155612
795,397.74919626,0.003033160800256,0.0052001612823800005,-0.00010509006216
796,398.250653932,0.00010006777047200002,0.0009475491285040001,0.0017630577495228001
797,398.75211102000003,0.0018552219026646,-0.00465095320712,0.004382954017472
798,399.25356889,-0.0045423308294199995,0.003952622571368001,0.002885053965718
799,399.75001271020403,-0.00047434043420408167,0.00016265773044708124,-0.0004897777595134694
800,400.24645604,-0.0027456489021799994,0.0034640508890420004,-9.164939863199993e-05
801,400.74791376,-0.00013987447128000025,-0.0029825491831640006,-0.00011477162477800005
802,401.24937134,0.00435701343217,0.0027578606751790004,0.0006449477781696
803,401.75082890199997,-0.000744544751472,0.0004041580584600007,-0.0005092251277702
804,402.25228625000005,0.0001335322114520002,-0.0033435495662159998,-0.00117873565185458
805,402.75374334,0.0019094092404600002,0.004220937713730001,-0.0020635553891548
806,403.25018616122446,-0.002919184975055102,0.0016955938293081636,-0.002710642636245102
807,403.746628902,0.005114886089738,-0.004250441649721999,-0.002848294158482
808,404.248086578,-0.001497581815066,0.0006676780801199998,-0.0018689621798122
809,404.74954474,-0.003055614437916,0.0006851998903021796,-0.002296664237552
810,405.251002744,0.0034306835942959995,0.002969610542208,-0.001797799584608
811,405.7524609,-0.01163728598462,-0.004991577183828,-0.002455754642208
812,406.253919006,0.003515208550108,-0.007747165458224,-0.0015760736772619998
813,406.75036239183675,0.002278100480422449,-0.006451634452006123,0.0003123026999071428
814,407.246806026,0.0043428201789454,0.00719267083292,0.0038967403641119998
815,407.7482647,-0.005805793339662,0.011064236648616,0.007628964507682
816,408.24972323599997,0.001460863630959,-0.004102563132118,-0.0016558076208163998
817,408.75118163999997,0.0007324279099320002,0.005138275297014,-0.001497600437096
818,409.25264048800005,-0.0048391047121732,-0.00015901297373999978,-0.002712462749154
819,409.7540997,0.0034125472233160004,0.0008597644230799997,-0.001358819041712
820,410.25054425306126,-0.0010343360504591838,-0.0015971234006265304,0.0014208652332244897
821,410.74698947999997,0.0034232439290740003,0.0023139840362514,0.0015848033247069999
822,411.24844898199996,-2.029622907199986e-05,0.014691119929956,0.0011753136594838
823,411.749908802,-0.00334919308333,-0.006038031345406,-0.0034232788171
824,412.251368684,0.0013000377452624002,0.0052223728596162,-0.0006059578957358
825,412.75282769999995,4.084373793599993e-05,-0.001986982999922,0.00402551867771
826,413.24927329183674,-0.003195619751987755,-0.0071703996893602035,0.0016135202213040816
827,413.74571929999996,0.0005446770224700003,0.009787199339168001,-0.000903497397706
828,414.24717964,0.003030463969704,-0.0006431092969039996,-0.004294039315939999
829,414.74864068000005,0.0028749228731160003,-0.007085713502126,-0.0033321519811220003
830,415.25010127,-0.001093424027784,-0.0052937507634019994,0.0076346569482628
831,415.75156152000005,-0.008629462737667,-0.005244700023711999,-0.00041323947953840007
832,416.25302243799996,0.010103683769864001,-0.002189524648609999,0.0012938789126714
833,416.7494687979592,0.0009636323598489797,-0.0006262630772816325,0.001485595933422449
834,417.24591524000004,0.00639268215776,-0.0026955940925400003,0.00037296665724600005
835,417.74737668200004,-0.002066633123588,0.00726085264092,-0.0060249518173032205
836,418.24883792,-0.004251337461271799,-0.00027963442724000044,-0.00267531523706
837,418.7502995,-0.009428432668036,0.0023183360510619995,-0.002045081872472
838,419.25176075,0.0029681558630139998,0.00581383638965,-0.00229212854873
839,419.75322164,0.010166875207306001,0.00011277475320000001,-0.00190416368660764
840,420.24966846938776,-0.009192134120691836,-0.0038552227414081633,-0.00171548859527449
841,420.74611614,0.0019345669448150799,0.001027944255348,-0.0021805457305954
842,421.24757778,0.00035495585792599994,-0.0014547567253599997,-0.0013831642992034
843,421.7490389,0.001472898553971,0.0040972389931139995,-0.0014087309549240402
844,422.25050054,-0.00967593088801,-0.00406778983728,0.006426665082284
845,422.75196236000005,0.0143129418697922,0.0035830324886319998,0.0069531834846719995
846,423.25342385999994,-0.006449434868572,-0.00032433515343961966,0.0013552184437919997
847,423.7498708081633,-0.005171460973899183,0.00045089482600816326,-0.004279766652189796
848,424.2463179,0.001369723426067,-0.0025064324955458,-0.0037363958660219998
849,424.74777936799995,-0.0035407536290839995,0.01659307544118,-0.002368278519664
850,425.24924136000004,0.008211771416944,0.0160511818065,-0.002703440610688
851,425.75070398,-0.0044669103615112,-0.026427804968179997,0.004388289446904
852,426.25216624,-0.0076100424025400005,-0.0323431080791,0.0043539005144580005
853,426.753628464,0.007461556028473399,0.0066050215998999995,0.004365554645104
854,427.25007634285714,0.0003703201321714286,-0.0025612754681020406,0.00240748354754898
855,427.74652448,0.0100836456938,-0.0008999246544159994,0.003991050913376
856,428.24798732000005,-0.0208781571497,0.007918770798088,0.004276566270194
857,428.74945030000003,0.01240134790396,0.002845054019159999,0.026196082653586
858,429.250913442,-0.0065244008977,-0.0061239600087680006,0.06486938409540001
859,429.75237606,-0.0011868077141623998,0.004011648847002,0.0665149223802
860,430.25383942,-0.0085198446087932,-0.0018791130827619995,0.0601572923368
861,430.75028919183677,-0.0015949854464693877,-0.014888093825867347,0.04887566190795918
862,431.24673814,0.0022164889516180005,-0.012660961467560001,0.0399318148566
863,431.748201566,0.003353979568682,-0.00626886105146,0.02790959052292
864,432.2496653,0.00728906539258,-0.0011603359136748,0.008165097269176
865,432.751129808,0.00534888097033,0.00444545551188,-0.0055723039733416
866,433.25259378000004,0.00249842285147,0.0049271637672360005,-0.1478439663336
867,433.7540569,-0.016551734898256,0.009980615879802,-0.328227358458
868,434.25050634897957,0.033754342483244895,0.006895382433497958,-0.3679571826897959
869,434.746956032,0.0013282138668999999,0.037546061528232005,-0.2059670191956
870,435.24842032,-0.014164834395602,0.030965881710779998,0.0659045745490172
871,435.74988460000003,-0.01688646188936,0.01059069046697,0.315903089336
872,436.25134890000004,-0.018502616211381998,-0.022674581073629997,0.39947836518
873,436.752813202,-0.0009956963450940002,-0.0521486151687,0.360269237164
874,437.25427758,-0.019009033599662,-0.03492260353584,0.11213533247196
875,437.75072777551026,-0.010076617945918367,-0.004342867394006122,-0.19594814849204084
876,438.24717748,0.019452880406735998,-0.0031319385673618,-0.34343819022
877,438.7486414,0.017622322533242002,0.04763533681538,-0.325610238614
878,439.25010584000006,-0.013212070138643998,0.0206269363580046,-0.0839681305661
879,439.751570094,0.007756905639339999,0.007202381957457999,0.03038955857708
880,440.253034702,0.009772395072380001,-0.002283542715398,0.0722059508414
881,440.7494858755102,-0.0022308413907102045,0.010179903168081633,0.07987463808755102
882,441.24593598,-0.01013547373081,-0.0043750013228279995,0.0618574931476
883,441.747399896,-0.018460608618168003,-0.0002541225217879997,0.045601247027599996
884,442.24886472,0.013330088592725999,-0.014291320387502,0.031842567474
885,442.750330004,-0.0043482857572082,-0.010150303430344001,0.0137679428423
886,443.25179508,0.00825779616816,0.012586054243962001,0.01457757638798
887,443.75326018,0.0006603716694219997,-0.004164939801722,0.0106589881262292
888,444.249710767347,-0.001481362246832653,-0.007492120709904081,-0.011065574486795918
889,444.74616155399997,-0.0090117112830296,0.0030429753106400005,-0.006217924409572
890,445.24762704,-0.003575905253874,-0.0037071762984600006,0.0038758197834520003
891,445.74909285200005,0.0043343891206388,0.012160708615268,0.002629011121933
892,446.25055866,0.00047047578729000005,-0.007128842155389999,0.0006063243069979999
893,446.75202434799996,-0.00470190840778,0.005841664876874601,-0.000680014075442
894,447.25349042,-0.011737604746199998,-0.005155448836419999,0.002762772285936474
895,447.74994145510203,0.011789209427687753,0.004532922828510204,-0.001091422700672796
896,448.24639305999995,0.0008033006545519998,-0.0030372218599919996,-0.004643393234476
897,448.74786059400003,-0.0012154279371339998,0.0012718095354059997,-0.00207248546651502
898,449.24932734000004,-0.0014525342921420002,-0.003988794843358001,0.0060925418628504
899,449.75079353,-0.0036293890795140006,0.004513066150473999,0.0012910769739780002
900,450.2522603,-0.0006357079090432402,0.00057172547876,-0.005921746380358001
901,450.75372684,0.014122536685039998,0.0043801846652000015,-0.002295058984318
902,451.25017916326533,-0.0027627790235693877,-0.00947880476030408,0.0031416428997430614
903,451.746631318,-0.014548871535672001,0.01020825916922,-0.002249864322258
904,452.24809846000005,-0.003914605472424,-0.00743609953552,-0.003058365997994
905,452.749566312,0.00633431685111,0.005645519001857,0.0019480437004776
906,453.25103336,0.0072050922642372004,-0.006211175695514,-0.000855172161112
907,453.75250012,0.00653821849209,0.0026385701446200007,-0.0027407828811818
908,454.253967306,-0.006406602440279999,0.0013253217655642003,-0.004215737089996
909,454.75042007346934,-0.005547706361142857,-0.0006430408997204082,-0.0012149400486653062
910,455.24687276,0.00246137819238,-0.000584566461544,0.002208614393704
911,455.74833987799997,-0.0073750637848000004,0.0053321688262732,0.003185626200796
912,456.24980731999995,0.010021430021182,-0.00034225032620000017,0.00460315202601438
913,456.75127522199995,0.0044588063003,-0.004988410472762,0.00156717022988
914,457.25274292,-0.005753716155908,0.001788524137906,-0.007445700373384
915,457.75421060599996,0.0012233317824740001,-0.0007941661407200001,-0.006095214117795999
916,458.25066380816327,0.005290914364795918,0.00020708665395918389,-0.0015328412505622448
917,458.747117192,0.0070937538240198,-0.0014449078123539997,0.00025695956225799994
918,459.2485853,0.0016051258429200003,0.0019146319478980005,0.0035289734811212005
919,459.750053252,-0.012374518960908,-0.002884445572078,-0.0005947881401305801
920,460.25152134,0.0036164397554809997,-0.00037357014575999955,0.003769278036034
921,460.752989104,-0.004358508447306,-0.00230022060656,0.002440934430394
922,461.2494426959184,-0.00023997506639938763,-0.0029777710575306124,0.002646832526297959
923,461.745896372,0.0015817442816708,-0.0017048116126,0.0015765102382576
924,462.24736473999997,-0.006292468691,-0.0018616631250200006,-0.00613531063483
925,462.74883358799997,0.0052682261630079994,0.003046158719054,-0.01356922892659
926,463.25030208,-0.008343331813324,0.005209509667259999,0.002660053673812
927,463.75177060000004,0.0007005151545339999,0.0022831376470140003,-0.000594114286532
928,464.25323920000005,-0.005003471235,0.00353003121962,0.0019113316062399999
929,464.74969255918364,-0.006170466398971429,-0.004459381815530611,-0.0027075808074897957
930,465.246146582,-0.0027379505989159995,0.0012377482562800001,0.0033052429951572
931,465.74761622799997,0.001842839419604,-0.00710013246224,-0.000616135620438
932,466.24908517999995,-0.006753124157178,0.002358688758419999,-0.011491053076019999
933,466.75055427599995,0.00505568527621,0.009892393592446001,-0.0017202178834357998
934,467.2520233,-0.00251008414682,-0.005973822468558,-0.00699324178639
935,467.75349163600004,0.007893598582048,0.005617601787568,-0.016631713993388
936,468.2499458367347,0.002122094512463265,0.007023286682714285,0.003207950625042857
937,468.74640023,-0.0047453257624232,-0.0015566665295260005,-0.0050830194914352
938,469.24786930000005,0.00955056141974,-0.010697325838634,-0.01288132537259
939,469.749338928,7.085231096219988e-05,-0.003137598912892,-0.023316371664100003
940,470.25080836,-0.0078097408917302,0.008828184558345999,-0.004719484252884
941,470.75227729600005,0.02851025276643,0.005991271353066001,-0.010272828461554
942,471.25374696,0.011998332562180001,0.0035924474903078004,-0.011569986298765999
943,471.7502027081632,-0.017602068371857144,-0.012853486634267346,-0.05644257562436735
944,472.246658,0.003955993466412,-0.014775843519356,-0.213012800968
945,472.74812782000004,0.0095255086758718,0.009437553900892,-0.363074579828
946,473.24959781999996,-0.020416280851368,0.03026671793212,-0.33994190991000006
947,473.75106777,0.018521782793934,0.032859465517658004,-0.13546768854586
948,474.25253786,-0.00911627085882,0.022398083378334,0.152939849871
949,474.754008052,0.024123231545160002,-0.002812732560638,0.407977019546
950,475.2504635,-0.04583258979116327,-0.032378937288979594,0.46437803336122446
951,475.74691823,-0.05312694096746,0.003896625712024,0.48514575243
952,476.24838839999995,0.0013152097818879998,-0.022710981016462004,0.45143659591199997
953,476.74985903,-0.02385651992608,-0.010510155800592001,0.592437776332
954,477.25132945999997,-0.05256243955254,-0.028830932788152658,0.736513062718
955,477.75280012,-0.033926119488,-0.05065156294024,0.6434585153960001
956,478.25427074,-0.040936217644199996,-0.03605795165422,0.588535265922
957,478.75072672244903,-0.027791642241489795,-0.020381099962802043,0.5498801007612245
958,479.247182762,-0.015185105874161999,-0.061419152692000004,0.401462184792
959,479.74865396,-0.03247245226944,-0.062475140595880004,0.187615974994
960,480.25012496000005,0.00647379664728,-0.010669637991898,-0.105283265290984
961,480.75159584,0.019629234680994,0.01640677792972,-0.467541665432
962,481.25306694,0.008429956100864,0.0016531936623200006,-0.38329777241199997
963,481.7495234285714,0.007708557872248979,0.03794916164322857,-0.19333752852857142
964,482.24597977999997,0.006583002973534599,0.03372826385366,-0.081332104801
965,482.747450138,-0.0057269819549472,0.0018357414853999992,-0.010459411534334
966,483.248921222,-0.00889785519793,0.0009152790367620008,-0.02558303356154
967,483.75039284999997,-0.0025401055251979996,-0.005468442690815201,-0.019279238915279998
968,484.25186446,0.0076314863655,0.0085422020976,-0.013146346204933402
969,484.75333607,-0.007811026703679999,-0.02774734393716,-0.008511451198780001
970,485.2497932469388,-0.009961259732038775,0.020532206983469387,-0.006161038648634694
971,485.746250926,0.013940208749854,-0.020559895861139998,-0.0020707355119738
972,486.24772332,-0.00890156914534,0.011132914517151999,-0.005709854029346
973,486.74919598,0.0009746553191920001,0.013357556683795999,-0.001416047459902
974,487.25066886,0.0020299977528380002,-0.008816727230580001,-0.005058211052287999
975,487.752141716,0.000197066897656,-0.012165175687060001,0.001783707756658
976,488.25361502,-0.0076345110123992,0.009082747018640001,0.0040847064252
977,488.7500737081632,0.03440024787998367,-0.041650913446673474,-0.0009878726156387753
978,489.24653270000005,-0.02608182489772,0.041874326842500004,0.004544473411702801
979,489.74800702,-0.0061806108617200005,-0.013127762716419999,-0.004850555516548
980,490.24948114,0.0024110817091400004,-0.0068979747679,0.0006553018048515997
981,490.750955496,0.009107764727588001,0.00858528468506,-0.007015422949934001
982,491.25242982000003,-0.00226601563356,0.004248206074639998,0.01749230344076
983,491.753903598,-0.0019901950939599997,-0.01054448863018,0.004376690636722
984,492.2503634591837,-0.008489904213006123,0.007098123924653062,-0.004148678200676939
985,492.74682387200005,0.007488841200418,-0.0058496822343999996,-0.0022405574750394
986,493.248299,-0.001651227903194,-0.010313127691588,-0.006591808784352
987,493.74977495999997,-0.0024865997306646,0.00838199445884,-0.0056871709995800004
988,494.25125068,0.0006152917254419998,0.025436823534092,0.0007159698219872
989,494.752726776,0.009126078253829401,-0.0318316013317,-0.0009439751258180001
990,495.25420286,-0.015350737050439999,0.016932703711736597,0.0044364443255120005
991,495.7506640510204,0.005253855728071429,-0.016087436430857145,-0.00503356998307204
992,496.24712566,-0.0035177983346819995,0.008398797028008,-0.009986652401298
993,496.748602002,-0.0033866538666539998,0.0017628668056600006,-0.003422402337866
994,497.25007863999997,0.004550759410422,-0.0033438651119200003,-0.00346238810335
995,497.75155549199997,0.006862842720216001,-0.012563152183382,0.0053880704307578
996,498.25303247999994,-0.00842289495216,0.00839583331706,0.002673538933022
997,498.7494949163265,0.00665468673189796,-0.001002238740693878,-0.008851160321734695
998,499.24595766,0.010855075036562,-0.0080945669384,-0.0018382568830526
999,499.74743587800003,-0.0072385063864440005,0.005438822935452,0.0006604220252514
1000,500.2489142,0.022512404239318,0.00471309894462,0.0024348324224399997
1001,500.75039280600004,-0.0019233606747999993,-0.0022452866295439994,0.02118133288814
1002,501.25187136,-0.059327793240139995,0.01682164826404,0.005970325235276
1003,501.753349358,0.04711872288938,-0.011415349807519999,-0.0079526461076136
1004,502.249813144898,-0.007137505584867347,-0.00021214635926530636,-0.00503638688206551
1005,502.746277386,-0.0012567332858820003,0.010934179397299999,-0.0012870656431140002
1006,503.24775651999994,0.006913637881816001,-0.004736371776154,-0.00099995423576942
1007,503.749236072,-0.00327176892214,0.0023535338323399995,0.0021118293037658002
1008,504.25071568,0.0033339144197700003,0.0012747177757900002,0.007071425272524599
1009,504.752195574,0.0019388951736140003,-0.013100749049148,-0.0075101737888716
1010,505.25367583999997,-0.002245629997224,0.012773621987046,-0.009016340975176
1011,505.75014191224494,-0.0024305420296387753,-0.004114638272938775,-0.006651747555029511
1012,506.24660786,0.00016352463476440007,-0.000785309942324,-0.005136465667686
1013,506.74808881999996,-0.004210746232502,-0.00612893610954,-0.0032085118781284
1014,507.24956998,-0.0040014538826020005,0.006543456072102001,0.00516206542837
1015,507.75105063,0.0055582862815512,-0.0034407688304,0.006741357953394001
1016,508.25253208000004,-0.0007422655075939999,0.004638576700632,0.0036211271864054003
1017,508.754014542,0.00399349501366,0.01449801444996,0.0005800589279026001
1018,509.25048184897963,-0.008400165399167346,-0.003325719194285713,-6.263389259897953e-05
1019,509.746948864,-0.006158476974615999,-0.00498618062614232,-0.00134077634077142
1020,510.24843116000005,0.02054851023446,0.002550825021114,-0.0057296373418073
1021,510.749913848,-0.0092363512601,-0.020062535190139997,0.00560944444818144
1022,511.25139658200004,0.01910448207466,-0.0055628441276096,0.006663398016549999
1023,511.75287965399997,-0.02210221280279,0.0215304090078138,0.0033531664299172
1024,512.2493477040816,-0.00780219867877347,-0.0017371192116734692,-0.00040252894123469395
1025,512.7458155740001,0.01082168621011,-0.015145106286293999,-0.01733482209936
1026,513.24729848,-0.004837832329974,-0.0031473741866000003,-0.01477574033872
1027,513.748781188,0.02005900241432,0.02676640790036,-0.004883103414796
1028,514.25026406,-0.007298881113814001,0.0038108159680120004,-0.0023143723678822003
1029,514.751747484,-0.054363891081948,-0.016316777913938,-0.001345636458134
1030,515.25323078,0.057209720060564004,-0.004949887599895999,0.006852523074482
1031,515.7496999142858,-0.006863345829269387,0.015178307530612245,-0.008785242286160613
1032,516.246168702,-0.010128299920354,-0.00359974382512,0.0021508465987338
1033,516.747652174,0.00234302910036,0.007228867958966001,0.005765986570547999
1034,517.24913592,-0.0070703089144419995,0.00897224646038,0.011525085921516
1035,517.75061988,0.0044787394907536,-0.011725898508312,0.003756531880056
1036,518.2521039,-0.0035889047944179997,-0.0009207618517399997,0.0005426730983836
1037,518.7535881939999,0.0013776210708399993,0.0189834234243,0.0013283259281874
1038,519.2500574959183,0.01060965507089,-0.0049322417628571424,0.004610397887504082
1039,519.746526184,-0.0004833506049800001,-0.0008294959013200012,0.0020273424044644
1040,520.24801032,-0.0066020605155300005,-0.0003328804665000008,-0.009055349276974
1041,520.749495172,-0.0013201727904960001,-0.0027750613172399996,-0.0145955419075
1042,521.25097976,0.0059517234753661994,0.0015581482838200004,-5.2840529178000073e-05
1043,521.752463566,-0.004003766533056,0.00541079266974,0.00175182789915896
1044,522.25394802,0.0045718419084742,0.001422427153759999,0.008928640713974
1045,522.7504189102041,0.01847266072442857,-0.022261427052017554,7.63791566795918e-05
1046,523.24688902,-0.011364532700092,0.010603406109510001,0.003352695772146
1047,523.74837339,-0.011946248300840004,0.0064701830779278005,0.0037818344611526
1048,524.24985818,0.016811258791720005,-0.0005268637359999999,0.0009212231916599998
1049,524.751343038,-0.009692233216326,-0.002797601447324,0.0036047715763760004
1050,525.25282804,-0.005331279374324,0.00583417458098,-0.003316938881748
1051,525.7492979918368,0.012550760897040816,-0.00986766900714286,-0.008399877191244897
1052,526.24576826,-0.014151670457695999,0.00946655843804,-0.006516737442222
1053,526.7472537,0.011165150059444,-0.00906232278656,-0.0043689497733692
1054,527.24873904,-0.006339696468484,-0.007102633192681999,-0.00059803827674
1055,527.750224196,-0.0027978270219400003,-0.002523525002802,0.0010712507284739998
1056,528.2517095420001,-0.0006814738734059998,0.007351317964186001,0.000609902824516
1057,528.753195226,-0.00266813716853,0.008034972362097999,-0.0012281126214742
1058,529.249665867347,0.001252345731734694,-0.003384342730485715,-0.0019014966934640814
1059,529.7461359819999,0.00389920484284,0.0013743469594800007,-0.002939740445002
1060,530.247621424,-0.0011085615210900002,-0.00363214886048,-0.0015404745643074
1061,530.74910758,0.08828049438641,0.0068197087599,9.661777647600012e-05
1062,531.25059356,-0.1665281354778,0.004022610367640001,0.012169148694056
1063,531.752079744,0.104657035635806,-0.004279714492660001,0.00110101649882438
1064,532.25356582,-0.0172282772791,-0.0032455617569200003,0.001884053295887
1065,532.7500373183674,0.007235603244918368,-0.0012109336463653067,-0.00020234793915612246
1066,533.2465087840001,-0.0034976886864782003,-0.00145747318758,0.0002537581499306
1067,533.74799492,-9.296304557999992e-05,0.0029684961040600004,-0.0033535811211708
1068,534.24948138,0.008576207300660001,0.00788571338172,-0.009047702989681999
1069,534.75096778,-0.00730021118178,0.006133219738520001,-0.00597214510661
1070,535.2524546,-0.0010660942916649399,-0.015164453469060002,-0.005869422154400001
1071,535.7539419,0.00120541851994,0.009963116515436,-0.00251009167061
1072,536.2504143612244,-0.007729583959714285,-0.01273667529332653,-0.003057632963603469
1073,536.7468872,0.0018582877050640002,0.006002370659540001,0.0039830266519156
1074,537.2483748,-0.0036658720392800004,0.003661737963746,0.00201698132214
1075,537.74986272,0.00029217513298,0.00184423437352,0.001816491099176
1076,538.25135044,0.0006721884290500001,0.006843520272654,0.001472217285725
1077,538.7528371000001,-0.001980157839142,-0.0044644619638919995,-0.0017794165130960002
1078,539.249309844898,0.0027638581410693876,-0.008983236149644898,-0.0006918219174448981
1079,539.7457832519999,-0.0029824341276120003,-0.01700913391955,-0.0055756511120499995
1080,540.24727136,0.001275944467768,0.010746252631699997,-0.010632366058798
1081,540.7487594199999,0.10142131930304,0.011071354278412,-0.0011739722360286
1082,541.25024752,-0.098089876065482,0.005192418172760001,0.0001995701507126001
1083,541.751735776,-0.004137521888956,-0.005473549384188799,-0.0008470519841804999
1084,542.25322388,0.00322226840006,-0.006323998237380001,-0.0010372153541600001
1085,542.7496967959185,0.0005571631222448981,-0.0044646841877959195,0.0002589808593530612
1086,543.2461697399999,0.004556764653301799,-0.006053762492140001,0.007749823636877999
1087,543.7476573060001,-0.007955573359826001,-0.007001010580080001,0.005881122711554
1088,544.24914494,-0.06856757085186,-0.004076552773780001,0.0042789743433766
1089,544.750632836,0.0695879168533,0.006821840526784,0.004669909986776
1090,545.25212062,0.0037148797234800002,0.01137404149168,-0.007081519203212
1091,545.753609032,0.00229355272882,0.011782974731859998,-0.008348491952007759
1092,546.250082189796,-0.002118733511487755,-0.0033706944931,0.006022189249655101
1093,546.746555088,-0.004716134443962,0.00887652122328,-0.0050130557828059995
1094,547.24804304,0.003289148211130799,-0.002257078736192,-0.004069466008576
1095,547.749531022,0.004388976787299999,-0.0009491448015400007,0.007715283245834001
1096,548.25101912,-0.005650264126766,-0.004882266407376,0.00164066823322
1097,548.752507184,0.003564853704958,0.013916330766188001,-0.002845883394155
1098,549.25399546,0.0143370594362982,-0.0143405411446,-0.009053658300324001
1099,549.7504692653062,-0.011228195448540817,-0.012213223063485714,-0.00376531907012551
1100,550.24694292,-0.006357995476478,0.0026699689590459997,-0.0055296042352244
1101,550.748431688,0.0006676799156236001,-0.015098104030806001,0.002426072151737
1102,551.24992036,-0.0006249823609858,-0.00030491015040000016,0.0020584752201524
1103,551.751408504,-0.003001304455184,-0.01497165292506,0.0031610573804131997
1104,552.2528969800001,0.0584141821058604,0.02034305645088,0.0030285800189832003
1105,552.7493710387755,-0.06761523322657144,-8.781753397959236e-05,-0.000933003788805102
1106,553.24584486,0.007247562669239999,0.003799645093220001,0.0012116408884478
1107,553.7473336520001,0.007320315204254,-0.013555530524199999,-0.0067331030404322
1108,554.24882246,-0.007437392864216,0.0042470941697999995,-0.0034483754494794598
1109,554.750310672,-0.00021507569626599994,0.00409968125908,-0.003574832662742
1110,555.25179946,0.006042484957422,-0.00604987881952,-0.0034084110707658
1111,555.753288804,-0.0724332915725,0.00805980624626,-0.0036126789033899998
1112,556.2497631734694,0.08433983821185714,-0.012152967939265305,-0.0010679049243326531
1113,556.7462375,-0.013852010406662,-0.00519032823888,-0.000415503555026
1114,557.2477266999999,0.002838039081466,0.010469512437763999,0.00166797292183
1115,557.749215904,0.0094033046254234,0.021674029240368,0.0009710659330522
1116,558.25070526,-0.007814359739548,-0.013079781132486,-0.0019471946287280002
1117,558.752194604,-0.006491059018463999,-0.000318772261076,-0.0005701113656374
1118,559.25368408,-0.0018197230994648,0.0030704630563000005,0.016956809263348402
1119,559.7501590102041,0.009655578366453062,-0.0017611222661632648,0.05067486414816326
1120,560.2466338199999,0.0012693878448360003,-0.006512736455912001,0.021168950116419998
1121,560.74812317,0.0022682839911945998,-0.01654831375946,0.008603849956096
1122,561.24961288,0.059475554094888,-0.01429483208677,0.008984010802752001
1123,561.751103056,-0.04559033686037,-0.0017737195262600002,0.00319421452482
1124,562.2525933000001,-0.03550829578224,0.02164157060948,-0.01562500504879
1125,562.754083388,-0.04080915894647,0.0178407725606,-0.027125652972840003
1126,563.2505588285715,0.053703848368795916,0.011506561180469386,-0.024724599125306123
1127,563.747034514,0.0135827800163112,-0.004382499065995999,-0.0197738686942
1128,564.24852512,-0.0048147187104282795,0.006997538383634001,-0.017656707135708
1129,564.7500158199999,-0.00259224683066,-0.0018241406817860006,-0.003700949391914
1130,565.25150668,0.0002187955752699998,-0.01663486404296,-0.010351816955640001
1131,565.7529978480001,7.717553534999997e-05,0.0058451246287399995,-0.0115391718086
1132,566.2494741285714,0.003794653113079592,-0.0038863715948244905,-0.01614004472344898
1133,566.74595032,-0.0033068376404579995,0.0030902716144300003,-0.046954319477
1134,567.24744172,-0.00347141164388,0.011322989203108001,-0.0508549518884
1135,567.748933038,0.00141320349642,-0.00198871226,-0.038337640873800004
1136,568.25042472,0.000195330400116,0.002035158975234,-0.0301693121342
1137,568.751916534,0.0052297832351138,0.00663682509699,-0.01995206392824
1138,569.25340842,0.002629168368974,0.0019977444059020005,-0.00948204949809074
1139,569.7498856530611,0.019081209064381634,0.009397144533626531,0.002030170193456592
1140,570.2463628,-0.006533261975152,0.023027788689232002,0.006918876485102
1141,570.747854684,0.0011186145245552,0.004563906146182,0.008379258578622
1142,571.24934684,-0.0055119939711,0.0014481672276392,0.010332438866839998
1143,571.750839468,0.002359818648716,0.0009448533789798003,0.0026742610929572004
1144,572.252332,-0.0005810771047639999,-0.006762480111400001,-0.0232685460249
1145,572.7538244259999,0.012165377150258,-0.0062997364253800005,-0.138931275305
1146,573.250302032653,0.03156436660410204,0.004911097450734695,-0.27427042381836736
1147,573.74678006,0.01229264266792,0.0019241394103199998,-0.31052741408
1148,574.2482728800001,-0.00899655196826,-0.001356974225994,-0.333584721676
1149,574.749765036,-0.03091900784522,0.0050718944428560005,-0.35065239847199997
1150,575.251257702,-0.004206555504326,0.011582706347074,-0.38932066858200004
1151,575.7527507679999,-0.0038235003132514,0.04014702134586,-0.364808756118
1152,576.2542438199999,0.02312075594389,0.03372505445024,-0.30989556432
1153,576.7507211020409,0.006189231437657143,0.01804032171070612,-0.17670965032693878
1154,577.247198804,0.0069617662114160005,-0.033503488367192,-0.012973416605679999
1155,577.74869202,-0.007448248593184,-0.006494346745413999,-0.0817292013766
1156,578.2501851000001,0.00616444723714,0.029650039368679996,-0.10302748736864001
1157,578.7516784000001,-0.01264581581656,-0.013520473865639999,-0.054430288749399994
1158,579.253171584,0.004133322937942,0.01879385566374,-0.020884829016879998
1159,579.7496515469387,0.007327372521855102,0.004314636754959184,-0.002689822165997959
1160,580.24613046,0.003520887046892,0.00015312863457800016,0.0020799873816279998
1161,580.7476217899999,0.00536378674219,-0.00725675964666,-0.005956015193244
1162,581.2491142399999,0.00019288254915200015,0.006105721462364,-0.0206825860963
1163,581.7506076120001,-0.0047998840082176,0.007264602780424,-0.004018662811782
1164,582.25210108,0.0072774389394,-0.03023612124143,0.0014183798396406
1165,582.753594712,-0.017173593631,0.02382180926188,-0.00042743992435260005
1166,583.2500733734694,-0.0013807847985306133,-0.013196909971326533,0.003267929786989796
1167,583.7465518500001,0.00638100230138,0.0282924943023,-0.006192277301950801
1168,584.24804552,0.007336673121879999,-0.0014022881258459997,-0.0070375316611856
1169,584.74953956,0.00033400608177,-0.0025681451705019996,-0.000305838392708
1170,585.2510334799999,-0.022646548617548,0.002791099361922,0.00199154414351
1171,585.752527164,0.04472450316178,0.01537219930394,0.0049508114611932
1172,586.25402098,-0.019746517442640003,-0.01034788705616,0.004365239848628
1173,586.7504997653061,-0.004348874633891837,-0.006258317316159185,-0.007589072701838776
1174,587.2469787599999,-0.001254177763504,0.0008833659802000002,-0.00210479560067282
1175,587.74847318,-0.00958055838057,0.00513613872572,0.0016530102690053999
1176,588.2499674000001,0.0028462759593880006,0.0008717258742259999,5.2056561765600005e-05
1177,588.75146156,-0.010535826934526,0.0010176232926159996,-0.0064879577024026
1178,589.25295576,-0.009701544503253,0.012264128662859999,-0.00405241691977632
1179,589.7494349530613,0.011559453450122449,-0.0030956443134285716,0.0030457178267559184
1180,590.24591428,0.0036812268302454,-0.007382107702260002,0.0031994336668828
1181,590.74740838,-0.0014864503216800002,-0.014105256516120001,0.013609930043978001
1182,591.2489026,0.005027960669054,0.008188544659996,-0.0006517723285124
1183,591.75039756,-0.01469282849776,0.009527411070644,-0.010673034754069199
1184,592.2518923,0.017253380799764,-0.011485467140360002,0.0022133894009
1185,592.75338646,-0.014770302353512,-0.007477223191130001,-0.0007964072226120001
1186,593.249865977551,0.0531540125499796,0.031230369620977555,0.004849034670338775
1187,593.746348044,-0.03294576756978,0.015429986712539999,-0.014342822002792
1188,594.24784392,0.01789507629586,-0.010782856029659999,0.001425865808374
1189,594.749336604,-0.02601419857712,-0.004933868058218,0.003896489650978
1190,595.2508305,-0.00467295090644,0.0019058977720058001,-0.013874461881278
1191,595.7523276,0.007337931981946,0.01172602197024,-0.0033130658793059996
1192,596.25382352,-0.00324617830992,-0.0103625064058,0.014776545203578
1193,596.7503019367347,-0.002623922705000204,-0.013896101217510205,0.0025123369640714286
1194,597.2467813220001,-0.003309027198654,0.007811310589190001,-0.001586840681142
1195,597.7482757600001,0.00701492372904,-0.00401420073494,-0.006008664660896001
1196,598.249770542,-0.005132792472416,-0.00942697864408,-0.0077418217342408
1197,598.751266,0.017352924950900003,-0.0013792336950860004,-0.00041428070542600006
1198,599.2527613,-0.015443901494226,0.0016972320513200005,0.000796431893138
1199,599.754256936,-0.00045982541507600034,-0.0032816537589640004,-0.0006505596799924
1200,600.2507374306123,-0.019595767371040816,0.0018707507022244893,0.0011332236663244898
1201,600.7472188659999,0.007432871936138,0.0011908072314160002,0.0028049742695899996
1202,601.248714642,0.0026582533029559994,-0.009441649960346,-0.004879634501374
1203,601.750207808,-0.004294079039248,-0.0013289660317400002,-0.0025079686693901997
1204,602.25170204,0.009813083996910001,-0.010222076278196,-0.001124514705728
1205,602.753197452,0.050353094710698,0.019520554726666,0.005780615375915999
1206,603.2496777510204,-0.043017643691755106,0.029005724538775514,0.005836183875453061
1207,603.746157932,0.0054070603501048,-0.00422481569328,-0.00724890848599
1208,604.24765296,-0.005288416650344,0.007277123128076001,-0.0033350286444675204
1209,604.749147642,-0.008620680533685999,-0.014452459409530001,-0.0011428390897864
1210,605.25064242,0.011265172259629398,-0.007411435592439999,0.00011859244316799997
1211,605.7521369560001,0.0041678985954319995,0.013636697194500001,0.003591535065568
1212,606.25363162,-0.014390081995732001,0.016900089976832,0.001835474730244
1213,606.7501128061225,0.0067401060617142865,-0.024484585991824487,-0.007449696981163265
1214,607.24659324,0.001319594793034,-0.002313782552888,0.00019071676332040003
1215,607.748086612,0.0030834355298600003,0.022684612807357996,0.005175229192088
1216,608.2495805799999,-0.004545150446448,0.0002385767736599994,-0.0013194089243400002
1217,608.7510754360001,-0.0039285467004199996,-0.02168501624244,-0.006536438462814
1218,609.2525701039999,-0.004222378479636,0.01285415959534,-0.0077205574281
1219,609.754063964,0.00845539193732,0.031323823861100004,-0.0047530251206360005
1220,610.2505432040816,0.001789443080489796,-0.03812571380371429,3.515276004285707e-05
1221,610.747022666,-0.018918903899546,0.019587074279320004,0.005021409117144
1222,611.24851708,0.0336770426698,-0.013561035728706,0.005941887896242
1223,611.750011704,0.00665008204142,-0.04877350243778,0.002519360156834
1224,612.25150614,-0.032046120809068,0.020359533118,0.0026228886460379994
1225,612.753000156,-0.01149270458084,0.002003057128722,0.000749777652102
1226,613.2494794061224,-0.037987220105857145,0.011281642227326529,0.0036392457941979593
1227,613.7459589160001,0.01225147421455,-0.033130784037702,-0.006241102193006001
1228,614.24745332,2.3703839216000224e-05,0.04702768161809,-0.00576446485454
1229,614.748947144,-0.004892125176295999,-0.013489130642095998,-0.00712087745763
1230,615.2504411599999,0.026744657494639997,-0.020687777614146002,-0.009079697424510001
1231,615.751935532,0.01606679396744,0.00550469433816,-0.0036153783951239997
1232,616.25342986,0.0093831986558338,-0.01833976719482,-0.007058249527976
1233,616.7499093734694,-0.009726082934771427,0.0021419968575102036,-0.0035542283642183673
1234,617.24638876,0.0084600155617,0.01907834207538,-0.006275599245208
1235,617.747883108,0.02805309015358,0.01919321654616,-0.019268849855568
1236,618.2493774,0.020313764056418,-0.020138969454482,-0.0523080454764
1237,618.75087118,0.008937586667740001,0.010033475736459997,-0.02240337874682
1238,619.25236506,0.020080579660779998,0.028459969380721997,0.123386820104
1239,619.75385939,-0.053065767632508004,-0.03331790416374,0.0638414391514
1240,620.2503385612245,0.015190642432040224,0.009222339326857142,0.022576288165448977
1241,620.746817308,-0.035452584903874,-0.00796835186904,-0.014842644126546001
1242,621.2483110219999,-0.017716868715708,0.003897287594548,-0.0259234315902
1243,621.749804972,0.007060376172774,0.011744588596167999,-0.01681837837202
1244,622.2512988,-0.02229816432071552,-0.024606612829368,0.0026816688386201997
1245,622.752792308,0.025520577281449998,-0.016101207346300002,0.01570409513062
1246,623.2492709367348,0.0018384926955122447,0.004558297823530612,0.013508064016795917
1247,623.745749332,-0.0044064841978959995,-0.002528057777031999,-0.005882885446254999
1248,624.247242762,0.004021522728838,0.0032718546110000013,-0.02596245613
1249,624.74873664,-0.000292126517572,0.00802077790712,-0.0322296675664
1250,625.250230322,0.0054403540956446,0.0018595516391799998,-0.0625441464782
1251,625.751724614,-0.00298394100753088,0.008652713613180001,-0.044524070173599994
1252,626.25321848,-0.009738184110798,0.005195800083079999,-0.009519877353638
1253,626.7496962142857,-0.0038411739490693876,0.010158654225693878,0.027531419405714283
1254,627.2461742200001,0.011224642862198798,0.0021998243026999996,0.0341189058126
1255,627.7476683900001,0.0007296105381460001,-0.01211036325452,0.0362459271028
1256,628.24916208,-0.001378886150624,-0.013542808201445999,0.03002010524268
1257,628.75065392,-0.0028740341963460004,0.00461239586634,-0.0024605797487984
1258,629.2521461199999,0.00333644591213,0.009217435735588,-0.009319438483105999
1259,629.753639464,-0.00832277546593,-0.008941620327482,-0.0116409297564
1260,630.250117477551,0.004016655791959183,-0.0051739136963265325,-0.0066312510042346945
1261,630.746594846,-0.005889619486263999,0.0118024568805,-0.01061027345032
1262,631.24808726,-0.002267273246028,0.012428379292594,-0.007154701512590201
1263,631.749580336,-0.004011108167142,-0.007089776116300001,0.0011958178562564
1264,632.25107314,0.008460128111960001,0.0007152610827799999,-0.0046813967241140005
1265,632.752565418,-0.012992178499658,-0.005139291557300001,-0.0070295344477874
1266,633.25405764,-0.0013435275201559998,0.0009856618463359999,-0.02007523235012
1267,633.7505350285714,0.004721778197463266,0.01181189209644898,0.004456870937122449
1268,634.2470121800001,-0.001176585527442,-0.0034866703296600006,0.0218115240154
1269,634.748504164,0.0014759700005951997,-0.006653727058099999,0.009984720494478
1270,635.24999594,0.00681101392982,-0.0005074366005999997,0.0043818311392859995
1271,635.751486902,0.002132534328838,-0.0020623831646600006,0.004395823305139
1272,636.2529779399999,0.0029059762879519997,-0.0026727602725520007,-3.206455142060003e-05
1273,636.7494547714286,-0.007854063748006122,0.0006095677973877552,-0.014363505732673471
1274,637.24593138,-0.0003471417630640001,0.004216351565104,-0.034551903046799996
1275,637.74742192,0.012672701161041999,0.009675747147000001,0.000964859602444
1276,638.24891254,0.00889533885742,0.009144237711762,0.117307398691
1277,638.75040398,-0.001241644928112,-0.02143225716328,0.19981728047800001
1278,639.2518952,-0.013112571453617,-0.09459588518596,0.067802256795152
1279,639.753385588,-0.0105603085081998,-0.02639967307438,-0.17522700697600002
1280,640.2498610979592,-0.0074400767420406124,0.00689677406712449,-0.24945317543061224
1281,640.74633668,-0.010958274062660001,0.06615071827551999,-0.1902197274536
1282,641.2478272200001,0.0060405994574900005,0.07279654394914,0.015989006084702
1283,641.7493179200001,-0.009551951205694,0.009149702951882001,0.10498500824080001
1284,642.25080858,-0.00456728853292,-0.006602119374368001,0.127537338878
1285,642.7522995,0.0024449888056596,-0.010315807974138001,0.12594269752200002
1286,643.25379036,-0.00616019865511,-0.0185429571203,0.0544682331756
1287,643.7502672816327,-0.0027847147677346937,-0.008913422476644898,0.011449419813234694
1288,644.2467438,0.0037361979761188,0.0057897676608159995,-0.013384727361128
1289,644.74823328,0.00516972347164,-0.002096353434164,-0.029071935788799998
1290,645.24972316,0.005697652138752,-0.0046603453814347,-0.038417079895600004
1291,645.75121428,0.004693653080458,0.0016177868566899997,-0.0364880354334
1292,646.25270528,-0.001038307342274,0.00350705912228,-0.026581740454
1293,646.75419596,0.0045762001533,0.0037961253528988005,-0.01797689205058
1294,647.2506718061225,-0.0024482788403155102,0.007817374351510203,-0.005836846100440817
1295,647.7471478,-0.0020049065722402,-0.0013768061356000006,0.002465762226942
1296,648.24863866,0.003983481666304,-0.0019876403746799994,-0.0008622958639954
1297,648.7501291,-0.00683854011784,0.0017325455896259998,0.0017922918975768
1298,649.2516197,0.0019282084983039999,-0.0034785672843399996,-0.0015074789710148
1299,649.7531106,-0.0016124915329560003,0.004679515269224399,-0.011553230499900001
1300,650.2495865020408,0.0008495270883530613,0.0010955495194571428,-0.005062984359914245
1301,650.746062338,-0.002564483592708,-0.03821567720848,-0.001952324664466
1302,651.24755306,-0.0019336204693280001,-0.0473635901703,0.00027828201656000004
1303,651.749044166,-0.003221384230996,-0.0068440172370800014,0.004605854712474
1304,652.25053508,-0.002046999810336,-0.0013351575379110003,0.0021618784078826
1305,652.75202514,0.004256178410177999,-0.002219485388793999,0.00023168174784448002
1306,653.2535154000001,-8.466504580200047e-06,-0.0002177190492684003,0.000780181767172234
1307,653.7499911367347,0.0014983749171428573,-0.0009119152286672449,-0.003406295179889796
1308,654.24646682,-0.0030319315475719998,0.0019648122792999996,-0.005512389869017999
1309,654.74795709,0.00292718138518,0.0015136643406799993,-0.00789737828078
1310,655.24944734,-0.00040370340457260013,-0.0012133669385100002,-0.0013200143514982
1311,655.750938188,-0.0012298075109844,-0.0017550077101899997,0.001378137927965
1312,656.2524288599999,0.00025654947436,-0.007180407428089999,0.0021895627747496
1313,656.753919416,-0.00545789592919,0.0008551343127999988,0.000611463186822
1314,657.2503949469387,0.003666405679836735,0.00037118081657142824,0.0011187328763895919
1315,657.746870302,-0.003711515795284,0.00421200335004,-0.00012181009746399997
1316,658.24836058,-0.000563402417958,0.003476540976339999,-0.0026625370445104
1317,658.7498510720001,-0.0015205100172379997,-0.00334962132112,-0.010053285916765999
1318,659.2513414399999,-2.2410424657999978e-05,-0.0032965702291999997,-0.012183671880111999
1319,659.752831078,-0.007082065408652199,0.003683922122838,-0.013210046347399999
1320,660.2493059999999,0.0024638895649897958,0.011112033447189794,-0.012605922296714287
1321,660.745781492,-0.001382455723364,0.014357509445322,-0.008408007763748641
1322,661.2472718,0.001636655824556,0.013299309907816,0.0027261524346459997
1323,661.74876122,0.00069006955277,0.01092733941072,0.00751175381468
1324,662.2502506,0.0003500682578000001,0.0080472082458052,0.007144457362602
1325,662.751740576,0.006706323576963999,0.008864410985408001,0.01427034870704
1326,663.2532304800001,-0.006814483236576,0.0050246553773000005,0.0173479649606
1327,663.7497059530612,0.009322912014367347,-1.2548564532652854e-05,0.01715969640246939
1328,664.2461813,0.0048205209987800006,0.0016245024403199993,0.027690214552
1329,664.747670772,0.0043990387858599996,-0.0121001103502,0.0408495811004
1330,665.24916026,0.0105353871177888,0.00476951219154,0.0348286729672
1331,665.750649352,0.014073800658232001,0.023622781616970002,0.004157372974878
1332,666.25213844,0.009468124378640001,-0.005865153234545999,-0.02976083338276
1333,666.753630044,0.00234869375848,-0.00582895502434,-0.0387902803354
1334,667.2501062061225,0.018702383114838773,-0.0016734140279142853,-0.03553585054306122
1335,667.7465788280001,0.002458965638934,0.00865147465048,-0.0300068053238
1336,668.2480666,-0.0017024033610000002,0.014475561287946,-0.0065595173217720005
1337,668.749555648,-0.002246450949532,0.00282165929598,0.00159763114177
1338,669.2510447400001,-0.0007056998552980001,-0.0064471660383820005,-0.001446378900546
1339,669.752533636,-0.014198618363596,0.008233413937952,-0.006408314346526
1340,670.25402258,0.0019813122879860003,0.000253676174462,-0.002370663053612
1341,670.7504968979591,-0.020557819314973472,-0.009160565932979592,-0.028000561577775508
1342,671.2469711399999,0.019615703364542002,-0.011264817807276,-0.0895561646656
1343,671.7484597280001,0.032670456894741996,-0.04712939130055,-0.252220442282
1344,672.24994836,-0.043531843905708,0.01250607333314,-0.37692862868
1345,672.7514375400001,0.0017041646872000002,0.034524117725778,-0.38350941717
1346,673.2529266399999,-0.009690570328506,-0.0006987856584400004,-0.386213232878
1347,673.749403055102,-0.018322507118349388,-0.015323986907689796,-0.27181908233714286
1348,674.2458789799999,-0.0747316411314,-0.01889870926692,-0.420008805398
1349,674.7473669560001,0.009429477865620001,0.035521987670175996,-0.31818863392200003
1350,675.24885496,0.01717100868912,0.016660565102522,-0.08317343773479999
1351,675.7503422079999,-0.010126215135484,-0.003994696213439999,0.024229452114160003
1352,676.251829586,-0.01868760059552,-0.004293203373858,0.02019681223658
1353,676.7533184879999,0.004387185303376,-0.008344729049257999,0.0036695300345597997
1354,677.2497924163265,0.0007393001764191837,0.0003050527140000001,-0.003269739740170408
1355,677.746266262,0.001211729757578,-0.0008183110040020002,-0.00814814843818
1356,678.24775492,-0.004964707000058,0.0080491473525,-0.0099024744986
1357,678.74924317,-0.002793429102746,0.000568864681118,-0.0014896007418954
1358,679.25073142,0.005940486043778,-0.0046494233229632,0.000505894176924
1359,679.752219624,-0.0011064178032552,0.0008292936252999998,0.00861274814408
1360,680.25370776,0.0044813893731412,-0.0018704694042080002,-0.001383931400464
1361,680.7501812265307,-0.0037862408563469384,-0.0008253929757387751,0.0019705452652714287
1362,681.24665452,-0.001901812749,-0.0018094210509429997,-0.0075182413405600005
1363,681.748143844,0.015147480377760002,-0.0026373395047000004,-0.004832340632711
1364,682.2496328,-0.0019270468036159999,-0.0046971497029052005,-0.005234776488542
1365,682.75111986,-0.0103305079594592,0.002375965221266,0.0003223967226634
1366,683.2526068999999,-0.005761533314534,-0.00018442852415780003,0.00034917993704357996
1367,683.7540934040001,0.000252127740537,0.002283446509332,-0.0020697000738542
1368,684.2505650306122,0.0013722757504612243,0.0001138278793938775,-0.0036735529119530613
1369,684.7470370880001,0.0037378763129084004,0.0003809608612344001,-0.00237963290767
1370,685.24852372,0.001882394012184,-0.002002991726656,-0.01944156777108
1371,685.750010326,0.00332332257168,0.0027611909900451996,-0.022049100362399997
1372,686.25149668,0.0004544227852008001,0.0032845915390921996,-0.00988398072052
1373,686.7529830340001,-0.0007530304138263999,-0.0023501085400230003,-0.00023491957455800002
1374,687.2494543632653,0.0016431619355816328,0.00037011733184285706,-0.0010396617830295918
1375,687.7459253920001,0.0009117366466478,-0.0006907569896350001,-0.00047775496146760003
1376,688.2474111800001,0.00013883027253399998,-0.0007564414852796,4.825539621419995e-06
1377,688.748896732,0.0002121983281548,-0.00016350286989523996,-0.0004633700207456
1378,689.25038212,-2.7048988290200083e-05,-0.0020747033881499998,-0.0012193123332972
1379,689.751867352,0.00033253601746420004,0.0009551494197244001,-0.000221347728517
1380,690.25335242,-0.0007935039512260001,0.00030546807686800007,-0.0005986037652472
1381,690.7498238061224,0.0016665504199989798,0.00021668950243816326,-0.00022037083642714289
1382,691.2462948,0.00046118192369999997,6.64559844702e-05,-0.0005666474171626
1383,691.74777806,-9.940939959226001e-05,-7.69895128858e-05,-0.0008211075525915999
1384,692.24926124,-0.0002747692727,9.543872438239992e-05,-0.0005466031433644
1385,692.75074516,8.667383339799997e-05,-0.00013016075825000002,-0.000591341209345
1386,693.25222896,0.00028284304775606,0.000261517362624,-0.00079293660823262
1387,693.7537129680001,7.24644213942e-05,0.000525836124988,-0.00034782882431319995
1388,694.2501820734693,-7.471848884877528e-06,-0.00010293668934632654,-0.00037715166130775513
1389,694.7466510899999,0.0003531526867628,-6.965365271599999e-05,-0.000175217523958
1390,695.24813474,-5.502463318306001e-05,-0.001347047816922,-0.0005128452065916
1391,695.7496175780001,0.00038502126930159994,-0.0003719556614820001,-0.0002380456798638
1392,696.2511002819999,0.0006252306327612,0.00015818297863199994,-0.00012114552777880001
1393,696.752583096,-6.381229500939998e-05,-0.0006757445632313999,3.568875831800023e-06
1394,697.2540657599999,0.00018068467264680001,0.000329904165122,-0.00073932684611858
1395,697.7505334795918,-2.4700926967959186e-05,0.00023012057098448986,-0.0006288787212314286
1396,698.24700104,0.0001243773475544,-0.00017999031577239994,-0.0004175386624672
1397,698.74848357,-3.5332982205999895e-06,-0.000585268949828,-0.0006053318187824
1398,699.2499659,5.210452708839998e-05,0.00015270456657459993,-0.0006243878800816
1399,699.7514477899999,-0.00019795560275519996,0.00014318983077920013,-0.0003076165460326
1400,700.25292946,-4.4163549302400004e-05,0.000978996734649,1.9616918830199978e-05
1401,700.7493959204081,0.0002632310272195918,-0.00015868222790722442,-0.0004954586441979796
1402,701.245862182,0.00041956587695100004,7.230913257819998e-05,-0.000435497616401
1403,701.747343562,-0.00027854609303600003,-0.0003967261407324,-0.00047395986735100003
1404,702.24882474,0.000303351152757,6.397808905459996e-05,-0.00048021588702119996
1405,702.750306582,0.00018117383117820002,8.286685685600006e-05,-0.00020265876430080001
1406,703.25178818,8.746054952799999e-05,-0.00015187648126000004,-0.00058718336978153
1407,703.7532669020001,8.703825991479999e-05,-0.00011629154900800003,-0.00036115789557802404
1408,704.2497306081632,0.00010347822486673468,0.0004102830225055102,-5.981985864081634e-05
1409,704.7461956999999,0.0015104056056664,-0.00016011691662319992,-0.00049908151270648
1410,705.2476754,0.00944534512218,-0.000451435381472,-0.0003513261163708
1411,705.74915474,0.00570270680825,-0.00148533116967,9.234079677400008e-06
1412,706.2506338999999,0.001137592978913,0.0005720610543819998,-0.00029336342708
1413,706.75211323,-0.0061679440737080005,0.0039246994261086,0.0037942147999966004
1414,707.2535923600001,-0.0065212173761182,0.002203601338046,0.01241873598636
1415,707.7500566346939,-0.0031309272450440817,0.00372016952546449,0.017713275567489795
1416,708.24652078,0.007987064523406,-0.001878591654692,0.0211230717972
1417,708.747999052,0.008755407538004,-0.0009695574081479999,0.01898331793008
1418,709.24947718,-0.00602876116494,-0.0004887747669179999,0.01196201346788972
1419,709.7509556919999,-0.0025147332066144,-0.003467248342984,0.00766099747546
1420,710.252434022,-0.00515637414574,-0.00668863963328,-0.00531969186265
1421,710.75391192,0.005121928444411001,-0.0020552362224399994,-0.01813205440472
1422,711.2503748632653,-0.005891598191107756,-0.0036095415279387756,-0.00859149145612653
1423,711.746838992,-0.004692356242114001,-0.004794559823362,-0.008117217459008001
1424,712.2483179,-0.002125623095928,0.006837444453646,-0.018702878701
1425,712.749793508,0.000669189579956,0.0072022649161,-0.013745896766863998
1426,713.25126886,-0.014119675187253999,0.0124848796418,-0.01723881566422
1427,713.75274592,0.015262746159366,0.014312870819254,-0.019620551401679998
1428,714.25422284,0.006135769951894,0.020552993362260002,-0.03081836290662
1429,714.7506849163266,0.011330755863756937,0.020857549121073467,0.0040686320395244896
1430,715.24714682,0.0015420823916,0.012954404036854,0.1789747627096
1431,715.748622952,0.01754068108329,0.007145288037384,0.364976425168
1432,716.2500989,0.008304031835855999,0.004445332726340001,0.456980175374
1433,716.7515751679999,-0.004457228956544,-0.0007895808650536003,0.445758520962
1434,717.2530512819999,0.029664968756252002,0.0006961294707199994,0.48910089671199997
1435,717.7495125204082,-0.0343280307917551,0.008946317077142857,0.44021673895714286
1436,718.24597366,-0.039303431026814,-0.03137093698144,0.40129615127999996
1437,718.7474490039999,-0.01134965041737,-0.035201096048192,0.24486746252799999
1438,719.2489242600001,-0.023163699228118003,-0.026865062379056,0.0712568899218
1439,719.75040018,-0.0253778088746,-0.007519767629063999,0.024799085390200003
1440,720.2518761599999,-0.013211286375503999,-0.0062556993683742,0.004340600948918
1441,720.753351368,-0.0219773166529,0.00586176661788,-0.0046472594735619994
1442,721.2498120448979,-0.035695293556938776,-0.00931944088982653,0.006311571199093877
1443,721.7462720240001,-0.01810429466816,-0.0028465277307640003,-0.0072525801545524
1444,722.24774678,-0.03333140566944,-0.0019520113710919987,-0.015888552160294
1445,722.7492222779999,-0.0006134076506319999,-0.003533192369566,-0.0099140680673
1446,723.2506975,0.0162511141320712,0.02990950036794,-0.002699672164004
1447,723.752172172,0.018028484285,0.013067258466310001,0.00292081002493956
1448,724.2536465600001,0.012047109259555999,0.014460628582315999,0.0029266714479044
1449,724.7501069367346,0.025982079742232652,0.01013304738877551,0.003919437121318367
1450,725.2465675,0.0029867184158779998,-0.0063992465475539995,0.003124670205738
1451,725.7480425,0.006823415281722001,-0.005736693125174001,-0.006768795873210001
1452,726.2495175,0.010749192610364,-0.0017672665043380002,-0.018172891234
1453,726.750992194,0.0053778234495638,0.0001184436212379999,-0.015594153997339998
1454,727.2524669,0.001724505555008,0.003401286778832,0.011724328701626
1455,727.753941578,0.007323568510261999,-0.0004266714027739999,0.032062295638
1456,728.250401455102,0.004654733616502653,-0.011572874389536735,0.010415322791071427
1457,728.7468617760001,0.000424691122014,0.004610685911246,-0.01526977853872
1458,729.2483371000001,0.0006859075373051999,0.004806242398314,-0.012116305260482001
1459,729.749811778,0.00031052031536399994,0.004648721040400001,-0.008813384335962
1460,730.2512863999999,0.0007713387070422,0.001400297563508,-0.0014873226954932601
1461,730.752761588,-0.006947358529982,0.0029044383854848,-0.000400848923028
1462,731.2542367000001,-9.669100870799999e-05,0.00300188283458774,-0.000731888005948
1463,731.750696944898,0.0010571500801191836,-0.0013018782460995921,-0.0011128632491757143
1464,732.2471572000001,0.006089290920594,0.0019195526748559998,-0.000549610998692
1465,732.748631878,-0.002597345989341072,-0.001075278530182,0.0011576905078611
1466,733.25010656,-0.001284838058104,0.0034624889033599998,0.0017355398658634
1467,733.7515826900001,0.0005328033305879999,-0.004840589910376,0.004562056125284
1468,734.2530585000001,0.0039956203850358,-4.512524269999998e-05,0.004439722010808
1469,734.7495187244898,-0.003364679736255102,0.0013269778359489798,0.0005663567999916123
1470,735.2459789999999,0.000544163603134,-0.0015750218271992,-0.0025195773865280004
1471,735.7474539,-0.0033996509854,0.0013394800764339999,-0.002444677660106
1472,736.2489286399999,0.005245569320256001,0.0022167288423002003,0.0038188457595949997
1473,736.750404084,-0.0049369819554400006,0.00279067455778,0.002713336540662
1474,737.25187966,-0.0007501942572626001,-0.00461421618238,0.0033656541246743998
1475,737.753355476,0.002962710820046,0.0037516300657500002,0.003831994400762
1476,738.2498166387755,-0.0019131717747687756,0.0026552452305240817,-0.003285824591857143
1477,738.746278596,-0.0017636226302139998,0.00586731386414,-0.010890938579239999
1478,739.24775572,-0.0004039205144736,0.0032574354392182004,-0.010030330168
1479,739.74923008,0.003320341473158,-0.005605976516054,-0.0019696623622348
1480,740.25070422,0.0030441968889479997,0.0023901074471263995,0.0047532671364102
1481,740.7521798519999,-0.000984020205334,-0.0004020075129750001,0.00900827380814
1482,741.2536556599999,0.0026118370423722005,-0.0028227907228999998,0.003984590517448
1483,741.7501171612245,0.003544614659734694,-0.0033553064683632654,0.005158806183881633
1484,742.2465787599999,0.0018603766710699999,-0.0010149991508599998,0.0049481039703349996
1485,742.74805414,-0.0024121843090994,0.002444691397392,0.0012780348805078
1486,743.2495294400001,0.0074496677799184,0.00017489970698000002,0.0009882223978785998
1487,743.7510056960001,-0.0055513748431,-0.006938597028445999,0.0011799542745950002
1488,744.2524821000001,-0.007597941243717,0.0038055436035340003,0.0004007674427366
1489,744.753957924,0.0023675084208064,0.003581765396143,-0.005228987067264001
1490,745.2504189346938,0.010707870762295919,-0.004509243828781632,-0.0070044860500265305
1491,745.7468803200001,-0.0056681121974684005,-0.007469694158078001,-0.0063557006393339995
1492,746.24835658,-0.011745428992825999,0.0071234136168280004,-0.003763231695609492
1493,746.749832944,0.0038197197113361,0.0066624223250399996,-0.00254362754401
1494,747.2513095,0.000781452311108,0.001186339920454,-0.0027012807444960004
1495,747.752785752,-0.0009588467792319998,0.0005986447071699999,-0.008290697768748
1496,748.2542620600001,-0.001790247578018,-0.002619926994922,-0.0181231273898
1497,748.7507246204083,0.004596506948477551,0.0057292739304367355,-0.024355799073469388
1498,749.24718748,-0.00134462038989,-0.002238845834346,-0.0169180763698
1499,749.7486644699999,-0.0043419435619640005,-0.010445291818756,-0.01408612121874
1500,750.25014144,0.010719446894006,0.00069865369205694,-0.011786636486240001
1501,750.7516191120001,0.010183775955738,0.004685516962992,-0.013108631269899999
1502,751.25309704,-0.020245942212806,0.005813954453508,-0.01530422693132
1503,751.7495597387756,-0.000832502616112449,2.218590925918372e-05,-0.016574303334489796
1504,752.2460224419999,0.003591793980582,-0.0021071800034100003,-0.010576855130780001
1505,752.747500354,0.0011204527411545998,-0.006774907139934,-0.005831972612068001
