Time_interval,Time,Acceleration_x,Acceleration_y,Acceleration_z
0,0.25540201008163266,-0.16544462111693875,-0.15212402888387755,0.2341108090539388
1,0.750580539,-0.14453060719096,-0.0413555435478,0.2671433866456
2,1.250580539,-0.1182756394528,0.13910612754128,0.036150978973188
3,1.750580539,-0.039034259749500005,0.04658454890216,-0.42318268478
4,2.250580539,0.1312504081899,0.08486133444524001,-0.9729365562939999
5,2.750580539,0.01242498946182,-0.0158458319686,0.5834247263110199
6,3.250380539,-0.1671570366043,0.10432348512586,0.8873055314699999
7,3.750580539,0.12285712391560001,-0.1669859995078,-0.10795202184260001
8,4.250580539,0.05250993574085999,-0.04638907051596,-0.07469654483388
9,4.750580539,0.05542987056319999,-0.10024291210434001,0.023176210018388002
10,5.250580539,0.033365434748579996,0.008148935530634,-0.03740935867286
11,5.750580539,-0.0159191360698,0.113523109880176,-0.05444026871754001
12,6.250580539,0.010665699390572,0.019010112036546,0.03753153229872
13,6.750580539,-0.017214169182568,-0.016065743717544,-0.0136589364708
14,7.250580539,-0.035124724863132,0.0007819067431119994,0.02193004578034
15,7.750580539,0.01780059877154,-0.02370155419646,-0.0703838407438
16,8.250580539,0.004129446096320001,0.015528182790966,-0.007061597102679999
17,8.750580539,-0.0216001784271,0.021868958934720004,-0.00122172946386
18,9.250580539,0.034098472002804,-0.00945618648968,-0.019620976611279997
19,9.750580539,-0.029138249877039998,0.041062330017728,-0.004043924515319999
20,10.250580540000001,-0.010115920575827999,0.01037248442406,0.018154901712559998
21,10.750580540000001,0.016090178222908,0.00163711757872,0.02624275097576
22,11.250580540000001,-0.007611374989299999,0.023591598156179998,0.0346971193228
23,11.750580540000001,-0.0007208189979399995,-0.005070177632640001,0.05448913794878
24,12.250580540000001,-0.020879358070052,-0.002260199743565999,0.059314969667839994
25,12.750580540000001,-0.006035344107439999,-0.007354812090494001,0.0448985612245
26,13.250580540000001,-0.0010873394223800004,0.003371973363106,0.06356658915032
27,13.750580540000001,0.011349868581459999,-0.0059498229484599985,-0.0010018183064199994
28,14.250580540000001,-0.003225365622647999,-0.0004031705063539995,0.04018268499682
29,14.750580540000001,-0.01833816089598,-0.0034574949182999996,0.019168936768336
30,15.250580540000001,-0.023347252191632,-0.00869871472318,0.053621710511084004
31,15.750580540000001,-0.0130480714172,-0.049577785954199996,0.020977096328852
32,16.25058054,-0.055881909320340005,-0.060524482130880006,0.028270822023272003
33,16.750380540000002,0.053633927704979996,0.001356120015719999,0.01668882557714
34,17.250380540000002,0.0380080070417,0.013512329165032,-0.001392771631028
35,17.750380540000002,-0.0168720852631,-0.01692095432396,-0.008564324530808
36,18.25058054,-0.00489913508834,-0.004679224028099999,-0.004520399284659999
37,18.75058054,-0.01491731826672,-0.022601996750880003,-0.0100426170262
38,19.25058054,0.0057176942841800004,0.005180133833053999,0.0137566747881
39,19.750380540000002,0.001233946449999999,0.0024434584645659993,0.01176525548
40,20.25058054,0.0107390040729,0.009602794393234,-0.020928227011440002
41,20.75058054,0.006536252504320002,0.014624102304172,0.01367115407306
42,21.25058054,0.04222297375898,-0.007550288332754,-0.04592481465066
43,21.75058054,-0.02847851610928,-0.0012828164829939998,0.0028710643153320005
44,22.25058054,-0.038802131098012,0.035711154058903995,0.01981645270114
45,22.75058054,-0.01635895607908,0.010396920229586,0.019816452967239998
46,23.250380540000002,0.04634020234886,-0.00273667383886,-0.03777587814972
47,23.75058054,0.03747044563702,-0.005607738169445999,-0.0107390022718
48,24.25058054,-0.0069760758756000005,0.03167944792988,-0.01098334838806
49,24.75058054,-0.00552221773502,0.004789179564000001,-0.0007086031657400002
50,25.25058054,0.016297872464,0.0035796676224,-0.0040561420525
51,25.75058054,0.0006597346156200001,0.016505566266565998,0.00831997862966
52,26.25058054,0.0026022840900200017,0.005033525758726001,0.00570547685798
53,26.75058054,0.0209037925262,0.08629075858980001,0.0760037955974
54,27.25058054,-0.003164279694612,-0.005925388364619999,0.015577051807419999
55,27.75058054,0.008124501548700001,-0.01150869250572,-0.0128892465775
56,28.25058054,0.00950505592364,-0.01727525598836,-0.029211553694472002
57,28.75058054,0.00850323790278,0.046523461253739996,0.009932661202108
58,29.25058054,-0.00540004406202,-0.045924814366088,-0.023127340177876002
59,29.75058054,0.00243124183954,-0.00546113101312,0.0267070081595
60,30.25058054,-0.0023701553177,-0.001795942371314,0.01006705152978
61,30.75058054,-0.00641408010324,-0.007953459044526,-0.0012828159613519996
62,31.25058054,-0.00949283856982,0.02634048902914,0.042565057883320004
63,31.75058054,-0.00586430192276,-0.011862994141498,-0.010262528406440001
64,32.25058054,0.002467893734032,0.008356629874619999,0.02726900374424
65,32.75058054,-0.00904079863752,-0.0015027275893000002,0.004764745373828001
66,33.25058054,0.012156209020499999,0.008820887719148,0.048930268939220006
67,33.75058054,0.00811228405172,0.012046253434566,0.036028804385440004
68,34.25058054,0.062283773521988,0.107426681534794,0.0860097595328
69,34.75058054,-0.07938798627972,-0.05816654511706,-0.02728122127818
70,35.25038054,-0.05119046919562,-0.021844525484034004,-0.013744457790812
71,35.75058054,0.026413792597972,-0.108990495675994,0.11048100404938
72,36.25058054,0.01128878128668,0.031117451600499998,0.0083688495178
73,36.75058054,-0.0027977613537399997,-0.08265000396538,-0.081391622709768
74,37.25058054,-0.07293725469342,-0.03231474699536,-0.03678627695448
75,37.75058054,0.0359921531979,0.05567421580851399,0.04415330574314
76,38.25058054,-0.043273660771060006,-0.045350601082960004,0.0042027493307
77,38.75058054,0.046987719248888,0.017678426446114,0.04338361665798
78,39.25038054,-0.00243124199496,-0.013683370880259999,0.00559552154106
79,39.75038054,0.015491530717708,0.064739450122912,-0.07280286392766
80,40.25058054,-0.01142317084106,0.0939387858276,-0.032803439086
81,40.75058054,-0.00786793846642,0.017959424464639998,0.022223260682600002
82,41.25058054,-0.030787584899500002,0.00824667496402,-0.0115697788096
83,41.75058054,0.012363903415019998,-0.04119672064196599,-0.024275766405572
84,42.25058054,0.002577849380768,0.006206386060934,-0.005057960413380001
85,42.75058054,0.00559552137672,-0.008405499179134001,0.0061086478999
86,43.250380539999995,0.011716386329920002,-0.01445306034992,-0.004642572349772
87,43.75058054,0.0027855436612400004,0.006389645629534,0.0036163195495599997
88,44.25058054,0.00482583213338,0.01660330461072,-0.00042760523561200013
89,44.75058054,-0.008723148619072,-0.02813643144532,-0.01643226219644
90,45.25058054,0.0320948361219,0.01224173006176,-0.022052218632456
91,45.75058054,-0.01512501144578,-0.02276082221128,-0.019291109956039998
92,46.25058054,0.0315084052393,0.030567674221060003,0.01728747303584
93,46.75058054,-0.0031154107844,-0.0315450565088,0.02206443547492
94,47.250380539999995,-0.029516986753400004,0.0012217298126600002,0.00999374787942
95,47.75058054,-0.006218604032880001,-0.010922261868853998,0.0036651887255559996
96,48.25058054,3.665178821999973e-05,-0.010836741100794,-0.05105607853534
97,48.750380539999995,-0.004532617186180001,0.06702408317400001,-0.0336953020551
98,49.25058054,-0.014294235397012,-0.0235915977671,0.01044578822854
99,49.75058054,-0.0018936812153000006,-0.032791221470266,0.00801454601866
100,50.25058054,-0.008662062560940001,-0.010836741176886,0.023200644085
101,50.75058054,-0.014660754363668,0.053120800852066,0.086755014582448
102,51.25058054,-0.0199752787118,-0.032241442465680004,0.0842871224664
103,51.75058054,-0.018032727456740002,0.117347125552594,-0.08559437256836
104,52.25058054,0.0191078506794,-0.016481131186112,0.030188938006180003
105,52.750380539999995,0.014330887701220001,-0.07604044811692,-0.0713490067476
106,53.25058054,0.014856230808919998,0.131335931335994,-0.1456668160886
107,53.75058054,-0.07831286496407999,0.0371527964513,0.039889469647188
108,54.25058054,0.040500334000159996,-0.17285029777917998,-0.16702264641140002
109,54.75058054,0.116699608786,-0.1240177671962,-0.25069890496058
110,55.25058054,-0.024495673866,-0.12532501886532,0.18363816831479998
111,55.75058054,-0.06593674454616,-0.0195965426404,0.05500226492078
112,56.250380539999995,-0.037360490021988,0.0023212857930600007,0.0038484486603600006
113,56.75058054,-0.0067561643384799995,-0.02416581105994,0.03832565647344
114,57.25058054,-0.06548470396139999,0.21875067863636002,0.120816835692
115,57.75058054,0.016872084526079998,-0.13458572934988,-0.055747519242540004
116,58.25058054,-0.0019303334767399993,0.10921040699260001,0.051813550934059996
117,58.75058054,0.1301019828802,0.08046311162959999,0.10965022695176
118,59.25058054,0.14340661698526,-0.15164107317136,-0.24383278680668
119,59.75058054,-0.0038484484665479977,0.03610210809918,0.00878423533684
120,60.25058054,0.019205588818208,0.09359670265296,-0.04164876119144
121,60.75058054,0.0688688939386,-0.1130099835533,-0.029260422108067997
122,61.25058054,-0.0032009316623600004,-0.102270981209,0.05728689900592
123,61.75058054,-0.10032843147576001,-0.000659733476600003,-0.04885696576602
124,62.25058054,0.06946754150394,0.0021868958542400007,-0.03016450241932
125,62.75058054,-0.0551488723501,-0.002138027068720001,0.0166521741195
126,63.25058054,-0.030555456294648,-0.034330600659546,0.007000510264099999
127,63.75058054,0.0173607771095,0.02037844983234,0.012302816696204
128,64.25058054,0.01758068881278,0.00924849271794,-0.00151494456522
129,64.75058054,-0.032632396036172004,-0.005595521750019999,-0.007061597413400003
130,65.25058054,0.20780398059180002,0.5603218279268,-0.081391620986664
131,65.75058054,-0.2206199255572,0.22212265803859998,0.03777587983628
132,66.25038054,-0.23842052686860002,-0.6571561136174,0.32440584775526
133,66.75058054,0.10912488610119998,-0.13628393330468,-0.03105636604302
134,67.25058054,0.078997032463568,0.02575406035496,0.0357355893014
135,67.75058054,0.0345382945236,-0.0747942835054,0.0077946346144400006
136,68.25058054,-0.13456129223531998,0.8134641929272,0.13694366579076
137,68.75058054,0.04345691859879999,-0.4777206907046,-0.10020625808386
138,69.25058054,0.16606970179206001,0.08985823910292,-0.08117170996354
139,69.75058054,0.0748309353708,-0.339909598751,0.07560062403252
140,70.25058054,-0.1328386571464,-0.139875819139,0.03880213027348
141,70.75058054,-0.03193601000784,-0.132032315505,-0.046169160785492
142,71.25058054,-0.01771507776046,0.02915046678002,0.018472551023420002
143,71.75018054,-0.040317075688352,-0.008124501205106001,0.017922772538388
144,72.25058054,-0.58453650548024,0.44207062542495995,0.06602226634276
145,72.75058054,0.0542692248078,-0.2686338966292,-0.05865523654344
146,73.25058054,0.23300826191718801,-0.04267501435445999,-0.0937310905778
147,73.75058054,0.20587364766952,0.013732240986014001,-0.039449648047279996
148,74.25058054,-0.0298712861926,0.061526301068805994,-0.002076939845600001
149,74.75058054,0.00790459025942,-0.030286675365846,-0.025350888219307997
150,75.25058054,0.0547701358742,-0.012864812404400001,0.010555743271972
151,75.75058054,0.009553925381580003,-0.05608960333574,0.02221104307854
152,76.25058054,-0.0010995563972400007,0.0020891579290999995,-0.01066569927076
153,76.75058054,-0.0020525055806520005,-0.0023335035895399995,-0.0017959424231679998
154,77.25058054,-0.01276707396374,-0.004349357252425999,0.008283326437599998
155,77.75058054,-0.02046397021686,0.0073792467240359995,0.0006475167681479999
156,78.25058054,-0.00867427981462,-0.0059742575399,0.005998692182384
157,78.75058054,-0.02541197479148,-0.00480139718702,0.08878308712514
158,79.25038054,-0.017739512730868,0.0011484260117399997,0.10125694583315999
159,79.75058054,-0.041893106978228005,-0.015418226882099999,0.020476187507511998
160,80.25058054,-0.00631634181366,0.014880665654017999,-0.07123905074260001
161,80.75058054,0.0245811985041,-0.011997384358406001,-0.00277332572328
162,81.25058054,-0.01086117568166,-0.0028710643317219997,-0.007745765457
163,81.75058054,-0.00340862523742,-0.006829468149332,0.00459370325266
164,82.25058053999999,0.018496985512904,-0.01092226226444,0.008258891591964001
165,82.75058053999999,0.0440433507782,-0.01387884790326,-0.060048007514999995
166,83.25038054000001,-0.01759290569452,0.016823216091926,0.002455676487588
167,83.75058053999999,-0.0015271621001519996,0.014391974200254001,-0.005864301910028001
168,84.25058053999999,-0.01334128676614,-0.006646208711665999,-0.008772018238764
169,84.75038054000001,-0.002345720793748,-0.0016737694307859998,-0.0044715301983560005
170,85.25058053999999,-0.008356630232488,-0.0037384925085980005,-0.00780685182182
171,85.75058053999999,-0.00017104223850000034,0.004972439315134,0.001514944701968
172,86.25058053999999,-0.0031764969741840004,0.00569325987926,-0.005180133460807999
173,86.75058053999999,-0.0030909758223800006,0.0019914192465200005,-0.0017104213286999997
174,87.25058053999999,-0.017421863624948,-0.007318160152106,0.026694790819228
175,87.75058053999999,-0.018814635150012,0.007611375181806001,-0.00149051008752
176,88.25038054000001,0.0176662095622,0.010274745656256,0.012522727818472
177,88.75058053999999,0.020500622164428002,-0.004544834020682,-0.01847255098134
178,89.25058053999999,0.002284634316804,-0.007831286539276,-0.00024434595316
179,89.75058053999999,-0.002138026783712,0.000623081911506,0.001832594213928
180,90.25058053999999,0.004386009390392,-0.0034330601031039997,-0.0024923282752280004
181,90.75058053999999,-0.0032131486458199998,-0.0013805543489859998,0.00663399147608
182,91.25038054000001,0.00039095345694800004,-0.002614501218198,0.004654789683076
183,91.75058053999999,-0.01021365919078,-0.0006108647395399999,0.001099556587932
184,92.25038054000001,0.00890640843122,0.011691952058885999,0.014685189313860002
185,92.75058053999999,0.03307221918074,0.012925898623726,0.02318842689478
186,93.25058053999999,-0.02197891450772,-1.221725751800004e-05,0.091812976007
187,93.75058053999999,-0.04823388349172,0.003824013434124,0.1511157291312
188,94.25058053999999,-0.027696609385648,0.0023823727423799997,0.107365593288052
189,94.75058053999999,-0.017617340211320002,0.006853902723939999,-0.0926315353776
190,95.25058053999999,0.01980423613618,0.0010506874389,-0.1176159042496
191,95.75058053999999,0.009798270950159999,0.0006475166932860001,0.017201951969588
192,96.25058053999999,0.003885100032016,0.005888736439282,-0.0659733963398
193,96.75058053999999,0.010140355206692,-0.0011728601754659998,-0.046474592610999996
194,97.25058053999999,0.0040072728340399995,0.001478292720068,0.00305432389008
195,97.75058053999999,-0.0038728826730800004,0.001466075435758,-0.0028466298512920003
196,98.25058053999999,-0.007208204421420001,-0.011911863065118,0.00500909119126
197,98.75058053999999,0.0019058978298799997,0.01158199653332,-0.012803725778524
198,99.25058053999999,0.0025045456376599994,0.000842993460242,0.02179565530204
199,99.75038054000001,0.04255284027555199,0.01854585477136,-0.09188627859202
200,100.2505805,0.17473176051119998,0.05573530206892,-0.10197776623037999
201,100.75038049999999,0.05765341743284,0.019120067218566003,-0.00419053229568
202,101.2505805,0.05403709878202,-0.008613193517699999,-0.13173909844032
203,101.7505805,-0.09450077991232,0.021856741846266,0.06519148884372
204,102.25038049999999,0.04020712035714,-0.030103416190460003,0.012522728071632001
205,102.7505805,-0.02938259627528,-0.012974767947946,0.0169942582301
206,103.2505805,-0.01839924710258,-0.009382882980174,0.008796452862192
207,103.7505805,0.019987495834,0.0025045455513400005,-0.0015760313285599998
208,104.25038049999999,0.00615751690218,0.003848448033526,-0.028173083582228
209,104.7505805,-0.01457523384412,-0.007843503857956,0.01237612058392
210,105.2505805,-0.00944396960302,-0.001893680867758,0.00108733945758
211,105.7505805,-0.000549778348,-0.006743947044488,0.005326740774799999
212,106.2505805,0.0029810201409800007,-0.0013439024484579998,0.018093814856212
213,106.7505805,-0.030335545109052005,0.006780598774454001,0.041416631747619996
214,107.2505805,-0.037690356958039996,-0.03748266311874,0.013622284654320001
215,107.7505805,0.02531423624226,-0.00992044396246,-0.03514915917138
216,108.2505805,0.021807872610080003,-0.005400044769754001,-0.046792242085952
217,108.7505805,0.01693317160024,-0.026633704280845997,-0.0891007360788
218,109.2505805,0.027904303617036,0.01695760635674,-0.024911065490779996
219,109.7505805,-0.010922262353608,-0.01017700719876,0.014440843787320001
220,110.2505805,-0.00992044394292,-0.03744601148414,0.021343615297872
221,110.7505805,0.011020001711799999,0.0071471177346660005,0.02979798389578
222,111.2505805,-0.04331031261314,-0.05770228648086,0.021649047681488
223,111.7505805,0.01475849311558,0.009810488144588,-0.027073527047580002
224,112.2505805,-0.0035430162818599984,-0.0329378293548,-0.04172206447862
225,112.7505805,-0.02623053365438,-0.047366454732886004,-0.05723802982814
226,113.2505805,-0.0164566967053,-0.026853615676767997,-0.027012440767
227,113.7505805,-0.017507385160368,-0.055490956982565995,-0.062063861823220004
228,114.2505805,-0.02911381559414,0.0003054317542999985,-0.0719476534262
229,114.7505805,0.013035854823380003,-0.06245481358499999,-0.10971131318248001
230,115.2505805,-0.023286165363431997,-0.0854355479602,-0.16416380124392
231,115.7505805,-0.02098931340066,0.0382645698437,0.02377485596208
232,116.2505805,0.020036365229932,0.016530001276794,-0.08109840734772
233,116.7505805,0.0248133276444,-0.009700532048985999,-0.046853328345992006
234,117.2505805,-0.00287106494074,-0.026157229905673998,-0.08476359692466799
235,117.7505805,0.051642508388344,-0.01188742816782,-0.128562602104
236,118.2505805,-0.04356687426280001,0.0499320878432,0.04602255143868
237,118.75038049999999,-0.05254658838598,-0.0801454591173,0.030054546900440002
238,119.2505805,-0.023078471684392,0.011410953979954,-0.02354272857308
239,119.75038049999999,0.01375667455228,0.00625525548982,-0.1347079015154
240,120.2505805,-0.011300998332139999,0.01969428061382,-0.051410380001840006
241,120.7505805,-0.00613308213154,-0.055796389246648,-0.13701696936578
242,121.2505805,-0.019058981073168,0.004373791743482,-0.033243261124428
243,121.75038049999999,-0.01457523357648,-0.04756193208749,-0.122979298532
244,122.2505805,-0.03489259631884,-0.0061819514593400016,-0.02107483452658
245,122.7505805,-0.012828160757816,-0.015515965015440001,-0.09925330863636
246,123.2505805,-0.0021991131843999995,0.0067683814700800005,-0.06422632334736
247,123.75038049999999,-0.010519091630939998,-0.006279690111085999,-0.0693820220906
248,124.2505805,-0.01872911413002,-0.02481332684594,-0.090200293881712
249,124.7505805,-0.02274860471528,-0.006609556838386,-0.05211898302186
250,125.2505805,-0.02223547865902,-0.026597052563800003,-0.09946100386962
251,125.7505805,-0.00564439054594,-0.0024068074328739996,-0.054574659346359994
252,126.2505805,-0.00522900247724,-0.037665922273214,-0.11038326554139999
253,126.7505805,-0.027281221157064,-0.008161153073986,-0.05852084619696
254,127.2505805,-0.029297075509640003,-0.0043127053938140005,-0.09694424044762
255,127.7505805,-0.00667064365178,0.00045204006031199977,-0.049150179603159996
256,128.25058049999998,-0.00608421327614,0.0034330595735,-0.07830064729536
257,128.75058049999998,-0.018777983289760002,-0.014159845605094,-0.0732426871678
258,129.25058049999998,-0.003017673095240001,0.0129258985853,-0.057482375746432
259,129.75058049999998,-0.0215390917251,-0.01795942450782,-0.09618676857102
260,130.25058049999998,-0.010751220145980001,0.02757443670502,-0.042088582905400004
261,130.75058049999998,-0.03921751876198,-0.03947408214546,-0.10910044965704
262,131.25058049999998,-0.0640186284484,0.058313151967456005,-0.04772075678204
263,131.75058049999998,-0.02467893698954,-0.06834355238928,-0.10316284448219999
264,132.25058049999998,-0.01598022287734,-0.001062905044980001,-0.06304124518885999
265,132.75058049999998,-0.025473060758879996,-0.005412261895966001,-0.0620027747382
266,133.25058049999998,-0.00829554391058,-0.005057960207959999,-0.048527097287980006
267,133.75058049999998,-0.02484997963494,-0.017702861280672,-0.08681610237739999
268,134.25058049999998,0.00040317056919599964,0.00387288278854,-0.06951641268536
269,134.75058049999998,-0.0185336371686,0.004740310885166,-0.05886293038964
270,135.25058049999998,-0.02142913622212,-0.0381912662089,-0.10548412941522001
271,135.75058049999998,-0.019718715418648,0.028429647138902,-0.024849979382776
272,136.25058049999998,0.0017715080673000006,-0.034904813299268,-0.1191552832768
273,136.7503805,-0.01055574374076,0.02403142042352,-0.039315257269476
274,137.25058049999998,0.0019303329321600016,-0.016676608602206,-0.180376150986
275,137.75058049999998,-0.012498293851639999,0.037470445007612,-0.08748805384492
276,138.25058049999998,0.0019792021966280006,0.026364923644678,-0.024483460538180003
277,138.75058049999998,-0.018044945816248,-0.021087051975126,-0.040329292800680004
278,139.25058049999998,-0.048111709474779996,0.007452550376894001,-0.0209893137743
279,139.75058049999998,-0.016151264721980002,-0.03406182007242,-0.047464193102248003
280,140.25058049999998,0.038948738294028,0.067268429577856,-0.092277233519
281,140.75058049999998,0.017299690598412,-0.0499443042154,-0.09910670227339999
282,141.25058049999998,-0.052265591029980005,0.04361574522276,0.0187046802294
283,141.75058049999998,-0.006524035456287999,0.031972662257380005,0.140584419883
284,142.25058049999998,0.023371686388019997,0.012376120383936,-0.066510956911692
285,142.75058049999998,0.045741554750399996,0.025521930521859998,-0.10635155797
286,143.25058049999998,0.04065915982572,-0.03148397055958,-0.06338332964764799
287,143.75058049999998,-0.012486075916092,-0.008356629847793999,0.005949822929539999
288,144.2503805,-0.01547931364434,-0.004960222049594,-0.0048869181192399995
289,144.75058049999998,-0.007831286551692001,0.01145982313466,0.0459370314322
290,145.25058049999998,-0.01209512256936,0.01562592111848,0.01389106540454
291,145.75058049999998,-0.011056652339608,-0.0131824619544,0.0041416632996
292,146.25058049999998,0.01875354881028,0.0262060986509,0.00449596476792
293,146.75058049999998,-0.0166521739683,-0.00516791592516,0.038154614168680004
294,147.25058049999998,0.0015393793310800002,0.03595550101888,0.01762955782342
295,147.75058049999998,-0.0036651885504000005,-0.01328020042478,0.020378449210860003
296,148.25058049999998,0.022333216267668,0.010103703236691998,-0.00917518872326
297,148.75058049999998,-0.0116186480361,-0.05422035792006,-0.067488341108408
298,149.25058049999998,0.03246135445788,0.01744629836554,0.028295256756752
299,149.75058049999998,0.004966330525452,-0.005681042249406,0.047445867498279996
300,150.25058049999998,-0.046657851972859994,-0.02516152026106,-0.0032375837207400003
301,150.75058049999998,0.018093814841447998,0.0032131487819139996,0.03233918131994
302,151.25058049999998,-0.00197920175712,-0.025082107730654,0.000500909232928
303,151.7501805,0.0010506874092799997,0.0010262528777860004,0.022223260719367997
304,152.25058049999998,0.009346231249128,0.004642572496934,0.00031764962464799986
305,152.75058049999998,0.016664391160787998,0.016859867682074,0.02647487958668
306,153.25058049999998,0.01258381422062,0.028221952946174002,0.019608759361892
307,153.75058049999998,0.004312704996132,0.019877539665586,-0.0340740377385
308,154.25058049999998,-0.009211840669880001,-0.01687208512858,0.01717751734834
309,154.75058049999998,-0.012632683703552002,-0.019388848205272,0.03804465814678
310,155.25058049999998,7.330375882799993e-05,0.029504768465822,0.0470976741752
311,155.75058049999998,-0.018264856993432,-0.0325713100476,0.016444479798359998
312,156.25058049999998,0.0163345241505,0.008662062407674,0.024080289797420003
313,156.75058049999998,0.006340776372312,-0.006731729795886,0.024507895339679998
314,157.2503805,0.02780656473682,0.067036300735434,0.06339554610846
315,157.75058049999998,-0.00287106424998,-0.07059153400479999,-0.011875211656347999
316,158.25058049999998,-0.016126830008199998,0.032217008162646,0.013072506820108
317,158.75058049999998,0.0288572524793,-0.05327962599362,-0.16997923297358
318,159.2503805,-0.03854556768564,0.0405736383008,0.18108475500948
319,159.7503805,0.01273042246458,0.0018570287990660002,-0.03425729731032
320,160.25058049999998,0.00933401389112,-0.01623678585966,-0.035833327581188
321,160.75058049999998,-0.011899645825152,0.07867938402836,0.12895355479758
322,161.25058049999998,0.013426807632,-0.0089674951418,-0.035992153289739995
323,161.75058049999998,0.05364614494558,0.059522664129300004,0.08938173464100001
324,162.2503805,-0.0385577843036,0.006157516978960001,0.20766958942432
325,162.75058049999998,-0.0674639057628,-0.02124587696532,0.166485086092
326,163.25058049999998,-0.07232638945452,-0.010250310863826,0.046364636585919994
327,163.75058049999998,0.02250425893756,-0.0084665856941,0.03271791770464
328,164.25058049999998,0.00828332646742,0.0061575169306199995,0.0069149892796399985
329,164.75058049999998,0.03318217446718,-0.0014660755035,-0.09279036026038
330,165.25058049999998,0.048808095753708,0.009211840480606,-0.03596771799978
331,165.75058049999998,-0.01870467956694,-0.026548183396686,0.044434304515100005
332,166.25058049999998,0.13206896470742,0.13322960997743402,-0.06901550207182
333,166.75058049999998,0.10945474992142,0.020977096128319998,-0.16821994529280002
334,167.25058049999998,-0.016077960514520002,-0.1361495422153,0.04984656619994
335,167.7503805,0.004605920544172001,0.0021868961592940005,0.00455705109546
336,168.2503805,-0.01617569949562,-0.010323614974186,0.01649334899304
337,168.75058049999998,0.00566882582502,0.0031642796076460002,0.01676212933764
338,169.25058049999998,-0.027488915005579997,-0.04017046784812,0.02731787218092
339,169.75058049999998,-0.07155669974454,0.0109833482717,0.032094835160332
340,170.25058049999998,0.055564260656339994,0.013646719424379998,-0.0723263911228
341,170.75058049999998,-0.012266164929160002,0.033377650927986,0.0732915561436
342,171.25058049999998,-0.041807585451799995,-0.048600402674214005,-0.10217324323542
343,171.7503805,0.02651153171124,0.0589973201969,0.110224439876
344,172.25058049999998,0.0481605799492,-0.05006647628738001,-0.1393138228346
345,172.7503805,-0.0681602913776,0.01215620914032,0.04701215251378
346,173.25058049999998,-0.02160017852062,-0.023897030480180003,-0.00960279381318
347,173.7503805,0.02924820537574,0.0450818210872,0.020769402810579998
348,174.25058049999998,-0.01794720766602,-0.03430616640402,-0.066022265919
349,174.75058049999998,0.0021013747542680005,0.023029601989326,0.07413455039436
350,175.25058049999998,0.011765255647772,-0.0029932377128000006,-0.04296822923332
351,175.75058049999998,-0.004288270801596,-0.007574723080314,0.00941953518248
352,176.25058049999998,-0.002015853502739999,-0.008979712040186,0.007183769370439999
353,176.75058049999998,0.0020280711824799996,-0.005314523144519999,0.01681099855808
354,177.25058049999998,-0.007147117946928,-0.01251051090666,0.0003176499441800003
355,177.75058049999998,0.007929024612859999,0.006010910063025999,0.01042135288464
356,178.25058049999998,0.007354811696808,0.009627228935808,0.0069760757104799995
357,178.75058049999998,-0.006536252961272,-0.002199113044026,-0.0010873392273200002
358,179.25058049999998,0.0007452551231600002,0.0028832818713140007,0.013182461935156
359,179.75058049999998,0.005632173342208,-0.017666209228679997,-0.032351398489495996
360,180.25058049999998,-0.008478803116452,-0.0005253434991799999,0.0206472291219
361,180.75058049999998,0.001099556545512,0.0147707104499,0.01285259472766
362,181.2503805,-0.00122172933738,-0.022980732960153998,-0.01975536686778
363,181.75058049999998,-0.01307250616628,0.01376889226988,0.01337793849324
364,182.25058049999998,0.00834441308824,-0.0008429933767739997,-0.00199141888926
365,182.75058049999998,0.002553414728176,0.0037384926992599997,-0.0009407317213399997
366,183.25058049999998,0.009590577450576001,-0.012632683687519998,-0.01700647551034
367,183.75058049999998,-0.007318160176952,0.0006597337828339997,0.0008185588243200001
368,184.25058049999998,-0.0018570290679680002,1.221732692000016e-05,-0.0064996010846999994
369,184.75058049999998,-0.00620638616606,-0.0055466520454599995,-0.0119607322236
370,185.25058049999998,0.0077457655511599995,0.017238603963793998,0.01880241812106
371,185.75058049999998,0.012302816732252,-0.0008918622331940005,-0.020659446728752
372,186.25058049999998,-0.00204028840662,-0.0030298893398000002,0.0046547896325
373,186.75058049999998,-0.024898848509792,0.006365210814294,0.014147628079612
374,187.25058049999998,-0.027183482395959996,-0.030836454040834,-0.03838674307268
375,187.75538442156864,0.01376242412017647,0.0700637950517647,0.08824001525064705
376,188.2555805,-0.008938572385163266,-0.016412315806014287,-0.030530772115163266
377,188.75058049999998,0.010714568020968,-0.012999202558580001,-0.03277900372906
378,189.25058049999998,0.00047647487417199955,0.09560033794627999,0.11452492783386001
379,189.75058049999998,0.02836856061846,-0.150883600926,-0.18455446734199998
380,190.25058049999998,-0.010580177509760001,0.0754906694608,0.11886206954422
381,190.75058049999998,-0.01340237314798,-0.007208204257940001,-0.031044148699680002
382,191.25058049999998,0.00013439029500400003,-0.010592394670059999,0.004483747744400001
383,191.75058049999998,-0.00014660772836000023,-0.0038728825259460005,0.006181951331839999
384,192.25058049999998,-0.0033475390085520003,-0.020280710666346,-0.028673992710760002
385,192.75058049999998,0.007953459661468001,0.016554435426974,0.02691470225188
386,193.25058049999998,-0.006071995734368,-0.025130977387901998,-0.032461354400272
387,193.75058049999998,0.0012583814815880002,0.009566142581186,0.0283074738271
388,194.25058049999998,0.00427605338616,0.0008063415083319998,-0.014257584139848001
389,194.75058049999998,0.004801397159108,0.0018692461401,-0.0006719512551520002
390,195.25058049999998,-0.0024434591458,0.0006475166581459998,0.0021991132767600003
391,195.75058049999998,0.005534435004179999,-0.007709113417566,-0.010592395436820001
392,196.25058049999998,0.006487383954788,0.006878337345154,0.01003039966804
393,196.75058049999998,0.00268780503222,-0.00172263872768,-0.00867427985818
394,197.25058049999998,-0.008503237836700001,-0.0036407540203419997,-0.002626718531136
395,197.75058049999998,-0.0010995565729920002,0.001710421343356,0.005778780787448
396,198.25058049999998,-0.0028710645641280004,0.001905898173884,0.001637117640312
397,198.75058049999998,-0.008356630146839999,0.0007086030187519999,0.0125227279355
398,199.25058049999998,0.00987157463616,0.006010909519088,-0.009358448218899999
399,199.7503805,0.0006719511829079999,0.0024923281641479997,0.003567450394032
400,200.25058049999998,0.0014660756188839999,-0.0018570289065480002,-0.00520456788786
401,200.75058049999998,-0.0015027274174000001,-0.00102625283978,0.002150244061296
402,201.25058049999998,0.005473348252447999,0.005375610091566,-0.0021013749796240004
403,201.75058049999998,0.0023335035161200003,0.00401949034804,0.007122683405404
404,202.25058049999998,-0.011936297910119999,-0.0033353217230000006,0.00288328150272
405,202.75058049999998,0.0037262752211400002,0.006768381688393999,0.00682946826998
406,203.25058049999998,-0.004825831716916,0.0002443459259319999,0.00268780497846
407,203.75058049999998,-0.02086714083912,-0.00026878052608,0.021820089899667997
408,204.25058049999998,0.012229512762379999,-0.004312705245678,-0.02073275055766
409,204.75058049999998,0.007367029327948,0.003933969013134,0.004630354820259999
410,205.25058049999998,0.00032986707638799995,0.004312705441488,0.0026022840752799995
411,205.75058049999998,-0.004642572475992,0.0010384702582820003,0.0054855657831399994
412,206.25058049999998,-0.0239947689658,0.0008552107896059994,-0.00331088725564
413,206.75058049999998,0.005131264262028,0.021013748479846002,-0.01093447974908
414,207.25058049999998,0.0123883377518,-0.007318160016222001,-0.0023457208791400003
415,207.75058049999998,0.014819579579292,0.008662062481174,0.00912631982234
416,208.25058049999998,0.0009040799299000004,0.002419024634534,0.00030543233046000014
417,208.75058049999998,-0.0012705988681080002,-0.00265115306837,0.009004146690816
418,209.25058049999998,-0.00430048786548,0.001771507882866,-9.773834213199994e-05
419,209.75058049999998,0.048065896794012,0.002168570142540001,-0.021303909008927997
420,210.25058049999998,0.00507628601964,0.025473060966906002,0.006774490413859999
421,210.75058049999998,0.10153794310900001,-0.006536253439346,-0.023469425011420002
422,211.25518834313726,-0.014564935118627451,0.24837641936549018,0.042365269010352945
423,211.75537641836735,-0.11526644450571429,0.45263210085577554,-0.010048102199857143
424,212.25058049999998,-0.2513097693816,-0.22440728820817998,0.011972949355
425,212.75058049999998,0.03874104200376,-0.3863964100182,-0.01792277124572
426,213.25058049999998,0.029614723209799996,0.0762114899396,-0.0780318678536
427,213.75058049999998,0.19708940957079998,-0.068612333437,0.09655328580354
428,214.25058049999998,-0.01029917994546,-0.00471587636364,0.005534434682628
429,214.7503805,-0.03136179774396,-0.007000510439398,0.007415898433419999
430,215.25058049999998,0.03396408190092,0.01320689650614,-0.006059778591372
431,215.75058049999998,-0.045350601257948,-0.00491135260783,-0.02500880405194
432,216.25058049999998,-0.020121885888652002,-0.010592395382668,-0.019425500057384
433,216.75058049999998,0.020964880640012003,-0.048588184264,-0.10100038347004
434,217.25058049999998,0.011679734771720001,-0.005790997933048,0.00568104238266
435,217.75058049999998,-0.04872257560919999,0.019694280387754,0.039816166736035996
436,218.25058049999998,0.004068359507388,-0.005571086794254,0.0038484481623400004
437,218.75058049999998,0.0024678937208040003,-0.012351685776020001,-0.0120584707336
438,219.25058049999998,-0.0005986474647519999,0.000439822585234,0.004422660993624
439,219.75058049999998,-0.00645073218838,-0.00417831507534,0.020708315802751998
440,220.25058049999998,0.0032498005636720003,-0.0023579380473,-0.00685390284316
441,220.7503805,-0.005888736327300001,-0.003616319483154,0.06665756505344
442,221.25058049999998,0.0024434588508800005,-0.009199623859040001,-0.0040439251106
443,221.75058049999998,0.062027210165792,-0.0331088708454,0.10064608086414001
444,222.2503805,-0.1164552618918,-0.048954704534340004,0.149209829702
445,222.75058049999998,0.0036041022531400034,0.07249743234459999,0.305603431166
446,223.2503805,-0.076736833337,-0.0856432420206,0.70289766968
447,223.75058049999998,0.06890554802019999,0.265359659689,0.306165428154
448,224.25058049999998,-0.02704909312672001,0.2894766041022,0.8271353460349999
449,224.75058049999998,0.1374934442812,-0.15687007717728002,0.8637139249119999
450,225.2501805,-0.229257553455396,0.15585604030303998,1.4466255343860002
451,225.75058049999998,-0.18267300230532002,-0.06768381821200001,0.68238482404374
452,226.25058049999998,0.10020625809231999,0.09269262440288,0.09652885081537999
453,226.75058049999998,0.06697215833556,0.1015623797058,0.20197633308602
454,227.25058049999998,-0.08060666114656,-0.2445047314544,-0.838133963352
455,227.75058049999998,0.11544122631326001,0.025143194018600004,0.37417911041319996
456,228.25058049999998,0.061898925513480016,0.03231780253514,0.1055696528392
457,228.75058049999998,-0.07384133448968,0.03700618945444,0.3366689624964
458,229.25058049999998,-0.179020030542812,-0.038484481173565996,0.5946035570852
459,229.75058049999998,0.36969536464599995,0.3680338024656,0.217186859092
460,230.25058049999998,0.20356457790354,-0.4750817555222,0.0317038810612
461,230.75058049999998,-0.188280743287,-0.160584134823594,-0.2386037832512
462,231.25058049999998,-0.007159334735480002,0.1657031806022,0.30775367295618
463,231.75058049999998,-0.2005713390912,-0.13887399846794002,0.038533349113
464,232.25058049999998,-0.5551294842748,0.6255866198338,0.31151660350585997
465,232.75058049999998,0.24140460360360003,-0.1571419133048,0.10665393586420001
466,233.25058049999998,-0.26592165878220003,-0.09267734739568001,-0.328901808552
467,233.75058049999998,-0.061013174167800006,-0.1280861294102,0.15566056228912
468,234.25058049999998,0.19441382650932,0.1462165960994,-0.014917320764000009
469,234.75058049999998,0.0657901370924,-0.015357137938600001,0.09882570269560001
470,235.25058049999998,0.0358699772086,0.024727806863600002,-0.3113822130888
471,235.75058049999998,-0.006976076159399999,-0.0657290499282,0.15415783675354
472,236.25058049999998,-0.07920472607792,-0.07720108691518,-0.38028775924858005
473,236.75058049999998,0.18405355941919999,-0.03456272829932,0.4551919988484
474,237.25058049999998,-0.23365578065318002,0.07424450881200001,-0.36967093303348003
475,237.75058049999998,0.29607393645612,0.0997297846122,0.52205725970074
476,238.25058049999998,-0.42770308549936,0.012339462927600004,-0.568128676732
477,238.75058049999998,0.25903110130556,-0.007929023695599988,0.187914221676
478,239.25058049999998,0.04101346172939999,-0.17803042407119998,-0.5290211164172
479,239.75058049999998,0.0900781214,0.08450703470960001,0.9058391653058
480,240.25058049999998,-0.5483366600996,-0.1402423395044,-0.42241299966
481,240.75058049999998,0.24757127859580003,-0.029529205609779997,0.48749452769
482,241.25058049999998,-0.17934989797819997,0.1229915149408,-0.20071794882285998
483,241.75058049999998,0.23203087806279998,-0.14852566364400002,0.13123818994
484,242.25058049999998,-0.1220385659566,-0.07558840789440001,-0.43017097652686
485,242.75058049999998,-0.064641710087,0.081037321636806,0.482509872152
486,243.25058049999998,-0.01758068973222,-0.078777119639,-0.290099683851
487,243.75058049999998,0.18024176300722,0.09208175547119399,0.391063419368
488,244.25058049999998,-0.12747526295804001,0.015088359340166,-0.4604943041492
489,244.75058049999998,-0.11325432665459999,-0.16398054149332,0.1874866138338
490,245.25058049999998,0.1074388967092,-0.05616290541195999,-0.0703227542696
491,245.75058049999998,0.1747317609972,-0.009211837456299997,0.2389825254502
492,246.25058049999998,-0.0730594291892,-0.1506270400882,-0.0411356349256
493,246.75058049999998,0.07100692192182,0.4649291850614,-0.0371405777432
494,247.2503805,0.41529031232720004,-0.17985080830240002,0.044373217592
495,247.7503805,-0.0751730210442,-0.08260113567263999,-0.3117853844086
496,248.25058049999998,-0.2777113452474,0.16176921242746,0.27945841928459997
497,248.75058049999998,-0.2031614077842,0.30093642274032,0.04407999791300001
498,249.25058049999998,0.11436610139219999,-0.251676287629,0.4222175186514
499,249.75058049999998,0.09219171267922001,-0.647211233703,-0.43339634330119997
500,250.25058049999998,-0.13602736626405998,0.9172012499291999,0.494580567577
501,250.75058049999998,0.2087202782556,-0.2047618755148,-0.6578280663363999
502,251.2503805,-0.13321739427446,-0.0764680563462,0.5140060566548
503,251.75058049999998,-0.022443173479739998,0.04764744481420003,-0.2305159288678
504,252.25058049999998,-0.055759736728388,0.17704083025300002,0.21867737545374
505,252.75058049999998,-0.19953286865196002,-0.3287674226624,-0.41592560893132
506,253.2503805,0.20956327233104002,0.10381035618339998,0.3781008626938
507,253.7503805,-0.23016163187448002,0.022870773587634004,-0.28484624561
508,254.25058049999998,0.158934800499,0.013915498275440006,0.3329579558216
509,254.75058049999998,0.2186040669458,0.7354812138028001,-0.18053497816364
510,255.25058049999998,0.1099800943366,-0.9930340026022,0.5689594561768
511,255.75058049999998,0.1673525143362,-0.06646209124360002,0.22460276185932
512,256.2505805,-0.34719110835496,0.1391794313568,0.6665878649390601
513,256.7505805,-0.23317930388900002,-0.008588756460339998,0.09111659483699999
514,257.2503805,-0.22711952050019998,0.03403738689394001,0.17217834395006001
515,257.7503805,0.13187653656,-0.205775911567132,-0.06898495668280001
516,258.2505805,0.2643242484178,0.0874452966664,0.229278927712
517,258.7505805,0.2079872407446,-0.12465306551216,0.10330945331380001
518,259.2505805,-0.16694933927779998,0.2574795034021,-0.1906875483006
519,259.7505805,-0.1461432890358,-0.076138184168794,0.2931417919788
520,260.2505805,-0.0370550584808,0.0893817327144,0.14960078419076
521,260.7505805,0.1123380332972,-0.170529010334,0.32206012725206
522,261.2505805,-0.018374812794592,0.1088438875708,-0.2788597723894
523,261.7505805,-0.04764745135478,-0.1010492516656,0.27185925726926
524,262.2505805,0.021636833476599997,0.0688566786873,-0.32495562915139997
525,262.7505805,0.17355890122999998,-0.09817818939179998,0.17728517707639999
526,263.2505805,-0.1180068575196,-0.031080798131200002,-0.2681574191956
527,263.7505805,0.17034574988700002,0.0797178557996,0.3636111521074
528,264.2505805,-0.15634473126434,0.17332677056674,-0.7994143002994
529,264.7503805,0.16538553309606002,0.047684105777799995,-0.27659957189996
530,265.2505805,0.2020496358902,-0.016957599901599996,-1.232798426726
531,265.7505805,-0.025204280228459996,-0.134170345512,0.031936008892999995
532,266.2505805,0.07518523609738001,-0.081843658174,-0.28149870720006
533,266.7505805,-0.09321796658058,0.029883504548480003,0.0035918883337999995
534,267.2505805,-0.04786736386748,-0.09342565654910001,0.0473664500608
535,267.7503805,0.06769603369048,-0.1541822731454,0.08542334139600001
536,268.2505805,0.0027366738407800027,-0.18624046112000003,0.07718887694380001
537,268.7505805,0.027427828064999996,0.2236742441806,-0.0035796684180000016
538,269.2505805,-0.1398758168628,-0.1437609263062,-0.049907651618199995
539,269.7505805,-0.086241886076,0.134940031852434,-0.1939006955976
540,270.2505805,0.07749430821792,0.5468828018659999,0.17710192374039999
541,270.7505805,0.15546508512076002,-0.165312218666,-0.2267774461558
542,271.2505805,-0.023982550080600004,-0.1211589199614,0.247204758733
543,271.7505805,-0.18362595244116,0.05607738888891999,-0.28490732988272
544,272.2505805,0.30177941935874,-0.02798982536450001,0.30240249551840004
545,272.7505805,-0.3606789988512,0.03805687827136,-0.4805551056266
546,273.2505805,0.22870777145406,-0.35326309734600003,0.30067985120179996
547,273.7505805,-0.1106520473644,-0.0478307119306,-0.5142015354466
548,274.2505805,0.17877568692118,0.07544179582867999,0.5653675668094
549,274.7505805,-0.30673963625671996,-0.08758579535867402,-0.406506080326
550,275.2505805,0.104641133996,0.08156266337380001,0.4863583166938
551,275.7503805,-0.08299208904540001,0.06309011304300001,-0.5661861281864
552,276.2503805,0.01919337364506,0.0917885436928,0.42448993824940007
553,276.7505805,0.14445729954779998,0.0023457204144000017,-0.09680984971659999
554,277.2505805,-0.09094554961686001,-0.144579477192,0.2143890949606
555,277.7505805,-0.04451982152363999,0.1114461762676,-0.12515397299194
556,278.2505805,-0.025864012830600004,-0.012180643675599997,0.039571818683200005
557,278.7505805,-0.0783250797792,-0.057751156957000005,-0.09381661854320003
558,279.2505805,0.0040805772673999955,-0.117273819978,0.310184919532
559,279.7505805,-0.01803272679,0.08299208489596001,-0.236502406888
560,280.2505805,0.08499572503118,-0.044251047518,0.05975479391800001
561,280.7505805,-0.016334524441919997,-0.03855778365246001,-0.035698937111960004
562,281.2505805,0.030885320638000008,0.015027275736,-0.05628507817779999
563,281.7505805,-0.1355753287402,0.1479636619668,-0.08616858859496
564,282.2505805,-0.014489713310040004,0.0102503137276,-0.146937409644
565,282.7505805,0.12394446541160001,0.1084285008606,0.32931720334299996
566,283.2505805,-0.10897827527324001,0.2929463155318,-0.366384475544
567,283.7505805,-0.1315069597034,-0.174475202154,0.49824574709937997
568,284.2503805,-0.032388049104219996,-0.1422215422128,-0.84647531464028
569,284.7505805,0.37596283887765997,-0.0693698041862,0.59773119005
570,285.2501805,-0.12933229136559998,0.030237806997200002,-0.4133233275162
571,285.7505805,0.15754202495878,0.23359469124,0.42136230690256
572,286.2505805,-0.0966754607022,-0.05120268795979999,-0.38827787115539997
573,286.7505805,-0.013964370297999993,0.17051679200390002,0.36192516381968
574,287.2505805,-0.011129956002179999,-0.027171263833799992,-0.2502713042158
575,287.7505805,0.003420844304399998,-0.0293459439088,0.30548125922339997
576,288.2505805,-0.023102906721,-0.05407375316467399,-0.1818422287694
577,288.7505805,0.15236189235186,-0.1630275939592,0.3398118645724
578,289.2505805,0.4424982288214,0.07103135272519999,0.4449172502848
579,289.7505805,-0.29895722206614,0.925118049819,0.03784917937599999
580,290.2505805,0.04470308163679999,0.0602923543228,-0.19793240432960002
581,290.7505805,0.011068870483339995,-0.14380978997526,-0.304968131749308
582,291.2505805,-0.2524704115998,-0.008613195978800012,0.10592395756800001
583,291.7505805,0.4256750150936,0.0027611102417999913,-0.27548779693930003
584,292.2505805,-0.37241983667847994,-0.2008767787148,0.184908767336
585,292.7505805,0.33116201640459997,-0.41381201153020003,-0.52077443513084
586,293.2505805,-0.230247157874,-0.043237008929199995,0.130370767565
587,293.7505805,-0.3358503968972,-0.25698471297279996,0.145107867114
588,294.2505805,-0.04635241932143999,-0.1668271693078,0.0442021796308
589,294.7505805,0.14746275543894,-0.003445277295139998,0.0223332145234
590,295.2503805,0.042149669660579994,0.11478148935898598,0.0343183853152
591,295.7505805,0.06361546176254,-0.05215563625380001,0.1539867957494
592,296.2505805,0.0279653898654,-0.02754999949110001,-0.32882851067858
593,296.7505805,-0.1605719171135,-0.05065290753456,0.20109669119860002
594,297.2505805,-0.16019317659238003,0.0743544604804,-0.2671556122622
595,297.7505805,-0.08473916430199999,0.3679971589936,0.4704147446743
596,298.2505805,0.09186184534472,-0.17870238258819998,-0.1896857321218
597,298.7505805,0.049284574832,-0.2926775350594,-0.107243419581
598,299.2505805,-0.1369192323756,0.3462259375042,0.08037758750717999
599,299.7505805,0.43681718459721997,0.19773693109496002,-0.23563498218780002
600,300.2505805,-0.1922391433662,-0.0884287828478,0.12929563427752
601,300.7505805,-0.11825120752360002,0.009260706860400007,0.020842705085600002
602,301.2505805,0.18653366910788002,-0.006890545477599974,-0.26009400411879996
603,301.7503805,-0.12245395393559999,-0.28619014467820003,0.49068324498960003
604,302.2505805,-0.041050115479200004,0.1183489436738,-0.1460333342192
605,302.7505805,-0.1481102742602,-0.11292446294404,0.2663981364304
606,303.2505805,0.029614728038800005,0.09112880581440001,-0.27319094410120004
607,303.7505805,0.1218522567676,-0.2104154138436,0.1588462208924
608,304.2505805,-0.11259765117300001,0.032601857490599996,-0.3021642614145
609,304.7505805,0.0222599146374,-0.09327905369484,0.255830169474
610,305.2505805,0.16442036411906,0.039620691100480006,-0.25245819503
611,305.7505805,0.008234457179999998,-0.030677629853199998,0.41277354857202
612,306.2505805,0.16762130072040002,0.026120578911359996,-0.15649134259768
613,306.7505805,-0.20091648168047999,0.07190794859558,-0.122621941348
614,307.2505805,-0.0581207290594,0.11030080015940001,-0.404523816704
615,307.7503805,-0.027403393878199997,-0.11627200019702,-0.213204022346
616,308.2505805,0.1542311397554,-0.012730417867999997,0.6533198797900001
617,308.7505805,0.2898431246964,-0.0851789856504,-0.10203885255860001
618,309.2505805,0.1588248391366,-0.26355149868440003,0.10478773680600001
619,309.7505805,0.36034913004979996,-0.037727007078800015,1.229096589026
620,310.2503805,-0.02833190822616,0.43304204284919995,0.72718565404
621,310.7505805,0.25177402562986,0.2568075550632,0.08082962603668
622,311.2505805,-0.14037672471694,-0.02758665860320001,0.5868700099702
623,311.7505805,0.0023701535472399906,0.04549720608440001,-0.5344578097611999
624,312.2505805,-0.023787071358640003,-0.46860658718686,0.711730766884
625,312.7505805,0.12321142657919999,-0.0600480100516,0.38054432080138
626,313.2505805,0.11375523978858,-0.0615385209444,0.13661379843840002
627,313.7505805,-0.039498516158740005,-0.1169439546636,-0.19107850538525997
628,314.2505805,0.1373590549766,0.4076178534356,0.5751414068676
629,314.7505805,-0.11164164833920001,0.34452773811980003,-0.55945440039922
630,315.2503805,0.07060374861,0.2867521474806,0.14253919066441198
631,315.7505805,-0.20963657815858,-0.44336565535920003,0.3030255802032
632,316.2505805,0.3045649595234,0.17855577265348,0.4789912880056
633,316.7505805,0.0398405984388,-0.18369925237922,0.34331821731760004
634,317.2505805,-0.016957606846799998,0.2384327407224,0.23631914776580001
635,317.7505805,0.010873393934399993,-0.2599840514366,-0.08426268661399999
636,318.2505805,0.03782474859240001,0.21463344866156,-0.08883196251342
637,318.7503805,-0.07894816995856,-0.25838358522292,-0.17880012057720002
638,319.2505805,-0.0383867401686,0.3000934327776,-0.3187858924994
639,319.7505805,0.03200931642522,-0.147804839925446,-0.12707209523239998
640,320.2505805,-0.13838530680988,0.1189842404402,-0.47693877901980003
641,320.7505805,0.25181067931584,-0.08586315514540001,0.12956441980186
642,321.2505805,0.004019488242400001,0.064739448896,-0.30983061432934
643,321.7553844215686,0.033801184426666665,-0.060757090645686275,0.09058765292627452
644,322.2555805,-0.1574410512547347,0.01726004610897958,-0.25591494332346937
645,322.7505805,0.42883928918838005,-0.13597849835722,0.20665555299382
646,323.2505805,-0.4544467472678,0.0296635949186,-0.2156597037506
647,323.7503805,0.18572732689221202,0.034978116523439996,0.27409502624680004
648,324.2505805,-0.168073333526,-0.086046413083,-0.3134958071297
649,324.7505805,0.069736323886,-0.029920159223000002,0.3480707533592
650,325.2505805,-0.15418226980176,0.08102510665699998,-0.34838840279166
651,325.7505805,0.13641832259870001,-0.079021465668,0.3680949015966
652,326.2505805,0.1235535093792,-0.0825400494728,-0.07951015954619998
653,326.7505805,-0.0510560807428,-0.0707503522644,-0.011325434144199998
654,327.2505805,-0.12807390708508,-0.09533155878803999,0.043530224956
655,327.7505805,0.24193910357664003,-0.3726763838806,0.26520083219
656,328.2505805,-0.012803725231999998,0.288987908872,0.683264470698
657,328.7505805,-0.02428798490362,0.3311620140435,0.29677032853137997
658,329.2503805,-0.07114131022252,0.006853905174799997,-0.2093922290578
659,329.7505805,-0.098275921345,0.16555657473934,-0.83815534854258
660,330.2505805,0.36500392509633994,-0.13957038496692598,0.16121943227892
661,330.7505805,-0.16832990042919999,-0.0333532188508,-0.43168592182399995
662,331.2505805,0.12010823239456,-0.023457208218619997,0.23140780099320002
663,331.7505805,-0.20979539965532,-0.0042394011088,-0.44806931739934003
664,332.2505805,0.114598232657,0.25385096654600003,0.42099578901777995
665,332.7505805,-0.23791961451879998,-0.3086211042096,-0.45885718858542
666,333.2505805,0.2588356245506,0.012021818888387999,0.6039742291374001
667,333.7503805,-0.1499673029024,-0.0689544162608,-0.0182037711592
668,334.2505805,0.039107562144780006,-0.0348437297312,0.1600954427948
669,334.7505805,-0.06401863177696,0.1009881649108,-0.21320402838500002
670,335.2505805,0.09826370813732,0.073499247515,-0.09806823321842
671,335.7505805,-0.12013266674119999,-0.11454936668400001,-0.0362364980938
672,336.2505805,0.07353590880505999,0.056309514185800005,-0.20908679640286
673,336.7505805,0.007073812451479997,-0.09406095803219999,0.06779377286423999
674,337.2505805,-0.03236361953332,0.1654954873786,0.10085377167139999
675,337.7505805,-0.20542160735742002,-0.20037586310591998,0.20635012220500001
676,338.2505805,-0.07536849527913998,0.2081582846452,-0.469608410398
677,338.7503805,0.1683665514594,-0.016297872823760003,0.5503280740936
678,339.2505805,-0.13219113948594,0.023249514523400013,-0.2718348309034
679,339.7505805,0.27254342523356,-0.0742689372922,0.2887191326576
680,340.2505805,-0.229062072335,0.05101942424132,-0.29405808508779996
681,340.7503805,0.2348897260442,0.06795259882853999,0.20952662315719997
682,341.2505805,0.206289033312,-0.07998663664414,-0.2808756208338
683,341.7505805,0.007721331927599998,0.1848965521206,0.2897331636794
684,342.2505805,0.05313301988598001,-0.0276599534254,-0.102344287842108
685,342.7505805,-0.24401604400080001,-0.1700281029742,0.1680733363338
686,343.2505805,-0.11362084956518799,0.047036585448999996,-0.07329155296380001
687,343.7505805,0.03510029209019999,-0.022992949996799995,0.1932653947634
688,344.2505805,-0.1280616904852,0.1553062599456,-0.09424421946172
689,344.7505805,0.0575678965076,0.0731205114506,0.0833219505464
690,345.2505805,-0.006191115549999999,-0.37545887561506,-0.12873975267652
691,345.7505805,0.04954724347280001,0.1505567892741,-0.08319062127014
692,346.2505805,0.0979216228756,-0.009627229874000004,0.2748891506288
693,346.7505805,-0.1357585877888,0.02609614562834,-0.400324124702
694,347.2505805,0.03663966811878,-0.0999496972723,0.39322587341599996
695,347.7505805,0.08151379664411999,0.12592366125616,-0.39894356690164
696,348.2505805,-0.22112083053978002,-0.1012080778516,0.4494010002184
697,348.7503805,-0.05849640938566,-0.064824965373806,-0.559466616498
698,349.2505805,0.19611202910408,0.042894928374999995,0.8139406654319999
699,349.7505805,-0.24842648658308,0.12211186808860001,-0.543046575164
700,350.2505805,-0.026719229395599998,0.0073059427048000015,0.32032527378986003
701,350.7505805,-0.0767857015846,-0.027195699777799995,-0.4125536368374
702,351.2505805,0.07954681366,-0.004642571100179992,0.17616118656788
703,351.7505805,-0.0097860522532,-0.19366857302856602,-0.0566271669022
704,352.2505805,-0.0032131491803600028,0.07183770001700002,0.109088232542
705,352.7505805,-0.1555506056542,0.0362487153898,-0.17544036356026002
706,353.2505805,0.18178114143148,0.0261816632766,0.1542311412924
707,353.7505805,-0.1935219613798,0.0031154111765799995,-0.04985878213474
708,354.2503805,0.08504459344585999,0.022785254671600003,0.08497129216379999
709,354.7505805,-0.08184366648568,0.021526873459999995,0.0017348567635400026
710,355.2505805,0.07376803170219999,0.037727009851,0.09932661011800001
711,355.7505805,-0.2061546440082,-0.17563584037548,0.06114756410199999
712,356.2505805,-0.05942492791716,0.1323133093456,-0.2560745183666
713,356.7505805,0.060952086752200006,-0.08919847543659999,0.31833385500601996
714,357.2505805,-0.04057363982779999,0.31983658619980004,-0.26819407454238
715,357.7505805,0.0502986060056,-0.35383731121719997,0.16216016494119997
716,358.2503805,-0.10896605750332,0.14705958646179998,-0.38016558474656004
717,358.7505805,0.11944849737220001,-0.2082804587468,0.5666626030396
718,359.2505805,-0.21662486714461998,0.1731068613414,-0.4621436449022
719,359.7505805,0.1850431592846,-0.0796811974494,0.29483999075222
720,360.2505805,-0.22868333861139997,0.12341912090559999,-0.21722351349320002
721,360.7503805,0.15329040550764,-0.2151710100928,0.38534571640119997
722,361.2505805,0.0643484961434,0.07249743057054,-0.4154002645656
723,361.7505805,-0.158275063374,0.0592538824672,0.3619496026764
724,362.2505805,0.03541794062156,0.041966406591399996,-0.1562469950268
725,362.7505805,0.054110398485180004,-0.09794605983719999,0.09133650105159999
726,363.2505805,-0.16259998726397998,-0.3136668480878,-0.10713346354079999
727,363.7505805,0.1432478008418,0.21938597571500001,0.2130940678564
728,364.2505805,0.022479821292999996,-0.181585666325,0.0593882708214
729,364.7505805,0.0573479844904,0.207156472433,0.21873845822728
730,365.2505805,-0.12747526334362,-0.11961953997000001,-0.12861146852320002
731,365.7505805,0.13643054438699997,0.30787585125,-0.07117796267820001
732,366.2505805,0.1902232914903,-0.1889282584706,-0.257894890636
733,366.7505805,-0.0468044577562,0.1580918054144,-0.41652425925085196
734,367.2505805,-0.05108051273679999,-0.152093112608274,0.21161577482719998
735,367.7505805,-0.0727326143516,0.20884855805699998,-0.30758263600878
736,368.2505805,-0.19090746140820003,0.04602253430199999,0.2778884927092
737,368.7503805,0.11740820852977998,-0.5057105103212,-0.6773268722604
738,369.2505805,-0.18621601862159998,-0.015344924409439999,0.25595234152979995
739,369.7505805,-0.0883432641828,0.0457904233871,-0.1296377228258
740,370.2505805,0.043896742766399995,0.3834642577082,-0.06614443934964
741,370.7505805,0.026768094475299996,0.624157199533,0.11072535019222
742,371.2505805,0.024226902483800005,-0.285579282310132,0.2224402950718
743,371.7505805,-0.11011448533606,-0.35570655953613195,-0.392162971724
744,372.2505805,-0.012000439313399997,0.2232161000336,0.10823607549872
745,372.7505805,-0.00718071736954,-0.0912570911638,0.43857953292448004
746,373.2503805,0.0894947446531,0.038967064697399995,-0.32803438574879995
747,373.7505805,-0.15327819276984,-0.033438739106999994,0.14156180233848
748,374.2503805,-0.1015379471294,0.1491853962414,-0.12489741239400001
749,374.7503805,0.2087691459592,-0.21061395592340001,0.509436795673
750,375.2503805,-0.0724852173366,0.1128755924138,-0.5356551036184
751,375.7505805,-0.02787987618122001,0.22107196220039999,0.13126262260106
752,376.2505805,-0.11020000847280001,-0.4672260377512,-0.33750278889740004
753,376.7505805,0.2503201675094,-0.07060375217828,0.30089977312079996
754,377.2505805,-0.2304426298264,0.012278380143000004,-0.40916944413240003
755,377.7505805,0.1753304100366,-0.02864955573326,0.41587674393279994
756,378.2501805,-0.08757357604108,-0.026816964183800005,-0.20916010176741998
757,378.7505805,0.07296168900620001,0.039645126453199994,0.0318016158934
758,379.2505805,-0.14227040534899998,-0.1065103806216,-0.023848161065160002
759,379.7503805,0.056883730509259996,-0.013096939778799992,0.24913509303839998
760,380.2505805,-0.12894133906766,-0.027928736908366,-0.22273351259554
761,380.7505805,0.15420671001296,0.14931978939804,0.18301508942999997
762,381.2505805,-0.18369925700519998,-0.17735847992408002,-0.16771902520484003
763,381.7505805,0.13514772497826,0.15778637061620002,-0.042931579133588
764,382.2503805,-0.046596764775572,0.101904462207,0.0186435912448
765,382.7505805,-0.005106831081980001,0.0921184069674,-0.046670070221599996
766,383.2505805,0.023554943174399993,-0.10202663619284,0.1152090962616
767,383.7505805,-0.04588816238922,0.21214112026360002,-0.47096452708446
768,384.2505805,0.06360324439262001,-0.1299798078662,0.18564180652912
769,384.7505805,0.03254687903759999,-0.10392031869258,-0.04872257740302
770,385.2505805,0.197333757894,-0.12509289182774,0.1376522713886
771,385.7505805,-0.30549347591538,0.0406835935335,-0.4817035289824
772,386.2505805,0.14663198060754,0.042956010559700004,0.311235606003
773,386.7505805,-0.008271109069060003,-0.019413284584399997,-0.16709594931240002
774,387.2505805,0.0801088070342,0.0729005996101,0.10884388317017998
775,387.7505805,-0.07117796294043999,-0.0033475419882,0.06772046902891998
776,388.2505805,0.0331577400866,0.0483682639466,0.13469568371260002
777,388.7505805,-0.0637254131796,-0.1186177257498,-0.16972267181574
778,389.2505805,-0.11786025109522001,0.1266078338004,0.1289779887842
779,389.7505805,0.02676809394412,-0.134927813535,0.08950390226959999
780,390.2505805,-0.00494800380994,0.18648480308934,-0.2739728535418
781,390.7505805,-0.072045392019,-0.2074741142644,0.030164501533999997
782,391.2505805,-0.069772973542,0.2676198553236,-0.14644872353852
783,391.7505805,-0.03242470277988,-0.0287472970722,0.256624295412
784,392.2503805,0.08924734449367999,-0.1441640895738,-0.4450882979272
785,392.7505805,0.2800815004182,-0.048392708522280004,0.432284572418
786,393.2553844215686,-0.05992463739133334,-0.06723704722882352,0.0185295653090196
787,393.75558049999995,0.11392004775122448,-0.027769414103530614,0.2666736401704081
788,394.2503805,0.08148936437248,0.08522785475110001,-0.19590433622540002
789,394.7505805,0.012058470387600002,0.104751096033,0.33450955197066
790,395.2505805,-0.0035307960413200053,0.0334387405924,-0.3338742531036
791,395.7505805,-0.1749150198704,-0.0364441904762,0.04107454820628
792,396.2505805,-0.12641235594858,-0.13199565916081998,-0.08241787230781998
793,396.7505805,-0.025925101777199998,0.115160231303,0.035515680130800004
794,397.2505805,-0.004386006561999999,-0.0205983596636,0.04659676368198
795,397.7505805,0.18685132085042,0.004202750090760005,0.0182526403696
796,398.2505805,-0.1247019340906,0.046425723542199995,-0.33568241402079996
797,398.7505805,-0.0808662792366,-0.031740534009,-0.34785084041700004
798,399.2505805,0.18415129427046,-0.2801914605522,0.5843654745944
799,399.7505805,-0.09976643650358,0.2182619858202,-0.4886551707692
800,400.2505805,0.15275284589592,-0.11663852469474,0.477757344909
801,400.7505805,-0.18724227058354,0.21564747941219997,-0.29459565136439997
802,401.2505805,0.08770796508536001,-0.0627846805716,0.3819493122718
803,401.7503805,-0.083859515640388,0.11366971748759999,-0.3176741214458
804,402.2505805,0.16032757203432,-0.1501627805792,0.021441354235599997
805,402.7505805,-0.1995084343152,0.14055998033319997,-0.15855606345446
806,403.2503805,0.1632352825402,-0.015051703712519985,0.27027100669820003
807,403.7503805,-0.09348674688860001,0.026022838556099995,-0.15960674939642
808,404.2505805,-0.152313023044,0.19354639886340003,-0.17884898755439999
809,404.7505805,0.11932632534241999,-0.17002810127898002,0.3561219481752
810,405.2505805,0.10973574402686001,-0.17686978626241198,-0.19034546330920002
811,405.7505805,-0.3156338349248,-0.1338404720954,0.295023257438
812,406.2505805,0.03896095544012,0.1345612967018,-0.12935672566439999
813,406.7505805,0.3476309314462,-0.22443171714800003,0.3235384228508
814,407.2505805,-0.2957440753294,0.368608031424,-0.5735531580562
815,407.7505805,0.13336400014771999,-0.062381512417599996,0.22277016751814
816,408.2505805,-0.1292712038784,0.0008063398309999981,-0.5330039517156
817,408.7505805,0.28939107856580004,0.028405213473119993,0.69408899901764
818,409.2505805,-0.2716026994264,-0.122282918766,-0.3779786942102
819,409.7503805,0.023628248827799996,-0.03205818284084,0.23349695566588
820,410.2505805,-0.013952148388879992,-0.0426017091766,-0.21438910285464
821,410.7505805,-0.1742186322104,0.1452636434628,-0.099986350956
822,411.2505805,0.0659000930758,-0.273300899572,0.13046850359438
823,411.7505805,-0.0702005801806,0.18520198617542,-0.011374305170800007
824,412.2505805,-0.030384414243400003,-0.08456812201089998,0.159496793871288
825,412.7505805,0.1101144829428,0.10635155970679999,0.059095063479199995
826,413.2505805,-0.1418183631422,-0.21162799439865998,0.226594180154
827,413.7505805,-0.08003550419942,0.31745421207519997,-0.46737263770024
828,414.2503805,0.093694440098,-0.1754647953604,0.4165364800146
829,414.7505805,-0.13385268964139999,-0.18053497503913998,-0.5084838448981199
830,415.2505805,0.1640660593786,-0.0016737681383340005,0.4513068982894
831,415.7505805,-0.202220677824,0.19904418086886,-0.3310764962846
832,416.2505805,0.26978231987394,0.0203906663316,0.486028455475
833,416.7505805,-0.129356728798,0.0767001794004,-0.08841656951332
834,417.2505805,0.077237743661,-0.001295033054000005,0.2875462731548
835,417.7505805,-0.09048129141854,0.0256563211252,-0.154463264786
836,418.2505805,0.05139816188060001,-0.11974171462199999,-0.15556281625
837,418.7505805,0.06315120305715999,-0.16396832358224,-0.002247982833740003
838,419.2505805,-0.10016960757466001,0.1784580368125,-0.16464027152219998
839,419.7505805,-0.11685843154683999,-0.029028297149234,-0.086657277865
840,420.2505805,0.016016873188999997,0.162209035012,-0.5348243294678
841,420.7505805,0.0774454362004,-0.14489712668596,0.641884489048
842,421.2505805,-0.12448202284352,0.023750425428599998,-0.077836389685
843,421.7505805,0.114671535907,-0.10010851895680001,0.3338498151428
844,422.2505805,-0.3103193020702,-0.056065171143999996,-0.3326158710624
845,422.7505805,0.1613904771756,-0.011838554057119999,0.6039620058338
846,423.2505805,-0.25071111988233996,-0.1155756153936,-0.2648954053168
847,423.7505805,0.33979964228660003,0.1488799677122,0.3888032158134
848,424.2505805,-0.199593960351,-0.0478795807036,-0.28245165596272
849,424.7505805,0.21675925676924,0.3354869461764,0.2243950683026
850,425.2505805,0.2584935440858,-0.10101260013279999,-0.057580112593
851,425.7505805,0.05265654414316,0.021160356764800003,0.0215146593034
852,426.2501805,-0.0341229069606,-0.2626474183382,0.14214823018754
853,426.7503805,-0.10505652576380001,0.24781562734419998,-0.1380920954912
854,427.2505805,-0.2681085499788,-0.13887399785739402,0.04888140043558
855,427.7505805,-0.08059749885258,0.15055373143194,-0.286739927385
856,428.2505805,0.058068806574852,-0.1578108066206,0.47449531973404
857,428.7505805,-0.094476346522,0.041135631291199994,-0.44772723407139997
858,429.2505805,0.1223562171142,0.0776653504756,0.30488261261528
859,429.7505805,-0.0975062346468,-0.07646805226736002,-0.401130468618
860,430.2505805,0.14657089265536,0.07971785320609999,0.4219731694472
861,430.7505805,-0.0137566762354,0.01671325961976,-0.147059589252
862,431.2505805,-0.04871035400979999,0.015027275073900004,0.285567063252
863,431.7503805,-0.012266161608519996,0.018594724794040004,-0.1731557337541
864,432.2505805,-0.023958117332139997,0.08367625403984,0.197859104992
865,432.7505805,-0.008124501988400005,-0.101708991672794,-0.18516533543622
866,433.2505805,0.20529943296039999,-0.13341286594606,0.041147846885000006
867,433.7505805,-0.0406347265762,-0.0250698888996,-0.0792535952332
868,434.2505805,0.015134175077239999,-0.030408847800359996,-0.19552254218040002
869,434.7505805,0.015656463575200005,-0.0594860122312,0.11426225806362
870,435.2505805,0.13260041739122,0.24276988051419998,-0.0768040304394
871,435.7505805,-0.4936214995356,0.03158171001759999,0.2056476283056
872,436.2505805,0.11873379603478,-0.0721064779796,-0.4647642465002
873,436.7503805,0.05484954878319999,-0.054244789646800004,0.21007029186276
874,437.2505805,0.4717036776268,-0.082430092641034,-0.1991113734782
875,437.7503805,-0.056718793437399995,-0.0032498014122999985,0.25382042435818003
876,438.2505805,-0.15532458694258,0.076003796375472,-0.21007028945200001
877,438.7505805,-0.03356701861962,0.021025964856005993,0.21413864731739998
878,439.2505805,0.052992519990919994,-0.05134929541528,0.0538232970314
879,439.7505805,-0.22831071161299998,0.1165896516292,0.061911145008
880,440.2505805,0.06799535869920001,-0.28096115037198,-0.1551046755956
881,440.7505805,-0.02844797266078,0.2512120328168,0.0512821029586
882,441.2503805,-0.0650632095238,-0.019425498429820002,0.1876149001676
883,441.7505805,0.08024931095136001,0.1419649720198,-0.06051837265576
884,442.2505805,-0.054873980154399996,-0.20376005804560002,-0.08663895315920002
885,442.7505805,0.23890310532582,0.06916210906761999,-0.35535836799302006
886,443.2505805,-0.17751119684862002,-0.02982241781809999,0.284241492899
887,443.7505805,0.12479356557599999,0.009712747406599996,-0.3714118934478
888,444.2505805,0.10980294885481999,-0.036676324119800006,0.22237310377358
889,444.7505805,-0.23886645087358002,0.02053727168578,-0.1352393516514
890,445.2505805,-0.15415172596118,0.21768777257299998,0.3583271723738
891,445.7505805,-0.0914403492261,-0.12737752541720002,-0.010659589585599993
892,446.2505805,0.14381589842702,0.0736947226746,0.0665292800932
893,446.7505805,-0.04574766348108,-0.168549811656566,-0.0688750011074
894,447.2505805,0.017672320153379998,0.07831286225088001,-0.1841329739974
895,447.7505805,-0.010207550432599998,-0.016016873948799998,0.3358839996956
896,448.2505805,-0.1277501522076,0.13365721564459998,-0.27992878601724
897,448.7505805,-0.12258223469882001,-0.20631347128704,0.11047489536874
898,449.2505805,0.026969674464999985,0.1780059970362,-0.2852188767872
899,449.7505805,0.1258198230462,-0.12759743127874,0.3202825100744
900,450.2505805,-0.06808088130646,0.0664620867856,-0.240014882824
901,450.7501805,0.11652245591759999,-0.07002954890780003,0.27236627879738
902,451.2505805,-0.08921679924496001,-0.03992612157184,-0.057402963658040006
903,451.7505805,-0.09708474334297999,0.0706281879462,0.139955229536
904,452.2503805,0.018368707379800002,-0.10644929505672,-0.17806097265632
905,452.7505805,-0.014776822636596,0.00648738536936,0.020482295258400004
906,453.2505805,-0.035863866006457995,0.115881052622646,0.038209591956380004
907,453.7505805,0.152062572148,0.11783582122039998,-0.0712818104094
908,454.2505805,-0.1288741348656,-0.025766278314199996,0.25642270787618
909,454.7505805,-0.010146462979740003,0.1314458840434,-0.0979888229156
910,455.2505805,0.15804905160139998,-0.4659798747218,-0.002302962362280001
911,455.7503805,-0.12131163310335999,0.22803582147316,-0.3278938850766
912,456.2505805,0.1492037192701,0.04491077856640002,0.45367094884837994
913,456.7505805,-0.2266369410186,0.0116430850658,-0.2783038837898
914,457.2505805,0.15103631346660001,0.069834066714,0.31356299597506004
915,457.7505805,-0.06444012339013999,-0.06643765485759999,-0.3306794346814
916,458.2505805,-0.08286380889725999,-0.0660589172218,0.038392853761799996
917,458.7505805,-0.012260056011519995,-0.027940954393460005,0.17691254959000002
918,459.2505805,-0.03311497922190001,-0.022492041336340005,-0.049779372506
919,459.7505805,0.038930410524399994,-0.007501417736859995,0.13993079716918
920,460.2505805,-0.064782209203818,0.12168426611239999,-0.15817121832
921,460.7501805,-0.06268083393740001,-0.046010336022000005,0.15087749384406002
922,461.2505805,0.046089746225,0.037397142014394,-0.07657189548519999
923,461.7505805,-0.12096954689938,-0.08414051146200001,0.1045372911596
924,462.2505805,-0.07721941924806,0.16233120576360002,-0.3549796325702
925,462.7505805,-0.03798968178458001,0.0047280968032000015,0.2867338201576
926,463.2505805,0.007947348310200003,-0.11915528194836,-0.2914863477594
927,463.7503805,0.2228373632604,0.026254963846199998,0.08608916931630001
928,464.2505805,-0.18942306258119998,-0.22148735173040002,-0.2142363895094
929,464.7505805,0.3556515830768,-0.12396890226,0.4997179301086
930,465.2505805,-0.3167761466234,0.15761532989295401,-0.28042968906478
931,465.7505805,0.03024391384206,-0.12438428625219998,0.2549566321092
932,466.2505805,-0.1235962689524,0.1012080731855,-0.12723702514659999
933,466.7505805,-0.022718059944799994,0.0972252357022,0.09952820228056
934,467.2503805,-0.072185891312,0.17820147040032,0.050402452299
935,467.7505805,0.01706145498594,0.1512012453696,-0.109949550925
936,468.2505805,-0.10293682399936001,-0.06855124690100001,0.017146975815119998
937,468.7505805,0.006762272772000002,0.32771673498799997,-0.159869425372
938,469.2505805,-0.05167304951414,-0.3197877069766,0.041838126787799995
939,469.7505805,0.048948595527399996,0.19006446586568,-0.24245833978
940,470.2505805,0.2346759220046,-0.2778701693266,0.4208308535282
941,470.7505805,-0.11220975332734,0.18924590768803998,-0.4120221876004
942,471.2505805,0.01772118710294,-0.09175189164339999,0.36123488607860005
943,471.7505805,-0.1312809506892,-0.011472037954200003,-0.31907299727239996
944,472.2505805,0.14679691432960001,-0.04329809343074001,0.1803822596762
945,472.7505805,-0.05256491541540001,0.0080267612946,-0.026994115037999998
946,473.2503805,0.07278453828334,0.05380496762919999,0.2876745475058
947,473.7505805,-0.0880561532048,0.019963062399799995,-0.34750265052706
948,474.2505805,0.05069566801980001,0.1308105839018,0.003988945944399993
949,474.7505805,-0.03006065386428,-0.2041143562292,0.21005807204059998
950,475.2505805,-0.10687079392719999,0.22581227518879998,-0.21257483439812
951,475.7505805,0.05232056886380001,-0.12917346649981998,0.10509928238880001
952,476.2505805,-0.02110537410364,0.11474484014736,-0.5522645234732
953,476.7503805,0.006676752546200009,-0.07411011612919999,-0.07511804055642
954,477.2505805,-0.09092722236858,-0.1141217550701,-0.264828209655
955,477.7503805,0.0699379122076,0.07864273173818,0.34042883606124
956,478.2505805,-0.15377299401148,0.18963685695351998,-0.38766089844644
957,478.7503805,0.175006654533604,0.14334553077764198,-0.1800157390802
958,479.2503805,0.08067691429563999,0.003274234628599999,-1.3031883777120001
959,479.7505805,-0.05414094390668001,-0.12428654780714,-0.439474450552
960,480.2505805,0.168519266256,-0.4080210236022,-0.1245003517344
961,480.7503805,-0.0666392390118,0.22043665916,-0.0732976680308
962,481.2505805,-0.11613150342060001,-0.305444607739,0.06677362501052
963,481.7505805,0.01175914933092,0.045509424764999994,-0.2660743738622
964,482.2505805,-0.1048793761662,-0.04719541408120001,0.11268622584999999
965,482.7505805,0.08772629225780001,0.1700525371744,-0.1795026175112
966,483.2505805,0.03109912539332,-0.0515692038184,0.256312752864778
967,483.7505805,-0.1562775353344,-0.0107267846382,-0.24783395007439998
968,484.2505805,-0.0861349886514,-0.006575956721219998,0.1332693149088
969,484.7505805,0.012699879037579999,0.0153815763372,0.006554583117800005
970,485.2503805,-0.0331882843556,0.073364863211,0.2797577400518
971,485.7505805,0.1344085821432,0.029614727441000008,-0.1371819051541
972,486.2503805,-0.08776294421256,-0.0876835279054,-0.1095585946656
973,486.7505805,0.0688505681608,-0.20518947747904,-0.1821048993102
974,487.2505805,-0.07107411114663999,0.2072053317836,-0.0947390182174
975,487.7505805,-0.0011667498430000035,-0.1725326473322,0.3713141563186
976,488.2505805,-0.127114851389,0.1073167228564,-0.268065790859
977,488.7505805,0.18074877989164,-0.1913717145278,0.256276103158196
978,489.2505805,-0.18299676209899998,0.0982026196274,-0.4721557152356
979,489.7505805,0.13431083681148,0.06629104831128001,0.14964354439354
980,490.2505805,-0.1101144845882,-0.180919822573,-0.37790233087056
981,490.7505805,0.1333090210374,0.0829554381902,0.22188441670442
982,491.2505805,-0.0636093518846,0.009859356647799999,0.1850737059818
983,491.7505805,0.008142826282380002,-0.142917925562,0.030317215812199993
984,492.2505805,-0.1787573619444,-0.0668163903266,0.00949894878642
985,492.7505805,0.10252143371986,0.2614256870778,0.0785633190362
986,493.2505805,0.008436042072200002,-0.18032728234724002,0.240173704234
987,493.7503805,-0.0667491968618,0.20186637498819998,-0.3579117865892
988,494.2505805,0.1004689333626,-0.059327187537752,0.32238388661359996
989,494.7503805,0.027519453430719994,0.1680366787278,-0.146515913757
990,495.2503805,-0.044843582071400004,0.07281508080342601,-0.18718729280359997
991,495.7505805,-0.09847751097948,-0.2026116329798,-0.16072463212176
992,496.2505805,0.08998649498586002,0.029688030852965997,0.5997775774844201
993,496.7505805,0.0365816373124,0.12158957918511999,-0.1904584748488
994,497.2505805,0.28806550461606,-0.4557417747348,0.60571519203138
995,497.7505805,-0.3038380300972,-0.029846851701999997,-0.5213914135328
996,498.2505805,-0.07377413719176,0.22704622426684,0.08459866504428
997,498.7505805,0.2363985599018,-0.28221952905172004,-0.008289436035599996
998,499.2505805,-0.2506927920826,0.35865093139144,-0.11968674003199999
999,499.7505805,-0.20669831453046,-0.21939819454146,0.14122582655656
1000,500.2505805,0.0018997905517999947,0.22514032278639998,0.004221075924200002
1001,500.7505805,0.10617440885352,-0.227034001318,0.26405851896994004
1002,501.2505805,-0.0889480196728,0.1936197002266,-0.0749225628402
1003,501.7505805,-0.06321839811,-0.13544093837704,-0.050426888972084
1004,502.2505805,-0.019761475930020003,-0.16263663690119998,-0.2683590045652
1005,502.7505805,0.08710320967037999,0.200632430153434,0.199355719386
1006,503.2505805,-0.0677387933456,-0.076003796165,-0.16899574421859997
1007,503.7505805,-0.013371827243440004,0.0162001343256,-0.006688967848400007
1008,504.2505805,0.0776470209616,-0.1243476335972,0.046615088328220006
1009,504.7503805,-0.0020708326793999893,0.10465335748832,-0.10727396413720001
1010,505.2505805,-0.13969866582454,-0.0958813338553,0.2232405339156
1011,505.7505805,-0.07946739896560001,0.24599524925615998,-0.24567149340859998
1012,506.2503805,-0.08020043863859999,-0.17919107601691997,0.18629237975986002
1013,506.7505805,-0.10575291008488,0.0311205087588,-0.2832518866352
1014,507.2505805,0.1341153616938,-0.03192378887376,0.1510241019144
1015,507.7505805,0.013188570856940003,-0.138055440909,-0.23874428206716
1016,508.2505805,0.1413968703778,0.2582491947698,0.3629086556656
1017,508.7505805,-0.1398330577386,-0.2213285268058,-0.09707252368699999
1018,509.2505805,0.035912741431800003,0.1288558175476,0.269483000037
1019,509.7505805,0.0396756675784,-0.09203288762654001,-0.16309478645046
1020,510.2505805,-0.008436042245440001,0.16683938875780002,0.1311587755282
1021,510.7505805,0.099308288963884,-0.080121024793466,-0.1301080936226
1022,511.2505805,0.1949452755628,0.1621235133638,-0.3632629613642
1023,511.7503805,0.084781921353,-0.028796163573220002,0.19611813731406
1024,512.2505805,0.0052839821786,0.17892229313382602,-0.1823614628014
1025,512.7503805,0.09155030741700002,0.014624097877080007,0.29846242249098
1026,513.2503805,-0.03515526562159999,0.05133707461400601,-0.496846872688
1027,513.7505805,-0.18005238978739999,1.0349393335286,0.2589150364744
1028,514.2505805,-0.07315105674304,-0.4359497616022,0.0699379099908
1029,514.7505805,0.0706465128196,-0.48210669808872,-0.0031948236443999976
1030,515.2505805,-0.042864381706599994,-0.17739513365742,0.029229877345660002
1031,515.7505805,0.067298972665404,0.21228773016532,-0.014300346174319998
1032,516.2505805,-0.0632183966944,-0.1441274368088,0.25950146888726
1033,516.7505805,-0.01789222471446,-0.0505062991828,-0.27970887528542
1034,517.2505805,0.191515270216,-0.09377079920599998,0.20928532954600002
1035,517.7505805,0.0353751788106,0.154047877378,-0.271425545372584
1036,518.2505805,-0.030133959200999996,0.24231784065860001,-0.011832449605603996
1037,518.7505805,-0.07662077041872001,0.4377212747622,-0.008936951779839998
1038,519.2505805,-0.43083682091378,-0.6739060284264601,0.0002871074115999939
1039,519.7505805,0.31301322833580003,0.027745475811200012,-0.0067622710697999985
1040,520.2505805,-0.016206241878400002,0.15265511292124,-0.24083038664499998
1041,520.7505805,0.08700547512262,-0.25176180806184,0.31391729864264
1042,521.2505805,-0.067543316530938,0.35315314485759997,0.1790383606452
1043,521.7505805,0.004880811905946001,-0.2214506964328,0.211976189266
1044,522.2505805,-0.11991886330057999,0.24880522168660002,-0.2201984281072
1045,522.7505805,-0.029009966723739997,-0.0527298450612,0.240845658213498
1046,523.2505805,5.4974833420002864e-05,0.1335472605768,-0.44614509203799996
1047,523.7499805,0.0526870912834,0.0379102715084,0.18353432126139999
1048,524.2505805,-0.054409725334420005,-0.0828821340906,-0.28889628111998
1049,524.7505805,-0.05282147591728001,-0.0295536358738,0.1057468036678
1050,525.2503805,-0.058221521519238,-0.23091910405434,-0.047201521395399994
1051,525.7505805,-0.07499892391860001,0.1316993916138,0.416661705772
1052,526.2505805,0.043902850449799996,-0.2688782431906,0.03254076544704
1053,526.7505805,-0.016584980309700004,0.282072924153,-0.25805982552900003
1054,527.2505805,-0.05697535847344,-0.22027784249180002,0.4062067551252
1055,527.7505805,-0.024746131387200002,0.1140484525963,-0.41133801698600003
1056,528.2503805,-0.12977822248488,-0.053218540889039996,0.09263764344918
1057,528.7505805,0.0672501039458,0.159081408121166,-0.408393646176
1058,529.2505805,0.0750691722126,0.014905103342593998,0.17713246014702
1059,529.7505805,-0.0579771777998,-0.09572250909044001,-0.3543076810168
1060,530.2505805,-0.038637199563592003,-0.00195476768920001,0.35502850156119997
1061,530.7503805,0.34110078529452,0.021001529842393996,-0.1949574939184
1062,531.2505805,0.0420213859216,0.1516777240804,-0.037769770343000005
1063,531.7505805,0.029034401035119995,-0.039657344812819996,-0.068826130807702
1064,532.2505805,0.10991290112876001,0.05235111294786,-0.011661410545540006
1065,532.7505805,-0.054873981665,-0.1245064597705,0.0908172651792
1066,533.2505805,-0.05115992580124,0.25073555492434,0.03447110015062
1067,533.7503805,-0.21071780410042,-0.26527413883126,0.28849311113636
1068,534.2503805,-0.15096301418942,0.05816655289125999,-0.3365926050956
1069,534.7505805,0.02264475786096,-0.14005907164194,0.4028836469906
1070,535.2505805,0.02726289386706,-0.11955845674516001,-0.23493248869262
1071,535.7505805,0.06117810827978001,0.1566990320138,0.38587717240344
1072,536.2505805,-0.05064679931280001,-0.0487561699046,-0.3247021202604
1073,536.7505805,0.005702423057340011,0.20663723083160002,0.4338819770376
1074,537.2505805,-0.0017043125524000002,-0.131006059866,-0.1684581756926
1075,537.7505805,-0.032736244345800004,0.0378491817472,0.05935773288556
1076,538.2505805,-0.0577694810674,-0.236465754667594,0.0280203647876
1077,538.7505805,-0.048154470963399996,0.1542067033754,-0.35774074182660004
1078,539.2505805,-0.011307105359199996,-0.172935819691,0.29951310305114
1079,539.7503805,-0.1171211056606,0.10156237512939999,-0.477079289118
1080,540.2505805,0.05812378189738,-0.13869073950400002,0.503822941288
1081,540.7505805,0.021850634291600005,-0.0546235290356,-0.029804091726760004
1082,541.2505805,-0.003255905792979996,0.1368214931018,0.28983701203728
1083,541.7505805,-0.005064069272400003,0.019339980842019995,-0.2613218479278
1084,542.2505805,0.15238021370554,-0.04946782907596001,0.009169080818800001
1085,542.7505805,-0.01097724899340001,0.11704168696452001,0.1901194449178
1086,543.2505805,-0.0889357990468,0.1592890976303,-0.27131559536304
1087,543.7505805,0.113101612744384,-0.1860327597446,-0.11690119283231999
1088,544.2505805,0.0743850029624,0.20818271559756,-0.19505523502
1089,544.7505805,-0.17490891270199602,-0.15763976589154,0.293404461497958
1090,545.2505805,0.033725846596879994,0.19997269376500001,-0.005723801400000002
1091,545.7505805,-0.15400512067754002,-0.2597152680392,0.2603078059428
1092,546.2505805,-0.12445148214304,0.010946694232999996,-0.629441177335
1093,546.7505805,0.23533566044059998,-0.04526507791019999,0.25903720768098
1094,547.2503805,-0.24299590277316,-0.03143510405108001,-0.2610041948114
1095,547.7505805,0.13322349847019999,0.21225107211095998,0.41095928279842
1096,548.2505805,0.0495594600522,0.014917321529800005,-0.381393421736
1097,548.7505805,0.1643531710944,0.09764062128872,0.08456200946736
1098,549.2505805,-0.21299022223838002,-0.09860579060632,-0.09932050301842
1099,549.7505805,0.045112365931379995,0.08704823167532,0.16032146210196
1100,550.2505805,-0.0855638309956,-0.15876375519556,0.0537988600834
1101,550.7503805,-0.028985533591712,0.094855085592,0.024526221269400003
1102,551.2505805,0.06688358410680001,-0.023713770345880004,0.08913127925275999
1103,551.7505805,0.032540765254602005,0.13603958673548,-0.2420429477216
1104,552.2505805,-0.11670571480269601,-0.1358685457668,0.19198869389588002
1105,552.7505805,-0.0928575536772,0.20040029578803398,-0.294650625946
1106,553.2505805,-0.008216133566059998,-0.3404715907144,0.41719009754521996
1107,553.7503805,-0.07889318654960001,0.126461225864,-0.3659996344948
1108,554.2505805,-0.055350455978379995,0.21014969710919998,0.4793028297278
1109,554.7505805,0.11158667053278201,0.019266672276799998,-0.51151984080978
1110,555.2505805,0.07056098962552,0.10504430429951998,0.2860252159884
1111,555.7505805,-0.11126901863733998,-0.0387043936274,-0.2202228598884
1112,556.2505805,-0.252769733757216,0.0948306441476,0.1039019879376
1113,556.7505805,0.2532248353208,-0.17925215756069998,-0.005387826629780022
1114,557.2505805,-0.08172760018308001,-0.15965561585242,-0.1047724748958
1115,557.7503805,0.13095108233818,-0.2178099439082,0.2129902219
1116,558.2505805,-0.0472503883482,0.1831861305592,-0.1479209027586
1117,558.7505805,-0.01869857275704001,-0.16255111851426002,0.15263678711241999
1118,559.2505805,-0.11969895354328002,0.32076509242859996,-0.388528326156
1119,559.7505805,0.002474002918779996,-0.3576613271366,0.27995322068106
1120,560.2505805,-0.0495594644071,0.16036421693539998,-0.4441170244
1121,560.7505805,-0.0050274183016000016,0.040048294293,0.2562394587572
1122,561.2505805,-0.18149403400480002,-0.09593020003340001,-0.32056351379299997
1123,561.7505805,-0.02267225057938,0.1165621627116,0.49619629732046
1124,562.2505805,-0.12723396924946,-0.07901535915473999,-0.3133217131434
1125,562.7505805,0.0636460017894,0.049186831791199995,0.074666002394
1126,563.2505805,-0.07352979269394,0.07202095907032,-0.08138551416558
1127,563.7505805,0.10979072448538,0.0403292895924,0.2351035293964
1128,564.2505805,0.0657962405796,-0.173925419779,0.0504390990068
1129,564.7505805,-0.024917175285200002,0.2194104144692,-0.12721259217094
1130,565.2505805,0.025063781725,-0.0844337290739,0.2872958148988
1131,565.7505805,-0.01277318044892,0.183772560971912,-0.28557317704
1132,566.2505805,0.048630946148799994,-0.2222448243928,0.29316011734459996
1133,566.7505805,-0.28491344197659996,0.03268126435280001,-0.50895420217418
1134,567.2505805,0.20030866923120003,0.2286589072652,0.40500945983599995
1135,567.7505805,-0.03425118769918,-0.1638828046036,0.140627181667
1136,568.2505805,0.04075078898561999,-0.1302974583222,0.024171915918959997
1137,568.7505805,-0.1052458922884,-0.0018325970480399946,-0.42515578247058
1138,569.2505805,0.08903354343459999,-0.10927148967860001,0.3719250230884
1139,569.7505805,-0.043719592982799996,0.270771920572,-0.17253876042279997
1140,570.2503805,-0.07081756158119999,0.10297957240400002,0.15908751519640002
1141,570.7503805,0.019248345407400006,-0.1946093034028,-0.299525323066
1142,571.2505805,0.07577777516178,0.07916807596104,-0.018881832061400004
1143,571.7505805,-0.028570144406200003,0.077995215955194,-0.098648550937604
1144,572.2505805,0.091672478881,0.1957577272396,0.1589897760444
1145,572.7505805,-0.2555430670206,-0.32077731364080003,0.11844056908204
1146,573.2505805,0.07548456028276,0.23855491295019998,-0.11257627107412001
1147,573.7505805,-0.03350593325848,-0.2509432530598,0.31515124813838
1148,574.2503805,-0.034251188386600004,0.072289736046834,-0.4990948515
1149,574.7505805,0.07627868575319999,-0.24989256476919997,0.3236667041288
1150,575.2505805,0.0372810823742,0.0408546365794,-0.1871262086914
1151,575.7505805,0.05021919545478,0.0280875623936,0.3169960635124
1152,576.2503805,-0.13942988360779998,-0.0789115144976,-0.335187607071
1153,576.7503805,0.0795162699268,0.1091493186102,0.062094406683799994
1154,577.2505805,-0.0461630526096,-0.026829182442965994,-0.1388068058042
1155,577.7503805,-0.095068882121,0.05762897754996,0.06672475636
1156,578.2503805,-0.043829545995599996,-0.18224539893654002,0.029901829667599994
1157,578.7505805,0.03981005953879999,-0.00040317321819999697,-0.12230123794021999
1158,579.2505805,-0.045112366413498,-0.2062035173663,0.23007000378806
1159,579.7505805,-0.025882339641999996,0.18307617135277,-0.1637911775416
1160,580.2505805,0.009388992099000008,0.029859070759039995,0.294638410663996
1161,580.7503805,-0.0696813436658,0.06473945301900001,-0.31496798912232
1162,581.2505805,0.041483822974004,0.027794351138720006,0.2264903324356
1163,581.7505805,0.1842551415258,-0.13032188982499998,-0.28030751673016
1164,582.2505805,-0.007593048034060001,0.33757609518464,0.0703655194336
1165,582.7505805,-0.0009101865276000032,-0.3423041869278,-0.29589678862572
1166,583.2505805,0.01390939165659999,0.127218695218934,0.22734554345719998
1167,583.7505805,0.2347370000746,-0.12675138654718,0.20668915134554003
1168,584.2503805,-0.05863996514919998,0.1823645172058,-0.10190446731180001
1169,584.7505805,-0.03761094268720001,-0.222293694352,0.2891406317094
1170,585.2503805,0.032479681282079995,0.2783588645046,0.173687182003
1171,585.7505805,0.0987951580818,-0.1496374361224,0.09166026092759999
1172,586.2505805,-0.23016774303559998,0.11992497255564,-0.466401367091
1173,586.7505805,0.0580382619836,-0.261877730621994,0.44114821863796005
1174,587.2505805,0.0812999927712,0.059498229614799995,-0.39299986038199997
1175,587.7505805,-0.02389092074122,-0.04922348312494,0.24426650078047998
1176,588.2505805,-0.094335847567,-0.0271101768446,-0.49194773354455995
1177,588.7505805,0.1373895991096,0.010262531157599994,0.34117409263627996
1178,589.2505805,-0.17993022065921999,0.08759800869783402,-0.21009472343848198
1179,589.7505805,0.107603829885502,0.0022479820242000013,0.38781972510274004
1180,590.2505805,-0.05941881717948,-0.05654164337,-0.12116503125308001
1181,590.7505805,-0.0007147113672000005,0.06329780520292,0.1798569180134
1182,591.2505805,0.03721999018840001,0.046694505741,0.022204934212
1183,591.7505805,-0.0726501481758,0.0774454361038,-0.299232112264
1184,592.2505805,-0.00020158438515999855,-0.060280133448000005,0.21769387662859999
1185,592.7505805,0.035326310246999997,0.0939998739906,0.03645030259715999
1186,593.2505805,0.005809323580959999,-0.09825148977539999,0.35533392977379996
1187,593.7505805,-0.241248824912,0.14978404525859998,-0.5295647852796
1188,594.2505805,0.1775845029452,-0.133535039487,0.38360475933018
1189,594.7503805,-0.06831300631380001,0.189135949588,-0.499681279368
1190,595.2505805,0.0885081963732,-0.1888060856992,0.34326324731
1191,595.7505805,0.03398240823758,0.038521134088719995,-0.3166051075268
1192,596.2505805,-0.1122219672798,0.1822453928754,0.20519558922088
1193,596.7505805,-0.0894611509802,-0.03187492334536,-0.2857564352304
1194,597.2505805,0.07919861872182,-0.02693913526135999,0.37213271631087996
1195,597.7505805,-0.0306104350398,-0.078618296479966,-0.045454452155159995
1196,598.2505805,-0.0364991742814,0.0900781187826,-0.14371815787439998
1197,598.7503805,-0.08793398507540001,-0.059192798315840005,-0.0064446214121999966
1198,599.2503805,0.1608956709106,-0.033964083862600004,0.014776817615200001
1199,599.7505805,0.16755409997664,-0.1889404765964,0.22314279783808
1200,600.2505805,-0.00048257996960000105,0.2370521875848,-0.3131842642426
1201,600.7505805,-0.047995646506339994,-0.033646432318540004,0.1018494853284
1202,601.2505805,0.010341941763960005,0.094855081931704,-0.2530873837296
1203,601.7505805,-0.09954041545437999,-0.21376602163494,0.30535297731078
1204,602.2505805,-0.1994901127408,0.09561255426686001,-0.2713888949344
1205,602.7503805,0.14463445672626,-0.09910670058783999,0.298181421565278
1206,603.2505805,-0.2888474150364,-0.011288780905959998,-0.42706167479317997
1207,603.7505805,0.1639377846458,0.0038362285980000003,0.405852451654
1208,604.2503805,-0.054446378323159995,-0.024019205808000006,-0.1524168703666
1209,604.7503805,0.01797774818468,-0.00911410038228,-0.0338968873072
1210,605.2505805,0.004489856496959999,-0.058120729094600004,-0.021887283369299997
1211,605.7505805,-0.050374962679819994,0.056804316729,0.09007506147819999
1212,606.2505805,-0.04356076690816,-0.0941220447223,0.0535667341114
1213,606.7505805,-0.074702656866,0.19542786066026,0.0288267073458
1214,607.2505805,0.021459680509599996,-0.1751471521604,0.155862148308988
1215,607.7505805,-0.056498885022,0.1026008488438,-0.3625177030218
1216,608.2505805,-0.023121233017097998,-0.1345979435342,0.28806550558436
1217,608.7505805,-0.09624174823385999,0.207107595207,-0.3917903421814
1218,609.2505805,0.129888175017,-0.06361545790494,0.38584052339860003
1219,609.7505805,0.3007226230206,-0.006621773176900003,-0.45844791376579996
1220,610.2505805,-0.040042183418219995,0.13282643346706002,0.17132924677904002
1221,610.7505805,0.022791366276199994,0.0101770058428,-0.2401614906532
1222,611.2505805,0.09045075012855999,0.0633833288424,0.18023565340699998
1223,611.7505805,-0.291657388327,-0.07819069128346,-0.1374018129724
1224,612.2505805,-0.08843489482464,0.08721927151814,0.43754411593320003
1225,612.7505805,-0.05414094836322,-0.04626689439360001,-0.2110354577002
1226,613.2505805,-0.05743961463252,0.13324182945054,0.11291835838616
1227,613.7505805,0.054922853256,-0.2597152706954,-0.20619740291046
1228,614.2505805,-0.053591171576,0.0493090057484,0.201200526265
1229,614.7505805,-0.0916846938362,-0.1048366196368,7.94112446000017e-05
1230,615.2505805,0.19372355029454,-0.013817758729240005,0.10374316330920001
1231,615.7505805,-0.03276067851858001,-0.07084809845279999,0.08626021288858
1232,616.2505805,-0.0465540045464,0.1369680998834,-0.3148335975326
1233,616.7503805,-0.026627596911699997,-0.07181326439899999,0.3508501853218
1234,617.2505805,0.020555601209306006,0.14617994575280002,-0.1771080285288
1235,617.7505805,-0.0931018942274,-0.14377313406279998,0.18424292638648002
1236,618.2503805,0.105600194676816,0.13635723462656002,-0.11373691373618
1237,618.7503805,-0.2442420661324,0.055833044171,0.15350420698859998
1238,619.2503805,-0.011527017184500006,0.120291491919,-0.2809306031382
1239,619.7505805,-0.02395200883618,-0.16202577062860002,0.31819335448701996
1240,620.2503805,-0.0516608356866,0.16333302313188,-0.4390101875026
1241,620.7505805,-0.0322719832272,-0.3867873551886,0.26798026703428
1242,621.2505805,0.078563319743,0.023664903339599988,-0.368711872768
1243,621.7505805,0.1562408857332,-0.0717033161752,0.26883548243832
1244,622.2505805,-0.08450092217640001,0.19799348924139998,-0.2817369458384
1245,622.7501804999999,-0.05439750715080001,-0.033255478208799996,0.3322432467338
1246,623.2503805,0.064488995042,-0.0218445224859,0.019908081477199996
1247,623.7505805,0.02789819682244001,0.079864459827,0.1187459990124
1248,624.2505805,0.004196642107199998,-0.07472097950079998,-0.1588676012085
1249,624.7503805,0.32592690022752,0.17745621701706601,-0.12894744467618
1250,625.2505805,0.1177014250058,-0.0558208222782,0.07102219297968
1251,625.7505805,-0.007119628517856,0.12133301540567999,-0.1389473033358
1252,626.2503805,-0.2423972522824,-0.09569807853331999,0.16033367866064002
1253,626.7505805,0.36568198289576004,0.24284318520372,-0.19880593718
1254,627.2501804999999,-0.54596040375696,0.5067734175782,0.065380853032
1255,627.7505805,0.33556634623238,0.2988717048185,-0.14264303445334
1256,628.2505805,-0.2001742788014,-0.47173421204531996,-0.07333431852602
1257,628.7503805,-0.3560303244413,-0.57299116311606,-0.2018969182728
1258,629.2505805,0.3073688342916,0.05737241942708,0.4963459629144
1259,629.7501804999999,-0.014850118238399991,-0.2840276964298,-0.0775737164024
1260,630.2505805,-0.023854269599439995,0.036480842401799995,0.222177629262
1261,630.7505805,0.09647387493416,-0.073132731689,-0.17856188400948
1262,631.2505805,0.0373299464966,0.0378125320207,0.24214068621399998
1263,631.7505805,-0.1797591774184,-0.13115266881096,-0.11468986624856
1264,632.2505805,0.09054848766877999,0.007415898007599988,-0.040750784914200006
1265,632.7505805,-0.0511110559214,0.297723268207,0.0852217464604
1266,633.2503805,0.0055527584995999964,-0.050090913584399994,-0.1909502162258
1267,633.7505805,0.0574884863254,-0.258970010144,0.022375978271
1268,634.2505805,-0.0664071153774,0.15795741539226,-0.1485439913178
1269,634.7505805,-0.1059697684716,-0.009853251718433993,0.26730832308096
1270,635.2505805,0.007849613127999998,0.21128591181432,-0.18440174926400002
1271,635.7503805,0.03866162922984,-0.162661068711,0.35826608474066
1272,636.2505805,-0.1255510382566,0.1599732723776,-0.39378176234740003
1273,636.7505805,0.25258647457239997,-0.0471221087066,0.3146992074032
1274,637.2505805,-0.22265410501462,0.13277756652560002,-0.28298311207619997
1275,637.7503805,0.025796819898140005,-0.1854341145628,0.240906740408948
1276,638.2505805,-0.047690212252039996,0.04003607734979999,-0.29924433023322
1277,638.7505805,0.17498221740848,0.0013072533488000038,0.3885649780666
1278,639.2505805,-0.02009134334674,-0.034037386244079995,-0.25957477010720004
1279,639.7505805,-0.02868010509253999,0.04948004956120001,0.06382925967993999
1280,640.2505805,0.0847819221822,0.10486105248560001,-0.1045250690642
1281,640.7505805,-0.12508677917356,-0.0031887166517999966,-0.11335817540880001
1282,641.2505805,-0.01707366743154,-0.24647171971219997,0.1604314190122
1283,641.7505805,-0.067030195411,-0.013781112603600003,-0.2346881439118
1284,642.2505805,0.019443825054462006,-0.20892797361260002,0.40542484718784005
1285,642.7505805,-0.033860236552199996,0.1234557715062,-0.2493611128992
1286,643.2505805,-0.04679835130876,0.05481900485274,0.32099111587118
1287,643.7505805,-0.06605281004818,0.0726073859244,-0.38566947694820003
1288,644.2505805,0.20214126018755998,-0.0037262752804000086,0.39149713282798
1289,644.7505805,-0.26289786435362,0.025485281346999993,-0.518300438360804
1290,645.2505805,0.22930031017139998,-0.06747612065320001,0.24602578577
1291,645.7505805,-0.16504955424544002,-0.0391442145068,-0.09789108029238001
1292,646.2505805,0.16795726876688,0.08922290890800001,0.41703127500284
1293,646.7505805,-0.012712102612999997,0.03413512000140001,-0.3013212688772
1294,647.2503805,-0.09183130399320001,0.020097451494860002,-0.1258564779882
1295,647.7505805,-0.004453204167080002,-0.137359054614,0.24226286587065998
1296,648.2503805,0.14417019744806,0.1962586385132,-0.20525667096820002
1297,648.7505805,0.1158993756732,-0.2271195258732,0.02070220848048
1298,649.2505805,0.12189806841419999,0.211004912329,-0.17374826956279998
1299,649.7505805,0.03888154320888,-0.11476927605831999,0.25903720882402004
1300,650.2505805,-0.05350564659094,-0.06515483531776,-0.33796093722086
1301,650.7505805,0.07896649069028,-0.024959935174480002,0.3426279456516
1302,651.2505805,-0.31108288879991997,-0.135245458670194,-0.033615888803019994
1303,651.7505805,-0.0212031160593,0.168268814932494,0.151085186258298
1304,652.2505805,-0.06490438158822,-0.22215930527254,-0.03624260597976
1305,652.7505805,0.0375009927198,0.023249511349999995,0.1441457629264
1306,653.2505805,-0.07040216391418,-0.07586940374040001,0.16789618371704
1307,653.7503805,0.015656463791699996,0.31542613841739997,-0.21019246376474002
1308,654.2505805,-0.0283044205144,-0.25278195070077997,0.1326828876552
1309,654.7505805,-0.15958536817719998,0.19356471881046,-0.438637562404
1310,655.2505805,0.09328516385616,0.05029860466356,0.3798418344216
1311,655.7503805,-0.1319529033468,0.021722352878400006,-0.25279416680059996
1312,656.2505805000001,0.08723760218986,0.12191639425548001,0.1502055396088
1313,656.7505805000001,-0.1561675815186,-0.2455554231988,-0.2327822418428
1314,657.2505805000001,0.13386185529759997,0.0364503037286,0.606417675818
1315,657.7505805000001,0.05486176895811999,-0.05606516936772,-0.35906021186681997
1316,658.2505805000001,0.0190284401914,-0.12394445988252001,0.33625051826400004
1317,658.7505805000001,-0.08545387384386,0.03528354981388,-0.14139687537998
1318,659.2553844215687,-0.08578158769215685,0.10246358277960783,0.04833916829921568
1319,659.7555805,0.008187456322040817,-0.05461006278514286,-0.0346167128844898
1320,660.2505805000001,-0.07268679899239999,0.10950361750599999,-0.21718075261199998
1321,660.7505805000001,-0.08495601967272,-0.06462643772352,0.052705413723200006
1322,661.2505805000001,0.0014721827531799952,0.270833008659,-0.1616531474918
1323,661.7505805000001,0.035912738309540004,-0.102185460063,0.29397867532300004
1324,662.2505805000001,-0.12368179417878,-0.1126556832234,-0.86036029782448
1325,662.7505805000001,0.13329680317834,0.18517754537840003,-0.0049907649427999995
1326,663.2505805000001,0.0663460275182,-0.03251022577452001,-0.3219440672232
1327,663.7505805000001,0.1187704384262,0.072815080879966,0.5403526575934
1328,664.2505805000001,-0.1873827700352,-0.10681581670510001,-0.21578798314958
1329,664.7505805000001,0.06725010176454,0.2330204803118,0.06822747957122001
1330,665.2505805000001,-0.040665266687479995,-0.35524230695520004,0.1833877138882
1331,665.7503805,-0.07304109645660001,0.25711298552830003,-0.117951879626
1332,666.2505805000001,-0.0370978194249,-0.20289262662879998,0.3120847070692
1333,666.7505805000001,-0.0711718548473,0.18701014199654,-0.1846216599624
1334,667.2505805000001,0.18116416696119997,-0.10037730224379998,0.22524416754263998
1335,667.7503805,-0.0656129853776,-0.015112790845640003,-0.4334268885294
1336,668.2505805000001,0.021423028128880004,0.011655301352966002,0.6069246993982
1337,668.7505805000001,-0.13141534230739998,-0.029749114120880004,-0.30885934474652
1338,669.2505805000001,0.18022343409382,0.094305306544,0.3015045328314
1339,669.7505805000001,-0.09541097103806001,-0.06924763029546,-0.3077231351624
1340,670.2505805000001,0.018417568565999992,-0.03248578699834,0.311107323888
1341,670.7505805000001,0.16583146350792,0.1569800290564,0.051282099513600014
1342,671.2505805000001,-0.04486801749806,0.05434253045000001,0.14029731722039998
1343,671.7505805000001,-0.11065815651720001,-0.1389961708256,0.006371318169039996
1344,672.2505805000001,0.14120139718619998,-0.10228319979520001,0.17676593881820002
1345,672.7505805000001,-0.0943969356978,0.16278324738910002,-0.11704780056320001
1346,673.2505805000001,-0.1186604803032,0.186020543673966,-0.001496622670180001
1347,673.7505805000001,-0.060249592832820005,-0.31574378804496,0.43886358865360003
1348,674.2505805000001,-0.09611957309659999,0.2376141855214,-0.3182666591624
1349,674.7505805000001,0.0396512328316,-0.04732980207819999,0.5605844995708
1350,675.2503805,0.08183755392584001,0.0501642167572,-0.0341901029096
1351,675.7503805,0.004697550537979996,-0.1322033540142,-0.2445230618082
1352,676.2503805,-0.1539684727804,-0.12384672590279999,-0.5511527484926
1353,676.7505805000001,0.1619219243342,0.1034804905702,0.2691653475246
1354,677.2505805000001,-0.07047546954916001,0.057091425851,0.007067702269180005
1355,677.7505805000001,0.0422779493002,0.08674280186979999,0.0982087303524
1356,678.2503805,0.14744443349164002,-0.33218826549680003,-0.16448755765731998
1357,678.7505805000001,-0.2151771199584,0.13902060731922,-0.0578061367114
1358,679.2505805000001,-0.029046621250519995,-0.18654588712085998,0.1239383535882
1359,679.7505805000001,0.05118436073098,0.1363450202516,-0.1900094911222
1360,680.2505805000001,-0.115850506988,-0.1354287232137,0.22083372514506
1361,680.7505805000001,0.06777544905077999,0.1670715166226,-0.061153673476662
1362,681.2505805000001,-0.00442876736978,-0.15497639348988,0.3495795890542
1363,681.7505805000001,-0.34878546457959997,0.2333014802318,-0.75359334021596
1364,682.2503805,0.14738334490144,0.11276563442460001,0.24420541580812
1365,682.7505805000001,0.2137476925216,-0.1175792518358,-0.12037090245359999
1366,683.2503805,-0.09180686711036,-0.040549208070006004,0.4715937199516
1367,683.7505805000001,-0.059638728062799996,-0.17150639726320002,-0.5201574694146001
1368,684.2503805,0.0709275111294,0.1657031780639,0.54993102388002
1369,684.7505805000001,0.024233007019739995,-0.12957663617788,-0.0278859787806
1370,685.2505805000001,0.0915503083208,0.28460190221034,0.30927472724
1371,685.7505805000001,-0.048716465491800004,-0.34418565209286,-0.4345875269922
1372,686.2505805000001,0.0352896590564,0.1877676169966,-0.01138041477340001
1373,686.7505805000001,-0.011490367954679994,-0.09789718919020601,0.32435087469179996
1374,687.2505805000001,-0.17854966597309999,0.1399491244057,-0.15036436809019998
1375,687.7505805000001,0.085734869972,-0.11513579242860601,0.05794052728984
1376,688.2505805000001,-0.0789420588314,0.10646151272291998,-0.1434005102488
1377,688.7505805000001,-0.025967862977999995,-0.2047130040356,0.12574651587794
1378,689.2505805000001,-0.1005055850414,0.0445686990194,-0.203362998239884
1379,689.7505805000001,0.056230101630579996,-0.06532587908679999,0.39968271898526
1380,690.2505805000001,-0.051648615926298,0.021759002912880007,-0.29984297447716
1381,690.7505805000001,-0.14021179414576002,-0.03841117179806,0.28801663368020003
1382,691.2505805000001,0.017916662588400002,-0.0347704194144,-0.23913523416152
1383,691.7505805000001,0.01235779482216,-0.050335258544600005,0.791711296152
1384,692.2505805000001,0.0006536261612000038,-0.0708358774542,-0.36383717011039995
1385,692.7505805000001,0.186820775785762,0.011887429428400001,0.37021459590399997
1386,693.2505805000001,-0.1837786700362,0.04140441130938001,-0.12033425188939999
1387,693.7503805,0.37055668291239996,0.1437242655972,0.44150251777
1388,694.2505805000001,-0.220809292497,-0.21460901599020002,0.385877171429738
1389,694.7505805000001,0.20519558881984198,0.16108504110250202,0.84106916887848
1390,695.2505805000001,-0.0014477533018400067,-0.1593868364078,0.3282115394646
1391,695.7505805000001,0.01863748110792,0.24579976790708,-0.1653672000646
1392,696.2505805000001,-0.10536806434608,-0.040989024067599994,-0.2338818002338
1393,696.7505805000001,0.066089457905,0.07086031069359999,-0.6160510167038
1394,697.2505805000001,-0.158391130567,-0.2285856025688,-0.1508041879492
1395,697.7505805000001,0.091965690945382,0.3033187996568,0.023793177760600002
1396,698.2505805000001,0.0299873511524,-0.32548097264405995,0.6353909997086
1397,698.7505805000001,-0.10836130695712001,0.1306028874232,-0.143339425246
1398,699.2505805000001,0.07614429464212,-0.187792051869,0.27275723142994
1399,699.7505805000001,-0.0405553135068,0.19248349323220001,-0.037354378739220005
1400,700.2505805000001,0.08949779735378,-0.0887708664708,0.345535660444
1401,700.7503805,-0.18867780826887998,0.3042839644794,-0.2395628411657
1402,701.2505805000001,0.025466947276820005,-0.024349069338400003,0.37615220741759997
1403,701.7505805000001,-0.0742383976958,-0.3156826967336,-0.45308451516422
1404,702.2505805000001,-0.010329721572000001,0.21182346858620002,0.514403122662
1405,702.7505805000001,-0.08068913065700001,-0.06701186486380001,-0.16778623047078
1406,703.2503805,0.1243659602044,-0.0477818407112,0.657614259404
1407,703.7505805000001,0.0542753351006,-0.020097446365199997,-0.3877586344906
1408,704.2505805000001,-0.0809701249362,-0.1481835780496,0.1438892025496
1409,704.7505805000001,-0.15635083795838,0.07314495231456,-0.29463840960599996
1410,705.2505805000001,0.006139187700239994,0.1694294516748,0.0214352459844
1411,705.7503805,0.0835968458656,-0.15597821127368,-0.04178925939239999
1412,706.2505805000001,0.0377086838142,0.04195419474319401,0.14898380860080002
1413,706.7505805000001,0.0936150284468,0.0783250830096,0.18077320774409802
1414,707.2505805000001,0.47363400557810204,0.1601687420064,0.13197733508666
1415,707.7505805000001,-0.18282571852862003,0.31178538468924,-0.01179579658899999
1416,708.2505805000001,-0.0361570822319,0.2290009929096,-0.2595503352372
1417,708.7503805,-0.44278533637800005,-0.43795339937800004,0.11880709059385999
1418,709.2505805000001,0.0009590584592000017,-0.20997865662079998,-0.25628831952938
1419,709.7505805000001,0.252403217215104,0.0963333769498,0.34571892376346
1420,710.2503805,-0.0941159384694,0.0693453704425,-0.3937939801746
1421,710.7505805000001,0.33704464520919997,0.01985310414904001,0.0822407235262
1422,711.2505805000001,-0.129081837248796,0.4684355523514,-0.079956091194
1423,711.7505805000001,-0.46177101387454,0.4155468750688,0.22387583094198
1424,712.2505805000001,-0.33921931616626,-0.2945467804046,0.01777005781654
1425,712.7505805000001,0.15192817904582,-0.136564935753,0.1508897134708
1426,713.2505805000001,-0.010916147963,-0.12500737060460002,-0.2909121345254
1427,713.7505805000001,0.1094364257242,0.06326115690442,-0.08885028182039999
1428,714.2505805000001,-0.095362099353752,-0.40168024653348,0.2652191654682
1429,714.7505805000001,0.02291353630492,0.1874255333588,-0.3568610997456
1430,715.2505805000001,-0.045356714245200005,-0.17741956784250001,0.36610958643499997
1431,715.7505805000001,0.17633833458022,0.06039009612400001,0.27175541366736
1432,716.2505805000001,-0.09841642304600001,0.003078767806799996,0.37000690367940003
1433,716.7505805000001,-0.21807261800928,-0.09035911499560001,-0.6579563397552399
1434,717.2505805000001,0.24964210998064001,-0.1605352607128,0.21411421155154003
1435,717.7505805000001,-0.173015226675,0.0975184536594,-0.241517609207
1436,718.2505805000001,0.0373665988354,0.13060288131339998,0.3446926633283
1437,718.7505805000001,-0.0031703852850000036,-0.11744486287860001,-0.35892581801
1438,719.2505805000001,0.17211114896659999,-0.07435751713940002,0.22630401139819997
1439,719.7505805000001,-0.2446208007674,0.07035940729932,-0.4350029195418
1440,720.2505805000001,0.1226921901816,0.10594838874299999,0.026578723442220006
1441,720.7505805000001,-0.06335278292458002,-0.131494751018,-0.3289934463718
1442,721.2505805000001,0.06964469656248,-0.12438428400806,0.115044158021
1443,721.7505805000001,-0.09612873767174002,-0.17056260745233198,-0.0009193506628000048
1444,722.2505805000001,-0.015271620087200004,0.3224083214944,-0.0025411979561800104
1445,722.7505805000001,-0.13564252547980002,-0.17074892204640002,0.2597946829294
1446,723.2503805,-0.08391449509396001,0.36767950924540005,-0.2951881926264
1447,723.7505805000001,0.11108576446079999,-0.33073440446040003,0.324436395582
1448,724.2503805,-0.2194653892936,0.12978433133900003,-0.73299497367
1449,724.7505805000001,0.21624307363700002,-0.0864282066224,0.1949605457608
1450,725.2505805000001,-0.34366641412619997,0.15787189298540003,-0.5639686941896
1451,725.7505805000001,0.5764181102074,-0.302207019044,0.28970262094919996
1452,726.2505805000001,-0.4601583321576,0.19326539776680002,-0.45999950918960003
1453,726.7503805,0.24017370416600003,0.14147628224322,0.44075726551180006
1454,727.2505805000001,-0.2623603146358,0.28556706904358,-0.43822829125699997
1455,727.7503805,0.25570188736992,0.08615636453282001,0.1622151476914
1456,728.2505805000001,-0.0985141628584,-0.06394532297248,-0.4240928688996
1457,728.7505805000001,0.05172192250016001,0.2272172620868,0.396225230881
1458,729.2503805,0.019688173591599994,-0.10096373567059999,-0.292280473128
1459,729.7505805000001,-0.0037934708660399994,0.0512882078414,0.0552282893522
1460,730.2505805000001,-0.030024004913799994,-0.06775711809848,0.004001165024799997
1461,730.7505805000001,0.149496940220402,0.065948963757234,0.04468475635899999
1462,731.2505805000001,-0.09560644779129801,-0.19313100534255997,0.10485493604698
1463,731.7505805000001,-0.12685828789954,0.168794155434,-0.38751429302673995
1464,732.2505805000001,-0.0966693511698,-0.1208657053182,0.4303603462432
1465,732.7505805000001,-0.0176356678392,0.175073846195006,-0.1488738566112
1466,733.2505805000001,0.008057305157,-0.1696249320107,0.08682221386016
1467,733.7505805000001,0.26261688006324,-0.16388280103094,-0.387367681325742
1468,734.2505805000001,-0.017232498646800008,-0.1737055072854,0.3450347521162
1469,734.7505805000001,-0.25655710066072,0.1073289377322,-0.31230461861119996
1470,735.2505805000001,0.2773142829338,0.0681114252482,0.33041065060382
1471,735.7503805,-0.2191233050032,0.04085463543446,-0.27192645657624
1472,736.2505805000001,0.09669378223283999,0.0359432825252,0.22341157913259999
1473,736.7505805000001,-0.11476316665729999,0.18775539459420001,-0.040958483500344
1474,737.2505805000001,0.18248363678316,0.025314237706399997,0.219257697472
1475,737.7505805000001,0.0165971950022,-0.06234485998679999,-0.0006169748613999971
1476,738.2505805000001,-0.0178677920304,0.01937663208868,-0.08503848121039999
1477,738.7505805000001,-0.015851943910959995,-0.13869074159148,0.25433354713716
1478,739.2505805000001,-0.006517928199399998,0.1451659031098,-0.11337039038819999
1479,739.7503805,-0.035143049594720005,-0.383036650236,0.3652543783016
1480,740.2505805000001,-0.03588830446126,0.23552502446399998,-0.4870852462198
1481,740.7503805,0.22905596906757,-0.05125155599176,0.5554043679918199
1482,741.2505805000001,-0.313807344857818,0.005510005790000011,-0.5700406885892
1483,741.7505805000001,0.20751687619392,-0.0529375387272,0.286281780759
1484,742.2505805000001,-0.100982057488,0.235586113728406,-0.036584694519600024
1485,742.7503805,0.103144518359,-0.07985224285459999,0.5826978050234
1486,743.2505805000001,-0.12523338798204,-0.14262470615831999,-0.491740036008
1487,743.7505805000001,0.14195886283602,0.0790336888232,0.59335128172326
1488,744.2505805000001,-0.1870651205918,-0.0041905359794,-0.2875768131068
1489,744.7503805,0.031746641512184,0.1008904239396,0.45314560366
1490,745.2505805000001,0.08670003876018001,-0.13094497370660002,-0.251193703842
1491,745.7505805000001,-0.007483097634400004,0.0831020511532,0.035924956631999995
1492,746.2505805000001,-0.08374345606636,-0.182917351576,0.018112139394
1493,746.7505805000001,-0.0612269792358,0.16539774691759998,0.1687025292146
1494,747.2505805000001,0.04264447301012,-0.12031592592182,-0.0260778200686
1495,747.7505805000001,0.1298270902722,-0.07072592268894601,-0.16805501072999998
1496,748.2503805,0.04470919442018,-0.07111687741667999,0.3301540899266
1497,748.7505805000001,-0.2552498488044,0.06102539166638,-0.15953955434724
1498,749.2505805000001,0.1806143869482,0.0397428670554,0.3145037323262
1499,749.7505805000001,-0.119442389627984,0.020854922355599995,-0.20473133142448
1500,750.2505805000001,0.1481652528418,-0.12371233589040001,0.18592891327219999
1501,750.7505805000001,-0.1520870040646,0.1582139782021,-0.34653748186628003
1502,751.2505805000001,0.11850166041880002,-0.1232480769805,0.2862573465714
1503,751.7505805000001,-0.13198955170659998,0.06546027051296,-0.17009529673506
1504,752.2505805000001,0.09858746633519999,-0.0017348548088,0.28255550009339997
1505,752.7505805000001,-0.14563627525359998,-0.0184725469732,0.040628617293980006
1506,753.2505805000001,0.005491674657379997,0.1523130240593,-0.070719822651
1507,753.7505805000001,0.0875674657536,0.022760826202799997,-0.054568550887599994
1508,754.2505805000001,-0.039455756469800006,0.238310573671,0.009963197258000003
1509,754.7505805000001,-0.06172788552979799,-0.4467498461148,0.020922118043419993
1510,755.2505805000001,-0.06641932770919999,0.057946635966899994,-0.224486697312
1511,755.7505805000001,0.33104594840940005,-0.2473024979012,-0.030378306858140004
1512,756.2505805000001,0.03423897476334,0.383757469428,-0.1797713924298
1513,756.7505805000001,-0.21290470287080002,-0.0623692928992,0.3575452673464
1514,757.2505805000001,-0.44076948515959996,-0.04614473007340001,-0.493169458194
1515,757.7505805000001,0.32829705552552,0.0038484436274000087,0.5750131151244
1516,758.2505805000001,0.4544039826418,0.021416917514999998,-0.2212368992738
1517,758.7505805000001,0.031282382122000005,0.1486844874522,0.20974042357000003
1518,759.2505805000001,0.14068826643895999,-0.06756164176856,-0.07378635507118
1519,759.7505805000001,-0.74152263447148,0.6869907416458,0.07674294192131999
1520,760.2505805000001,-0.2626535268082,-0.6224345522646,-0.2900447076364
1521,760.7505805000001,0.44759895660219995,0.11092082634020001,0.1284831931822
1522,761.2505805000001,0.27537174285380006,-0.2634904121278,-0.04176482838260001
1523,761.7505805000001,0.23682616692124,-0.04894249022199999,-0.08250950746939999
1524,762.2505805000001,-0.001753184734979999,-0.1613660377212,0.2328433274362
1525,762.7505805000001,-0.41611498645962003,-0.014538582392900005,-0.09943046156419999
1526,763.2505805000001,-0.43962105572786003,-0.2384205250752,0.37114311835720004
1527,763.7503805,-0.20419377139759998,0.1788734262686,-0.37827800820679996
1528,764.2505805000001,0.37484495385919997,0.0999985639317,0.0028160885735999995
1529,764.7505805000001,-0.37089877030331997,-0.050335255979579996,-0.18614882365944
1530,765.2505805000001,0.4895897937258,0.0124372099242,0.33820528415782003
1531,765.7503805,-0.23422388029792,-0.27782130018100004,-0.500793057211
1532,766.2505805000001,0.008265002163600006,0.15774972046088,0.2487624704604
1533,766.7503805,0.06116588957639999,-0.06735395033076,0.3863902977614
1534,767.2505805000001,0.13512939472441998,0.03534463995919999,-0.006725625398000006
1535,767.7503805,-0.06869174390276,-0.06588787440959999,0.1252456035244
1536,768.2505805000001,-0.06028624525058,0.1171272021208,-0.1712925915234
1537,768.7505805000001,-0.16239840255984,-0.1413174561416,0.104146338138
1538,769.2503805,-0.11767088306093999,0.2287688657526,-0.04649292349351999
1539,769.7503805,-0.2769477666032,-0.07595492333480001,-0.0767551564624
1540,770.2503805,0.07830675650379999,0.06183173384,-0.57331492712566
1541,770.7505805000001,-0.04010327042,-0.13386490877658,0.44443467254220004
1542,771.2505805000001,0.19143891394756,0.1335472573425,-0.1006399710028
1543,771.7505805000001,0.18831128529053998,-0.158788185991366,0.3214675892148
1544,772.2505805000001,-0.16652784603375997,0.018619159253239995,-0.45302342414560004
1545,772.7505805000001,0.1288863607438,0.09059124864424,0.3634095656924
1546,773.2505805000001,-0.3217608099006,-0.04039038014079999,-0.32337348702599994
1547,773.7503805,0.3176313595652,0.1287336471342,0.1678717547472
1548,774.2505805000001,0.0915503046883,0.161280519213,0.25498106777777996
1549,774.7505805000001,0.1582323028422,0.321058306986,0.21218387817202
1550,775.2505805000001,0.01426369602524,-0.473493507349,-0.40023249783338
1551,775.7503805,-0.34376415267,-0.20569038879,-1.4520805458336
1552,776.2505805000001,0.12873975060839998,-0.13044405662326,0.646801947878
1553,776.7503805,-0.68022847500982,0.2328250079898,-0.862693779844
1554,777.2505805000001,0.007874043955199994,0.11310772544102,-0.05732966026874
1555,777.7505805000001,-0.010341941859200001,-0.35023321218912,-0.08126334138840001
1556,778.2503805,0.1261008133716,-0.02757444219580001,0.27886587737060003
1557,778.7505805000001,-0.19203756090340002,0.1505903835514,-0.827117014852
1558,779.2505805000001,0.2477484342826,-0.03012784649479999,0.481734070032
1559,779.7505805000001,-0.2313650374822,0.16136604051679998,-0.6097957664879999
1560,780.2505805000001,0.10189835373179999,-0.1613293856192,0.47209462748459996
1561,780.7505805000001,-0.2995253229968,-0.2244195035458,-0.945588138028
1562,781.2505805000001,0.12170259228180001,0.0956980767084,0.5145130783082
1563,781.7505805000001,-0.0326018546472,0.16070630420824,0.017354670225880005
1564,782.2505805000001,-0.0017043148237999876,0.11566113713693202,0.1545304686416
1565,782.7505805000001,-0.1115988857516,-0.143577654103,-0.03790415880860001
1566,783.2505805000001,0.09122043497480002,0.252397106019,-0.103669860982
1567,783.7505805000001,-0.17818314729339998,-0.52684643268,0.10729840101140001
1568,784.2505805000001,-0.16183640484200001,0.3795058478728,-0.4950753566732
1569,784.7505805000001,-0.025149299472400008,-0.40893731379404,0.6726659726081999
1570,785.2505805000001,-0.11448216414620001,-0.138031002888,0.036242607462599996
1571,785.7503805,0.63346066951,-0.14649759160268,0.717760006907158
1572,786.2503805,-0.220002948574,0.08632741385710002,0.0459309229206
1573,786.7505805000001,0.4128896157245,0.20721754807436,0.4590221222158
1574,787.2505805000001,-0.3895545776116,-0.11889871961466002,-0.21636219948819999
1575,787.7503805,0.05739074700916,0.3529210251594,0.28571977848637997
1576,788.2505805000001,0.008790343702000002,-0.043163704554,0.1538951675638
1577,788.7505805000001,-0.016646066353000002,0.030995276981200005,-0.0868588629164
1578,789.2505805000001,0.031685559759,-0.04565603338120001,-0.1461860477964
1579,789.7505805000001,-0.20768791927666,0.09586911599982001,-0.3194761682278
1580,790.2503805,0.06739670917342201,-0.2281213446812,0.17504330366800003
1581,790.7505805000001,-0.123413012456,0.233790170348,-0.46436107310200003
1582,791.2505805000001,0.20142044321019997,-0.056676031992766,0.5966010871686
1583,791.7505805000001,-0.03955349532839999,0.22328329247620002,-0.6778827630691999
1584,792.2503805,0.28854198119426,0.09385326430060001,0.11891704808505998
1585,792.7505805000001,-0.053322389738000006,-0.08816000364920001,-0.6181523869566
1586,793.2503805,0.23782798472480005,-0.10589951789,-0.2085431220972
1587,793.7505805000001,-0.22419347996608,-0.03557676386082401,0.01588859608942
1588,794.2505805000001,0.14347381163064,0.1861793676947,-0.2097037768134
1589,794.7505805000001,-0.18563569420572001,-0.2507722104724,0.026981895755200005
1590,795.2505805000001,-0.1086300830806,0.04521621009754,-0.5491002442078
1591,795.7503805,0.3029583889444,-0.0864495872054,0.2577055240788
1592,796.2505805000001,-0.1780731893706,-0.158042935942314,-0.60148800537976
1593,796.7505805000001,0.25110818251359995,0.20538495374884,0.41646928459557997
1594,797.2505805000001,-0.18248363689868,-0.1107497837464,-0.2135155656136
1595,797.7505805000001,0.21752283978192,0.09205732207299999,0.2778762785934
1596,798.2505805000001,0.0057360206762,-0.14558129281020002,-0.1286420148554
1597,798.7505805000001,-0.17123150696787998,0.079607896256806,-0.08033482683840401
1598,799.2505805000001,-0.236471865649,-0.166741651656806,0.0710863343568
1599,799.7505805000001,0.08634573517542,0.20653338403260002,-0.006493489390562002
1600,800.2505805000001,-0.0527848230198,-0.1489166088968,0.014898989822599996
1601,800.7505805000001,-0.011038324875780003,0.14685189055964,0.11189210095510001
1602,801.2505805000001,0.2299722629172,-0.07173996142136001,0.29538366594094
1603,801.7505805000001,-0.228628360728,0.12053583644620001,-0.46091580415572
1604,802.2505805000001,0.3282848460674,-0.08976047241828,0.36228557219064
1605,802.7505805000001,-0.378571232795,-0.2175656039796,-0.22476769681570002
1606,803.2505805000001,0.29434519817279997,0.20206185268384,0.18541578858708
1607,803.7505805000001,-0.033884672074400005,-0.0734625993584,-0.1594418174102
1608,804.2505805000001,-0.15148835698205,0.051508119915799996,0.3079796938532
1609,804.7505805000001,-0.152758956267,-0.1937907421616,0.05604684373884
1610,805.2505805000001,0.17420030456827998,0.05753124557372,0.013090827246799996
1611,805.7505805000001,-0.17707137345795998,-0.1300164592976,0.2220310188836
1612,806.2503805,0.00695774829162,0.129393377647,-0.1509630156706
1613,806.7505805000001,0.060872674950999996,0.050933903518,0.532741287938
1614,807.2503805,-0.297875990411,-0.09891122074679998,-0.23621530555739997
