Time (s),Accelerometer_X,Accelerometer_Y,Accelerometer_Z
10.25147743,1.7693737251817716,-0.17014719029185493,9.681891795108712
10.752735046600002,1.3452818163423519,-0.07817744461332894,9.609891043974343
11.2539929,1.0856267513306932,0.5159911514005283,9.822678406560044
11.750237593469388,1.2858748943689167,0.14697499387031204,9.798430318918983
12.24648274,1.1197537763362218,0.06939355236420644,9.749006558327787
12.7477405384,1.3757902147247763,-0.20604066541185195,9.730221627081251
13.2489983,1.6236239836580626,-0.3465180951344661,9.72309751297401
13.750256325,1.6879375107763772,-0.4729132085451579,9.661881648533768
14.251514010000001,1.851605295935672,-0.6085038100957414,9.583391573446113
14.7527715634,1.650217585608107,-0.3896070788452349,9.739058355967622
15.25402924,1.632572596499012,-0.4902574440690985,9.695247828798992
15.750274416938776,1.6335107141850882,-0.4780000256955603,9.69175807500059
16.2465196218,1.6465748577845667,-0.47848124093207306,9.686668604186568
16.747778106400002,1.5918763895783263,-0.4519707389727725,9.692232796316574
17.24903605,1.6275074041297202,-0.44976750654499964,9.698084617719843
17.75029399,1.5905995161241457,-0.4490128318992187,9.696762343642742
18.25155193,1.5789298266258132,-0.43437649688109226,9.69642672953763
18.7528088858,1.5522756661453163,-0.41980945249110735,9.70218350980206
19.2540669824,1.5163967991059215,-0.4124330077587511,9.713870972191227
19.750313267755104,1.5519300609888524,-0.41578717665474096,9.704591364035682
20.246559050000002,1.5536727983764362,-0.4201903755842884,9.70639165864266
20.7478171316,1.5774984688035505,-0.4262744050634994,9.69745861655741
21.24907572,1.6063638998901373,-0.4385565195541679,9.695808921026073
21.750338178399996,1.6035147435454333,-0.4365880386792619,9.702758633347269
22.251597139999998,1.5575933716109807,-0.40667619902036806,9.696113258628664
22.7528521968,1.55633574586538,-0.40877894096300893,9.70620794104015
23.25411102,1.5495686864159879,-0.41117508112636536,9.706240559501042
23.750358217755103,1.547567433711154,-0.41815842585859053,9.705368365111843
24.246604849999997,1.541770569033937,-0.40941997052194856,9.710824992913665
24.747863935,1.548160284083764,-0.4038265646886991,9.703568416444696
25.24912332,1.5561033413650378,-0.4030226837720927,9.704251328783188
25.75038238,1.5557334253427957,-0.40348620657634626,9.703968538272038
26.25164194,1.5527818233874038,-0.40177975798710136,9.707017132775029
26.75290168,1.543786027522612,-0.4027579773794324,9.710805892371376
27.25416158,1.5410210323932634,-0.4078556267763348,9.706075936443895
27.7504089677551,1.5510060718326522,-0.40657211741876464,9.708058338509138
28.24665638,1.5553683725264005,-0.4056536014359876,9.70662124587412
28.747916682200003,1.5722204920084983,-0.41738329462084456,9.699933784417995
29.249177009999997,1.5534357150480065,-0.4211219323513062,9.703663519488877
29.750437091600002,1.5392520607624904,-0.4150400858491537,9.7086749245235
30.2516976324,1.530648827023097,-0.4159270804469599,9.709395190230085
30.752958682600003,1.5292600638180158,-0.4078080786009962,9.71177635150449
31.25421949,1.5186323983122174,-0.40087905105460747,9.709507622009387
31.750467549387757,1.5251870737115176,-0.403251492753786,9.714432834174199
32.24671596,1.5218118178620303,-0.4020763577058081,9.713654606861116
32.747977295,1.5588038303716483,-0.38167244962526115,9.720920842386096
33.249238569999996,1.2312860832642718,-0.15979276247081572,9.744699480187414
33.7505002448,0.9897324108207834,0.07066408624820625,9.789919404610776
34.25176173,0.721182783674141,0.15945724421395144,9.834337315045412
34.7530230902,0.42462426331286623,0.5621278177639043,9.773853138862297
35.254284659999996,0.5367004287654489,0.13138137434646047,9.860083025313156
35.75053355816327,0.8131257654153781,-0.19021053430713536,9.797161236758681
36.2467827926,0.7954164122633763,-0.06833570522483289,9.811120601227449
36.748044562800004,0.8241904156471126,-0.04893404671421154,9.808231786542148
37.24930659,0.8128478559525246,-0.054425678948543776,9.807574323977729
37.75056877,0.7896429767368641,-0.04702840376561814,9.81350243422412
38.25183097,0.801948521360572,-0.05088665466805262,9.810457680891165
38.753093563,0.8096789508903842,-0.049282754263792465,9.807796291081727
39.2543560712,0.8078061614331132,-0.05646650585595173,9.810535595618207
39.750605607755105,0.809341900871075,-0.05452545323721282,9.805381693136075
40.24685564,0.807179500304803,-0.058999628907258,9.809042564734348
40.748118490399996,0.8076137098091667,-0.06765334872075804,9.808024800541217
41.24938138,0.8038496372134403,-0.07799494651852468,9.808909602895842
41.750644570000006,0.7975251840009357,-0.06587598627473881,9.808692631728636
42.25190771,0.7889483714680603,-0.05778581395018504,9.812695570548273
42.753170698599995,0.7893087306622768,-0.04337566550151309,9.80813130025552
43.24942131612245,0.7944784578695754,0.12427359027215078,9.818524444179651
43.745672169,0.798493899782891,0.35327093870673854,9.814952570256148
44.246935650000005,0.7940516324070424,0.5471876054624056,9.817845749815506
44.748198709,0.7940987589521127,0.7460109859484099,9.815281572050354
45.249462291600004,0.8017270337281119,0.8075335919895498,9.815839089593041
45.7507263534,0.7958429418781805,0.8056489791478683,9.822582177831613
46.25199013,0.8025155945969661,0.8027573306765217,9.819685689697332
46.753253816400004,0.7896346768134691,0.8020371837849344,9.811130915370713
47.249505035714286,0.7989270160180916,0.8016451981631945,9.816940286287819
47.745755763999995,0.7984162914719575,0.8039408475940633,9.81056782325012
48.247019689999995,0.7910208291182852,0.8004385420235401,9.821691586913385
48.748284590000004,0.8023503397134015,0.7978299769358042,9.82272073245633
49.249548729999994,0.8008189795197589,0.7891902044039645,9.822435447375694
49.750812175,0.8013337941987604,0.8036489368685404,9.81282736284318
50.25207626,0.8071467825837954,0.7988939586409856,9.82563731427245
50.753340628,0.7957733297925867,0.7968217853538231,9.808130717356647
51.24959229428571,0.8177799509799604,0.7982717910684115,9.823038796623399
51.745844614999996,0.7868170823642114,0.7977384120500234,9.809187254201504
52.24710906999999,0.812355267437284,0.7838251400902532,9.811232268355955
52.748373236999996,0.8278869903588822,0.7848432846270034,9.834484027494554
53.24963764,0.8413717304949077,0.7961390952292655,9.803107190675371
53.750902103,0.7994699880870493,0.7895393817867721,9.849501925365063
54.252166669999994,0.8110889332615685,0.7960282131566262,9.809136394364696
54.753431013,0.8558120604327225,0.8015035824860587,9.825208077022195
55.24968307142857,0.8010235749372422,0.8128733091884163,9.81791283389152
55.7459352304,0.8368333025014849,0.8065732317517944,9.805239385237341
56.24720008,0.8352566958942511,0.7864836654858703,9.835316771977993
56.748464834400004,0.8078834613521214,0.7742350670550661,9.818938369581037
57.24972968,0.8496037714189221,0.7509349119689304,9.811911750795542
57.750995443,0.7895463796264758,0.7349820646936351,9.81488393431264
58.25226053,0.8469013283549753,0.7111519442516139,9.829516693228804
58.753525498,0.8311985101771694,0.6874792839341783,9.825612398325482
59.24977790306123,0.8236615940812119,0.6555680027983342,9.820762174772755
59.7460300804,0.815369745804758,0.6577792842886677,9.779796470419747
60.24729523,0.8131734487085382,0.6163377457843432,9.892161218220169
60.74856028999999,0.8111006089257947,0.6148089528508112,9.735015953013122
61.2498256,0.8270649078430291,0.5932828104248464,9.861221495227406
61.75109166,0.7730443674431468,0.5610998590957965,9.806252661611108
62.252357149999995,0.8045262619227218,0.5522787978895427,9.810904384114782
62.753621835000004,0.7499045963000193,0.5440614294793021,9.8396647232845
63.24987460040816,0.778952215002453,0.5307551275920659,9.773562702382193
63.74612759440001,0.7320427198467918,0.5061879947115905,9.866439045560513
64.24739317,0.799777806398723,0.5123201698062578,9.8338229138538
64.7486594528,0.7350113006967187,0.4987350783574389,9.791031760041284
65.2499252316,0.8397513323251004,0.47176000115918837,9.808448762579422
65.751190025,0.764917857000369,0.4721492150789639,9.826321485616763
66.25245571,0.8119671161607859,0.4688421522855721,9.80142736345463
66.7537221178,0.8208605238059363,0.4529821473336616,9.812877857596073
67.24997546346938,0.7733149066431562,0.44475573860988815,9.827436604478772
67.7462289912,0.8053827829025648,0.41720344151605865,9.874780357047493
68.24749504,0.8169894350796949,0.409211633494656,9.803465749473151
68.7487611496,0.8233198346525132,0.43046182347024936,9.848460973715865
69.2500273,0.917100396858196,0.42982388090890195,9.789999217329509
69.7512933904,0.8607635819170503,0.39780522368402005,9.817375543773611
70.25255967,0.9043324933310974,0.4031187011710483,9.798703891824207
70.7538257444,0.9016057989658028,0.4034984993144728,9.761230285565595
71.25007946,0.8286426443813145,0.3639862933448548,9.821603299377355
71.74633389,0.8792321464826516,0.3740483486875002,9.7904812787602
72.24760062,0.8249642883706142,0.366316967284245,9.852393915993922
72.748867515,0.759924563456793,0.3777393593365486,9.775585161926319
73.25013443,0.800351481366784,0.3623853554733589,9.761363366019802
73.75140064920001,0.7273249271708384,0.12080907450624573,9.93959780366132
74.2526675318,0.6984579837129908,-0.08405452279249945,9.771724936361396
74.7539374298,0.6983036216090048,-0.103227528027195,9.888130680379534
75.25019237836734,0.6993468268888922,-0.10477413268065376,9.759535053707511
75.7464445832,0.744252756233213,-0.10261095542208779,9.883061433919233
76.24771162,0.8392006031010507,-0.09325169025210225,9.7409112986431
76.7489792918,0.6988702674355309,-0.09630522326754075,9.923237207591999
77.25024695,0.7261603413231776,-0.08866874980646781,9.76541608751419
77.75151479,0.8075456032257072,-0.10567368152849696,9.68701581346396
78.25278265,0.6878797035884558,-0.09951271248131154,9.921631812717887
78.75405080499999,0.9392693238434764,-0.13191274607672462,9.837580577718962
79.25030622530612,0.6216719486995974,-0.09486485686853718,9.727368057251535
79.7465618836,0.7184845412342803,-0.14297296519627575,9.882909823193307
80.24783017,0.7511747995635164,-0.08807198104357689,9.860820260229971
80.74909838640001,0.8432399480106202,-0.06419594222118083,9.841955245742486
81.25036688,0.6558213502917343,-0.11287868081313483,9.793948491199876
81.7516352532,0.9156375742927593,-0.10524242902177333,9.774230602742696
82.252904,0.7624986370595801,-0.06378428851983067,9.744826671063516
82.7541729512,0.7922838225051749,-0.12755736545813742,9.882331940111134
83.25042941836735,0.8099333064230445,-0.06285507851263082,9.780858334511734
83.74668623,0.8627586923397851,-0.1318973473258744,9.804161630096553
84.24795569,0.7108266680765649,-0.09312199541309284,9.851445868075471
84.74922529719998,0.9224969650004792,-0.09378319540449283,9.760067875676874
85.25049501,0.7766891876009839,-0.10491172426803366,9.904168193199057
85.7517647628,0.8916048230216339,-0.08479227238523683,9.804037714876104
86.25303465,0.8474989775561488,-0.09234872936725523,9.833098557250512
86.75430521640001,0.7929801891436948,-0.08551884083310736,9.89849224619844
87.25056282224489,0.8527765527340853,-0.10228015963335087,9.804550535967941
87.74682028,0.7352082070544758,-0.07916870823028628,9.879516021049689
88.24809072,0.7467865688204158,-0.08959743420794072,9.825372550654288
88.74936102080001,0.7194498223049696,-0.0876643176714896,9.873944768682291
89.25063162000001,0.6875476824240802,-0.07436806522566669,9.779840060201195
89.75190275920001,0.6993849413944798,-0.07121323991301784,9.768675398816699
90.25317371999999,0.7455918032275229,-0.089795391629547,9.754738670731097
90.7494315144898,0.5932878179261641,-0.10439035498016344,9.796913039947594
91.24568985,0.7629508740054913,-0.09238984267102963,9.755432634027281
91.74696113,0.7993841684173348,-0.10903792901412303,9.813038376388183
92.24823247,0.7507499842091744,-0.1022938527034154,9.75079525956403
92.7495044466,0.7999313679461422,-0.11823406705054822,9.824793644868205
93.25077614,0.7612970433857426,-0.0925015103790679,9.949629949178302
93.752048045,0.808014922522136,-0.08167734693891748,9.722884285531972
94.25331983,0.8293126113229525,-0.07963429125514683,9.871432535238728
94.74957854673468,0.7430540680107616,-0.10509863358260738,9.806303666344075
95.24583774999999,0.8382197555179204,-0.046817332610143134,9.73490035670439
95.7471097034,0.6579761676547649,-0.09505595380610686,9.751213300309189
96.24838186000001,0.6952470220027829,-0.09390998243236069,9.829885199290514
96.74965468939999,0.7093169998145558,-0.08704360532739246,9.698004153694475
97.25092717,0.6534021775557644,-0.13873065311488333,9.858614418733914
97.75219959719999,0.7469262756604382,-0.11002469795685353,9.761740265424807
98.25347212999999,0.6931400883021921,-0.0380220798760616,9.738156951318022
98.74973106306122,0.7358605811080176,-0.04142763968102564,9.84774278990819
99.24599078,0.6645749148745976,-0.028021892168037122,9.783721841107488
99.747264444,0.7218437302295615,-0.01813232525834368,9.94190213749592
100.24853752000001,0.6997947474280973,-0.0027202588779949954,9.815926232963914
100.74980986599999,0.7149155330955321,0.007671388811003527,9.887066504699717
101.25108272,0.6937585993915597,0.09634493333103218,9.849170954107395
101.752356292,0.650450844768204,0.12885816896158164,9.90644693167296
102.25362966,0.6815298591570514,0.21339837650236884,9.826217853411983
102.74989022244898,0.670811649973471,0.25853400092182854,9.881598280757743
103.24615086,0.7052384031955308,0.3503366879402581,9.817640740759305
103.74742406200001,0.6675088153984852,0.3393778158143079,9.814534025587678
104.24869753200001,0.7035019717167741,0.34561516777641776,9.851146992997396
104.74997123600001,0.6159701033111389,0.33981878818633815,9.77400438287982
105.251244976,0.6927517809495929,0.3051759952753037,9.918536154810107
105.75251874,0.6623742306894959,0.3347905473467426,9.81747828447015
106.25379269999999,0.717888951807875,0.3509584466821384,9.828411313950099
106.75005453877552,0.7475533402519404,0.2760095296668707,9.724362183330111
107.24631604,0.836999231727045,0.32466635876996286,9.859489103436754
107.74758990000001,0.8148829079891506,0.2891549452403327,9.838709342279374
108.24886414000001,0.7586106933176763,0.31472909827919293,9.78275612230588
108.750139,0.9256995574937105,0.30003391807417573,9.719091839374833
109.25141368,0.8023104441873956,0.26332196967582766,9.952674407657717
109.7526885,0.821109791534722,0.3032512236160473,9.86392702746669
110.25396301999999,0.8240764755544064,0.2779851658510762,9.892049381731255
110.75022508571429,0.8028725956116554,0.316748095899506,9.82162323105406
111.24648730000001,0.783361954762321,0.3008909898638031,9.809329212978758
111.747762456,0.8667942731961658,0.29730700339277427,9.817575966286231
112.2490375,0.8392963428560839,0.28577697645237854,9.785218544588647
112.750313,0.8093971118071482,0.26954484756287167,9.841124690173572
113.25158821999999,0.8628493327140083,0.27308472213401724,9.824404928460282
113.75286306,0.7806220761514213,0.26715999225209414,9.797396367034755
114.25413848,0.8984800403034491,0.26927995699018686,9.8221500262487
114.75040117959183,0.8153256020081645,0.2688552568666542,9.76321857148055
115.24666398,0.8107204437069799,0.24472568521125612,9.950012311578984
115.747940422,0.8654385135999999,0.27951669572127846,9.695291927252146
116.24921640000001,0.83527370043821,0.23385750376854283,9.856844333172278
116.750492242,0.7882845396315662,0.2675371837311358,9.762430777596128
117.25176818,0.8446947485167026,0.2300072822439249,9.911733886137627
117.753044396,0.9310592616806201,0.25462429382032975,10.100864437397352
118.25432062,0.6553924630795133,0.3126091361878014,9.458905645823624
118.75058365918368,0.9513901853255975,0.22675303992258858,9.884587356641577
119.24684713999999,0.8516713506004383,0.2217378313062242,9.939408345898453
119.74812389200001,0.7562092842984751,0.2684150385990106,9.78771355912793
120.24940048,0.895140515290916,0.25292653587860825,9.789936593718208
120.75067637599999,0.8164069343086067,0.2570910094236644,9.75602620151152
121.25195285,0.804162397815569,0.2628686814600049,9.766762341011091
121.753232004,0.857192878593611,0.2271486026232461,9.928241742440122
122.24949683061224,0.7914474199957897,0.25961879978530494,9.67729164713191
122.74575958,0.7550247715922674,0.19363493945460264,9.934244794895942
123.24703616000001,1.0525605114534933,0.14168150016057754,9.758557745657807
123.748312434,0.7238895862205698,-0.11249917219668802,9.80297830128558
124.249589316,0.8083755741419923,-0.0965157475065903,9.793885418322203
124.750867308,0.8797460008231135,-0.1173228714280279,9.790714340012606
125.25214474,0.8429149351203066,-0.1160501262222074,9.8276332760091
125.75342176599999,0.8472949555456674,-0.09786948053826157,9.821076018131826
126.24968624489797,0.9130528360688142,-0.10966126080405972,9.725378333181014
126.74595065199999,0.8598195211170602,-0.09836532625945306,9.796947567941428
127.24722809999999,0.7602345185624381,-0.12914991731233383,9.884295516470939
127.74850604,1.0417358253133988,-0.08290988311099053,9.648613849402913
128.24978388,0.835266663223911,-0.14200328152121,9.969349097823432
128.751061088,0.736846564255075,-0.0851257651067068,9.658029325222355
129.25233876000001,0.8609091725542767,-0.11512200337225272,9.797497519653419
129.7536167,0.7485118883341495,-0.11721078837950659,9.70442708429218
130.24988196938776,1.115125809628071,-0.133373519196889,9.936555327065157
130.746147176,0.8556988169276524,-0.11791665797245407,9.923607401963187
131.247425396,0.808356236156466,-0.04846697694017524,9.571908939540727
131.748704384,0.8665388678121093,-0.13055835696084414,9.690978046776102
132.24998312,0.8666417167588754,-0.1328225638477309,10.01958252680316
132.751261576,0.8886280339103735,-0.08934407951898765,9.692734841901933
133.25254034,0.9104022953339385,-0.1036816120481455,9.80842022005471
133.753820008,0.7486281469235072,-0.1029241559283986,9.712212366979664
134.25008656530613,1.05215675430084,-0.14438180463348266,10.078644341127447
134.746353012,0.8264263961855605,-0.07173517619275552,9.674105893101574
135.24763252,0.8391586517494009,-0.1100386785472515,9.727650604525756
135.748912106,0.8239919566058417,-0.09134548767423092,9.885338026583915
136.25019184,1.0769183792276673,-0.08065371858958921,9.599454082370169
136.751471756,0.7078594881236002,-0.17785710516575487,10.015299474507554
137.2527518,0.8861933933491603,-0.07384253387030387,9.843992029121752
137.754031712,1.0872828998902386,-0.08796180524281728,9.744604125508019
138.25029911020408,1.0115121160372276,-0.087758748875702,9.81907604937581
138.746567176,1.011058226910108,-0.07279981531269737,9.770690626574064
139.2478478,1.1543021594139278,-0.09050727860025418,9.828640643860513
139.749128016,1.0751161068492276,-0.08210312499677323,9.744629015420365
140.25040858,1.210905049231495,-0.09050344728831185,9.834931657746683
140.751689332,1.1986432072995972,-0.09052391699706977,9.825226341269207
141.25297039999998,1.0856368309793722,-0.1053482028332912,9.852269414494927
141.75425242,1.1980709364409676,-0.07916386253615357,9.818357382262663
142.25052129795918,1.2372913978947988,-0.07218975308181388,9.87037165926828
142.746789696,1.1348337355474203,0.03073500584762697,9.813190072792402
143.24807142,1.1303054224225955,0.05689338718372533,9.896964906745643
143.749353238,1.2983685627247277,0.17563888300964642,9.66336910921122
144.25063544,1.0960387999690566,0.1764337590751657,9.813081103985787
144.75191794,1.301450949702285,0.28599630536598114,9.670767458475975
145.25320056,1.2731205570757043,0.2431123253179641,9.702690865782406
145.7494708755102,1.1315795240920838,0.23393968743091142,9.823853472563943
146.24574134,1.3246548347202494,0.2542034901412748,9.685206155117394
146.747024068,1.2954632391471117,0.25310429991559635,9.760944377863874
147.24830746,1.271035806741808,0.2550851830149138,9.716974810371449
147.749591234,1.2450311374859873,0.22595714375244458,9.726175360570258
148.25087522,1.360814112674223,0.2960913901013889,9.683929468754584
148.752159662,1.1585401761246563,0.216402972357522,9.743690621641194
149.25344404,1.2299120579825156,0.24288402188354752,9.756501047857862
149.749715977551,1.1947806044810223,0.23888979018867088,9.632697299221665
150.24598786,1.0235007441404218,0.22118743867256233,9.759592109343448
150.747272384,1.0293635077473209,0.22488575135056293,9.742915335325064
151.2485572,0.980979630457024,0.22163647418432816,9.974428387002934
151.749842216,0.9089142040977098,0.24732788617641666,9.991072674830546
152.25112748,0.9528641768992011,0.2847042839485257,9.905425142268722
152.752413164,0.7633166900047208,0.2741744882558315,9.766496569160976
153.25369898,0.9732326598021308,0.2761407492091217,9.808564105541691
153.74997197551022,0.9600514795637597,0.27587518602585603,9.807295748540652
154.24624524,0.8301396296476193,0.23970504709323087,9.796246071105921
154.74753210400002,0.8415433175921087,0.23433387700934394,9.822738795602806
155.24881886,1.126370475643774,0.28340260340653867,9.787031476829691
155.75010528,0.6447815955839559,0.2063130970829984,9.787317654191954
156.25139208000002,0.8257587245004138,0.24108515589257504,9.768044094720539
156.752678696,0.8263936511191892,0.24781357525670733,9.652344539101044
157.2539658,0.6958284431586975,0.18309270163227098,9.799753802727668
157.75024099387755,0.6117233895906643,0.22107186358117314,9.646910130000286
158.24651604000002,0.66798441378532,0.17486360435105158,9.771310224578363
158.74780382999998,0.5693933276351032,0.18447294124556993,9.735433528026322
159.24909191999998,0.4520433982387533,0.1868276357432023,9.656011809566863
159.7503809,0.6671927270710123,0.17271888519451337,9.828138196020802
160.25166978,0.5471176992434521,0.18846884751569015,9.693905554650273
160.752957992,0.3848905833570661,0.1599817942205047,9.760949426427986
161.25424687999998,0.59531576284289,0.16493572502942888,9.894479918916135
161.7505238367347,0.5539923152084915,0.1847524336342251,9.771999638673835
162.24680071999998,0.33625059991285383,0.1594910656743184,9.961419810979917
162.74809026,0.6702879348171981,0.20504512515176604,9.857801504078365
163.24938006,0.5006852156650499,0.16906733161525214,9.997744948695104
163.75067012,0.4750302439649509,0.17441759885479893,9.96918924686508
164.25196034,0.48308716427662446,0.20878667014336305,9.946280362071663
164.75325061,0.5103352699246215,0.16015072401050176,10.167325589298578
165.24952824285714,0.40106563163293174,0.1967622735252145,9.852097161070969
165.74580604,0.41280811894808295,0.20368188208612645,9.985310395426787
166.24709692,0.4994444068397992,0.15035865803245987,10.159366965375733
166.74838765,0.38299532116521745,0.205872786966355,9.986836450274911
167.24967882,0.40302205377804634,0.23422308804794714,9.473701073072295
167.7509703,0.5574693560356598,0.06400658748648501,10.500765349521055
168.25226192,0.21413945240095952,0.17291512796273797,10.145784361076231
168.75355403,0.11303449860517611,0.15725396594883476,9.770793083826605
169.24983322244896,0.08977204203746338,0.1321909691390835,9.916036801220828
169.74611236,0.6281272176156403,-0.0008190907618692478,10.262193851287845
170.24740466,0.16047501737426856,0.02519033225543295,9.774813381166027
170.748696704,0.1110445039442002,-0.0026619738730445414,10.20975718044338
171.24998916,0.42603771466564117,-0.014062442301329732,10.121154025032538
171.751282584,0.4124970418760266,-0.014018714610416405,9.826983711706303
172.2525759,0.6941505531916742,-0.11989589874286899,9.978238068730466
172.75386906,0.6575388229841779,-0.07259718299648907,9.728883360241708
173.25014946938776,0.9195466509811335,-0.13773719917993857,10.27471610249817
173.74643001,1.045240186605029,-0.06265836773935315,10.031446718770585
174.247723762,0.8190576840478283,0.009564748168590742,9.488946191363153
174.749017666,1.0834506292218358,-0.10165906999283635,9.770636191436461
175.25031180000002,1.4382475019756118,-0.08781069042205651,9.98265119194011
175.751606304,1.6786960202142176,-0.0010209215278831985,9.510289138308583
176.25290082,1.1638501897666893,-0.13518342629205687,9.607820143964432
176.754195148,1.2943819877409752,-0.09716357771049729,9.613480352728583
177.2504768244898,1.2322351340119087,-0.06810434784798783,9.331411153643108
177.746759328,1.2680662912477885,-0.19821147445791887,9.97877797875501
178.24805462,1.0560397819679581,-0.08473852897981661,9.503621787535272
178.749349664,0.999363291253615,-0.1273414470713793,9.494221477716756
179.25064496,0.8216006688126584,-0.14992143117820514,9.667705701260337
179.751940108,1.0919947532809255,-0.1364914040006404,9.70491108341896
180.2532356,0.7521360282328322,-0.1305770053439208,9.882258664945704
180.7495183510204,0.7425846546943806,-0.035272583152666265,9.646146830256182
181.24580136,0.9409667301344925,-0.0024502523649123768,9.775293677120349
181.74709742,0.9463576691932597,0.061894302152131174,9.808714452918194
182.24839348,0.8735242168442084,0.03514964265491471,9.9872985033333
182.74968989599998,0.6974953161009911,0.08646386569300227,9.620383136983742
183.25098628,1.038863913619581,0.06614617830664665,9.94323556559253
183.75228223800002,0.9069913312574553,0.07697978947920453,9.763430980463792
184.25357842000003,0.7959170350644671,0.09235543306714568,9.65809450202138
184.74986186530612,0.9134294312055645,0.03648999599111938,9.96899816978541
185.2461454,0.5093644291462138,0.12485142052928014,9.79623605011645
185.74744238799997,0.486714078088129,0.10026806382025294,9.83160267987186
186.24873940400002,0.15356530290521467,0.16461493201893568,9.822703708849438
186.75003642,0.5716127674499858,0.18568118624119823,9.884917574970425
187.25133360200002,0.6847529810865174,0.17833458743469982,9.809892930028337
187.752630762,0.8696438369899478,0.2058364496953115,9.73593763336127
188.25392816,0.6187480534006553,0.14803854287149387,9.876008089133943
188.75021317959184,1.0772259782526472,0.19640564206513295,9.853126712819677
189.24649816000002,0.8451960311182232,0.20259137563988297,9.766275146536017
189.747795792,0.7452523832832082,0.19790100133775937,9.820172432671361
190.24909366,0.8005415310251912,0.1676261304844959,9.840190145302067
190.750391594,0.7947363220574811,0.19412210358228607,9.798434066501782
191.25168972,0.9034362948883303,0.18720118607305775,9.781430190312756
191.75298817200002,0.8671029863767065,0.18796962640419373,9.825713587029874
192.25428668,0.7744129488344025,0.18953845102353895,9.797271999482172
192.75057211428572,0.8249326296934407,0.19816432392682057,9.764751740138781
193.24685772,0.45108755136344003,0.13758583043983297,9.788397744105591
193.748158116,0.6980247579537152,0.036056290366042604,9.92119831397206
194.24945788000002,0.34875550083735574,-0.05178918594896534,9.861072029447016
194.750755388,0.22705307806631628,-0.09354834051802507,9.775894030772232
195.2520537,0.21253911435214617,-0.09302623105467112,9.80982114970369
195.753352872,-0.14195568407339906,-0.15991393835527706,10.070603626774087
196.249639,-0.3096253297161157,-0.12774786937012916,9.879730014986079
196.745925688,-0.06852309155794109,-0.11183596728446654,9.879187567133359
197.2472252,-0.20131977359095715,-0.12945331317959502,9.959872900501978
197.748525072,-0.01149458053890677,-0.11056466172410434,9.946508395936315
198.24982484,0.034508068657152245,-0.15061229715834684,9.935352362647246
198.75112352200003,0.2900339116776355,-0.12259791797227808,9.923864059149446
199.252423218,0.35484799952928114,-0.11790427192570141,9.937387112870795
199.75372443799998,0.34714606774105833,-0.08464856095818941,9.921610518739755
200.25001200000003,0.2679876360986728,-0.0940982393563057,9.95202719559311
200.746299136,0.257866808386258,-0.1011765169135691,9.902047284378709
201.24759922,0.17832345357590784,-0.10517311639018093,9.959860848958135
201.74889951,0.2860804743301961,-0.0986818462645609,9.96148081343398
202.25019939999999,0.3233577988697172,-0.08775882069539785,9.922461883152385
202.751500156,0.2947173842060937,-0.11563708764203912,9.958452419071296
203.25280080000002,0.014670412541266442,-0.09384413384781036,9.776339525511814
203.75410155199998,0.4546970099065867,-0.1137255374153249,10.054725921589359
204.25038913061226,0.1401888607108683,-0.12236013080662153,10.060584248729816
204.74667732999998,0.18722906962406338,-0.08735084887983179,9.697015539135194
205.24797852,0.4216011244156482,-0.12346948939651997,10.363945363665374
205.749279558,0.34173720517644157,-0.06957224232842349,9.734485002989619
206.2505807,0.23227430425480527,-0.04798939040825035,9.7729225519845
206.751882262,0.13649955306239112,-0.13304427504627475,10.10522697472603
207.25318366,0.26022008078049425,-0.12038392420301164,9.960838473681623
207.74947197755102,0.2612174489720152,-0.04955410357981976,9.907008788193036
208.24576032000002,0.14008323703320222,-0.1006669476862875,9.94099311912884
208.747062162,0.32074548457933594,-0.09185488450290799,9.956051601601274
209.24836402,0.16248829821784863,-0.10510543098398833,9.954548192518159
209.74966608399998,0.31718650598028986,-0.08343648132479049,9.912676184863244
210.25096817999997,0.25408053834532196,-0.09903039818763988,9.923427311622653
210.752269786,0.2597657908396479,-0.10171728840301371,9.967376008207316
211.25357174,0.24225666873740878,-0.08845702151448842,9.946576594363888
211.74986124081633,0.37005227292820253,-0.07642660083106291,9.87455265925864
212.2461507,0.41038623575196775,-0.08530584495263667,9.923653024786724
212.74745316,0.25584884000889113,-0.10802053664082338,9.968949510367628
213.2487557,0.28519944938073044,-0.0852533005139072,9.9135360164868
213.750057952,0.3060926027243054,-0.09919929604051884,9.951921023999272
214.251360338,0.4910570830489898,-0.03828268620599848,9.816131516119002
214.752663256,0.36761350998295483,-0.07850262909482783,9.978419405647605
215.25396609999999,0.4898223079569232,-0.051069773726662125,9.842661938061688
215.75025623469386,0.4302739010682617,-0.04830610287717552,9.865171548193288
216.24654636,0.5697025262959826,-0.04215975239794375,9.885277274239716
216.74784884000002,0.518655061587387,-0.05642907230100255,9.853067323845384
217.24915146,0.7140787606100519,-0.046755636178962605,9.772861990144108
217.75045456,0.5795151029639527,-0.06575322967961963,9.880717459367753
218.25175764,0.8985540952194095,-0.018677566066980022,9.800717594396854
218.75306024000002,0.8432685219622429,-0.03294427203968782,9.806413900327797
219.24934993673472,0.7559854641119671,-0.043416778835981114,9.784344989668082
219.745640168,0.5092540086298716,-0.05723003200659256,9.84576241485374
220.24694344,1.139362195541717,-0.002065144077355502,9.82907536888531
220.74824642,1.0757797943437053,-0.004082313793812217,9.749621495583147
221.24954954,0.7264882727663986,-0.08029172412975955,9.932641547348021
221.75085294000002,0.7385263717368405,0.0073372922738816045,9.812189098946355
222.25215631999998,0.7702459207230272,-0.007841617680291893,9.552272499749419
222.75345972,0.7275397916223981,-0.0596722627120089,9.959819513046826
223.2497501877551,0.6606395309352452,-0.11014857600572969,9.95680773689233
223.746040618,1.187452517216737,0.03396237007437214,9.743933771086006
224.24734422,0.6272740714873742,-0.054740109913807046,9.772427258540931
224.748647934,0.49337060076666217,-0.0792220401638173,9.865702593546109
225.2499517,0.9441352476449072,-0.021995757403785156,9.80635536318626
225.751255342,0.8957029669929448,-0.02137914050684412,9.833107137062953
226.25255905999998,0.8015612307495077,-0.036748011222763555,9.815438890210944
226.75386298,0.6994581032826397,-0.036593194182924275,9.814236048185101
227.25015387142858,0.8242986436308887,-0.02343820728356139,9.900440595589085
227.746444374,0.7150826085891461,0.005962442426992255,9.607772919674904
228.24774806000002,0.9761138537433925,0.0035824809655680277,9.814505262326266
228.74905240799998,0.9141051757296976,0.016563130753532787,9.698107149536588
229.25035680000002,0.7772407104059649,-0.13319229333475907,9.675057458375734
229.751660984,0.7050259011184533,-0.20823747906283793,10.230591004360987
230.25296536000002,0.8269095103252566,-0.007627199527935999,9.293172087463688
230.754269626,1.0066684952590745,-0.13201372204518053,9.929187312693474
231.2505607612245,0.7980552593924423,-0.1305155877230113,9.76942650211451
231.74685218,0.8466195662291376,-0.05316934714913083,9.627274105692324
232.24815658,0.7411663540067486,-0.1443421499358199,9.884290852029865
232.749460624,0.8313916615139054,-0.07632548031405068,9.710819597972165
233.2507647,0.9483935707063839,-0.09713369887008484,9.798419217444055
233.752068534,0.8133908512129401,-0.12422774523427461,9.835198397159028
234.25337248,0.9167047259945618,-0.10227473383154648,9.814140838020025
234.74966398571428,0.9431780537134259,-0.07994120024500784,9.767717774047908
235.24595548000002,0.8855009498546826,-0.11353272825603083,9.749914279545552
235.747260588,0.8582217714634309,-0.10480623091298845,9.7871664859825
236.24856567999998,0.8444823564908666,-0.11630836068844891,9.808258106665633
236.749870376,0.9113684582343344,-0.09943251573300965,9.73607561278434
237.25117527999998,1.0009080273981636,-0.09353251569363094,9.832903804595324
237.752480236,0.9460681267536907,-0.10526415804958317,9.749420895293731
238.25378536,0.9878348570942082,-0.09210527312278863,9.806394857332547
238.75007774489796,1.113597809441861,-0.0903882962196956,9.712252574848865
239.24637019999997,1.126854774621038,-0.0983831744147656,9.745922492734008
239.74767608800002,1.1390984218850002,-0.09609839576875379,9.739503116934037
240.24898198,1.1681922293625797,-0.11557687786574064,9.766594652324327
240.750287632,1.1825940800152126,-0.09145404783719288,9.750798840104098
241.25159346,1.1467005528652674,-0.10992164977614417,9.768832106461208
241.75289980000002,1.1511520244626237,-0.10373717374625419,9.736406956535028
242.25420623999997,1.1252626626424018,-0.11929979230800264,9.805322784060985
242.75049953061227,1.2433535917338059,-0.09449284610412659,9.7260158588369
243.24679286,1.1649549606858072,-0.10877991815169452,9.787171685252595
243.74809934799998,1.1508865299108926,-0.10509651344766556,9.72292544933471
244.24940592,1.1868705969368305,-0.11455267342943803,9.743536558317482
244.750712188,1.2023252888312626,-0.10631827391773895,9.808621713504742
245.25201858,1.2066067466580577,-0.10778329055233339,9.786868380209103
245.75332524,1.0953841402633966,-0.09526231377914339,9.731649259121154
246.24961903673469,1.1704278659660852,-0.1061807121126534,9.734176592665689
246.745912492,1.1658777056424707,-0.10901273077989697,9.761994987366512
247.24721924000002,1.1378210175226682,-0.11779626341280311,9.76671837082729
247.74852676999998,1.1007423867547934,-0.11329772071886189,9.769404041646162
248.2498345,1.168452752200053,-0.09626962511277574,9.71692188096096
248.751142106,1.1117158732896337,-0.14547015583823572,9.951676334611536
249.25244987999997,1.3704669729206835,-0.06971180623469778,9.670974678711042
249.75375805200002,1.0440359628487954,-0.13025562351952805,9.76812327715209
250.25005318163264,1.2738643504998892,-0.09988274349619679,9.760764544405033
250.74634804599998,1.1545493558498843,-0.09954313653481255,9.813678856947842
251.24765618599997,1.3604467360195363,-0.13153721209986668,9.929436116129102
251.748965086,1.3818484028449276,-0.0711786975485259,9.627515451878498
252.25027412,1.569634764759412,-0.09339454629121721,9.761387020547884
252.751583356,1.4677726780197082,-0.1311075814296348,9.806404395526494
253.25289274,1.5774144601597837,-0.09679295555284315,9.740276914377755
253.754202228,1.568282771936052,-0.09846964176791427,9.776051273295376
254.2504987510204,1.5783500727319817,-0.10454791211168485,9.728531321407845
254.746795256,1.6037444196712576,-0.10798802247460682,9.764108873489095
255.24810492,1.6322027371810603,-0.09739475290158373,9.773324609372494
255.749414468,1.5422060114318803,-0.12252064383049655,9.864655578598455
256.25072423999995,1.4078768229700644,-0.10055234452718398,9.91020827106841
256.75203485,1.4157609868986725,-0.06964312163733105,9.806267558055687
257.25334558,1.4111414126303157,-0.09305790216457595,10.023595848532416
257.7496433857143,1.3887488440476887,-0.06094753169867481,9.892143816821825
258.24594136,1.229539402023746,-0.06414759356976849,9.782530777397294
258.747252248,1.3534339594681304,-0.07383854733387979,9.763651378301804
259.2485633,1.3174950413256767,-0.07971735225756857,9.80943979556
259.749874324,1.2993832954599693,-0.08198891418731508,9.656538351613987
260.25118558,1.3457655706512934,-0.08471535809689773,9.725886614302349
260.75249698799996,1.3023265674650792,-0.11980299607378667,9.893360515202836
261.25380858,1.3299971623230615,-0.06630967309140436,9.66347047716382
261.75010706938775,1.3653109159722223,-0.09711274022128757,9.77191912572117
262.24640569999997,1.3076813016261843,-0.09503431713800742,9.665239053821574
262.747718104,1.2817770140759783,-0.14474472634036914,9.619566867921723
263.24903064,1.2303765599446312,-0.15555970602813698,9.597639770840567
263.750342596,1.1193223926335012,-0.2579308539993711,9.704920979891323
264.2516547,1.041513903287021,-0.2348855259921204,9.605058257771011
264.75296716,0.8138921423018786,-0.2708566506883015,9.80092154035187
265.25427973999996,0.8971969080523605,-0.24185975100335091,9.797411299467372
265.7505794081633,0.8484842933574324,-0.2323762999663059,9.834970562736117
266.24687918,0.8065950445279985,-0.2210451538401313,9.798751759632582
266.74819212,0.8319931410983705,-0.22166237347678844,9.81504745031173
267.24950514,0.818953323630909,-0.2205663042697763,9.802753837117047
267.75081849599997,0.7957597851147474,-0.22433880250508886,9.83458768161301
268.25213198,0.6532305023269777,-0.22513801459727087,9.840548461634524
268.753445308,0.6368738097799206,-0.230739610657136,9.808482532705188
269.24974565714285,0.41535079848725903,-0.24141297091794747,9.830465844845612
269.74604638,0.38907248625786267,-0.254923564632403,9.920576972967016
270.24736028,0.3458452321735205,-0.23713824827247468,9.810653865629487
270.74867525,0.3442741088336925,-0.2494229936572959,9.900169600118177
271.24999036,0.2779036460939397,-0.2496765664099858,9.899366983721773
271.75130335800003,0.2473468149326062,-0.26254478299337836,9.89305542669573
272.25261638,0.3217976580359893,-0.2653398614945045,9.895314941821475
272.753930448,0.2543242669572804,-0.29141438259270336,9.992995789420004
273.25023149387755,0.3801208196134146,-0.256935229494487,9.94238649100727
273.74653291,0.352111852825214,-0.24554126378957933,9.937761672030362
274.24784754,0.14306117418443565,-0.2706909773040771,10.07460317777096
274.74916165999997,0.3500699349491155,-0.2516935383175134,10.044636931723801
275.25047586,0.41893992242829503,-0.2479255038452222,10.012337638762913
275.75179061,0.20630839129848524,-0.25549770793520776,9.933548087743313
276.25310546000003,0.3240579230518243,-0.2506221285839776,10.00691671623338
276.74940741224486,0.27767002150700526,-0.3166697031436456,10.072301220100625
277.24570946,0.3221586989981169,-0.3673100160461326,9.958875080266457
277.74702460000003,0.2865032657301552,-0.41692126378916633,10.077425871297333
278.2483399,0.3323538252224926,-0.4549838178865524,9.7724157687085
278.749655304,0.2632671393224229,-0.5318961286495463,9.830227194782648
279.25097084000004,0.15971880828622262,-0.5625961098752856,9.932940025755528
279.75228658,0.27552574800253493,-0.5294708225179082,9.841434574349211
280.25360242,0.2871773128981976,-0.6258323976914193,9.930301211022865
280.74990546530614,0.3416489099016703,-0.6239357111861316,9.840539934652028
281.24620871999997,0.3944488677044158,-0.6273735872700148,9.830755378143087
281.747524924,0.26772667615620566,-0.6700170454306626,9.913644000193317
282.24884134,0.37848575952526625,-0.6321026830066881,9.916979659646186
282.750158,0.47129731669419833,-0.6832545502638794,9.843859330156803
283.25147474,0.27596470348236485,-0.7076828030985695,9.741633434449465
283.75279199600004,0.4017431024019137,-0.7504621288362711,9.954098758687998
284.25410941999996,0.5167132547740887,-0.7346464958239741,9.869030213389387
284.7504128938775,0.39885672208290385,-0.7408789364553807,9.836277155912777
285.24671656,0.5017173384080327,-0.7273485575456913,9.800954375785585
285.748034344,0.4172792851525353,-0.7693150452878272,9.893672988452366
286.24935228000004,0.6737849914487987,-0.7399703908683785,9.840411867238084
286.750669728,0.4604391419044685,-0.7545447911146697,9.858959822625957
287.25198722,0.7313189865362295,-0.743688274164995,9.902928474001314
287.753305204,0.540580170896141,-0.7394832062869474,9.69160331907755
288.2496101040816,0.4697244161087262,-0.8165899039537861,9.897187068761342
288.745914896,0.760158139889514,-0.7512956823371596,9.793695432432948
289.247232918,0.5657731913090546,-0.8430969065369541,9.938999869214188
289.74855143,0.8052222384301928,-0.7596821334154866,9.88181044209789
290.249870116,0.6489251475022177,-0.7812538988545998,9.768094787841632
290.751188234,0.5563396787284318,-0.7522445404376116,9.76459201834869
291.25250648,0.7640485082992781,-0.7717844259292319,9.894295682167291
291.753825268,0.7526997786617993,-0.7863368227092467,9.828898421701526
292.2501309061224,0.7096956640916643,-0.7272625564610053,9.815668807310304
292.74643666,0.8696617936679176,-0.7699810632592466,9.813249088237097
293.2477556,0.7838273754410215,-0.7561967863535667,9.775771413955693
293.749074634,0.78337662313744,-0.7619052046137643,9.859480079726092
294.25039374,0.7095206063090848,-0.7589969577563103,9.761993256778164
294.751713118,0.9479093492084918,-0.7787270112993974,9.85351306837496
295.25303263999996,0.8808351591279991,-0.7679087510649748,9.857509942366367
295.754351888,1.0096685508050154,-0.7801097626605952,9.72557316217688
296.2506580285714,0.9886511255703173,-0.769763799870095,9.881373351863848
296.746964452,0.939415037154377,-0.7800608491437014,9.817023270583352
297.2482842,0.8990151512436647,-0.7970719491117688,9.744841075011287
297.74960389200004,0.9542563541153367,-0.7954335827861136,9.82907222877072
298.2509237,0.9473432257107126,-0.8115773799804807,9.721694093694389
298.75224348,0.9490565718663676,-0.8529099211945949,9.852793212915392
299.25356328000004,1.069800709302386,-0.8070648434093097,9.7995818497989
299.7498695755102,0.978827490722149,-0.7012499152325186,9.736332503085931
300.24617578,0.9993587637062749,-0.6357926884471791,9.825477843592333
300.747496184,0.9253084524933004,-0.5895257558325826,9.811048421972659
301.24881691999997,0.9514375082210392,-0.5895567873311371,9.709421107511462
301.750136736,0.8915263821779065,-0.593749850792181,9.846891644691565
302.25145660000004,0.8920863786687195,-0.5422530735923647,9.796288245200719
302.752776604,0.858254775657387,-0.5345021283291884,9.838083408401175
303.25409668,0.8538331273162376,-0.538837870108482,9.829140877378286
303.75040388571426,0.7544901193408192,-0.5248556737991974,9.740307078383731
304.2467112,0.8255903656053845,-0.5456675509460979,9.848953814556731
304.748031556,0.8298530930705627,-0.5405569614806969,9.792552141947125
305.2493519,0.8005684523790147,-0.5461044085614585,9.830648666359265
305.750672624,0.8151746923047485,-0.5502982064707502,9.82191055603953
306.25199342,0.8314411767974598,-0.5288739890046537,9.809150959709878
306.753314004,0.813441061002856,-0.5285826407725512,9.788221667908473
307.2496213857143,0.8517683546871172,-0.5300506483576836,9.80974853340679
307.74592873999995,0.794996807724578,-0.544441147591144,9.799195462718378
308.24724928,0.8361677093654953,-0.534805834975646,9.814108310833218
308.74856963999997,0.7757308572675563,-0.5443501285291731,9.846242436285364
309.24988994,0.8146573228910023,-0.529167758934712,9.771728411410631
309.75121076,0.7881554108870691,-0.5239080335287127,9.832702209659795
310.25253162,0.8098985347927973,-0.5309822509484189,9.81480966890359
310.753852196,0.8290460739819071,-0.5372243523684311,9.82240723603383
311.25015963265304,0.8055810004217623,-0.5404028425937131,9.760045055030343
311.74646689,0.8180854329891133,-0.5433538854194784,9.818890320495564
312.24778736,0.8194640486729309,-0.5454395663717384,9.822229859690488
312.74910831,0.7843241353021372,-0.5238794207059593,9.830857381449036
313.2504294,0.8397940640382353,-0.526221343531024,9.786966452816527
313.7517502,0.7806143188777969,-0.5344583246190701,9.819303526177316
314.25307108,0.8406543269954172,-0.5113247849360009,9.816975812608144
314.7493785612245,0.8054743028333392,-0.3702049416659034,9.766960207452916
315.24568596,0.7933108120185932,-0.37166091977131943,9.82813823174984
315.747007256,0.8892392148318115,-0.37710998062992185,9.842046225361143
316.24832864,0.8173806049553562,-0.3982368654419487,9.76162943980402
316.74964937,0.9165968705609209,-0.37671607424507236,9.825066810563888
317.25097006,0.8755172177352317,-0.09899625279455503,9.78608415377811
317.752291028,0.8581251747139131,-0.043723842873345777,9.84058444557747
318.253612022,0.8892659029054506,-0.037116109891469816,9.772359643165204
318.7499198734694,0.8418454554703737,-0.03526761289828079,9.8222244861181
319.24622774,0.8489531602508172,-0.029030835040724984,9.809236125599368
319.74754883599996,0.8787397604646918,-0.030973429255006388,9.802361676517584
320.24886996000004,0.816418828978855,-0.030950606195457975,9.801839576364399
320.75019164,0.9036447418498483,-0.02108116739563852,9.805380699070897
321.25151356,0.8022631322075742,-0.03391471621556096,9.79471607507695
321.752834774,0.8909494537778752,-0.033538091482640815,9.833777359466271
322.25415602,0.779547388238784,-0.032322832496112376,9.803227778500494
322.75046414081635,0.9348080355395805,-0.02721076791536528,9.80888103502772
323.24677210000004,0.7718158906548531,-0.029902180223738167,9.826502408323032
323.74809388,0.8909371407993466,-0.01196480367126004,9.793490573222282
324.24941574,0.7661681292929231,-0.004594114716617687,9.819228471243067
324.75073739,0.8140235359051237,-0.000836642159052359,9.821378064037754
325.252059082,0.756498798761365,-0.0009530569866622576,9.800314385106653
325.753380808,0.8285844852626338,-0.004372070345882756,9.831364081888653
326.2496891938776,0.768786220608827,-0.0021788229031662176,9.805089946640864
326.74599792000004,0.8037653928836211,0.0036955387167716745,9.803895225268818
327.24731998,0.7701120182154162,-0.004241359465087509,9.82677270422332
327.7486417,0.8287785579563246,-0.007805618499724969,9.809109046276232
328.24996350000004,0.8112201297812317,-0.012725589749597331,9.818207327942147
328.75128537999996,0.7979656272074913,-0.022645850932397845,9.80925672974037
329.2526074,0.8838289766880904,-0.017477497710543664,9.81679482216099
329.75392936,0.7713760268894014,-0.01964616515019772,9.80625151393033
330.25023819999996,0.8749557546333487,-0.020742260883914777,9.816970069385949
330.74654686,0.8133259453245623,-0.014331327688305813,9.786350065864777
331.24786852,0.865242432941035,-0.03735301835420234,9.844500453365661
331.74919104,0.8450827580575891,-0.02281839785090281,9.801473207672563
332.25051357999996,0.8533889040779029,-0.012253585858105154,9.803384578633295
332.7518359,0.8094051288319423,-0.015544735837711815,9.820212286591998
333.25315822,0.8587437814044442,-0.012884394965961485,9.792294502926618
333.7494676020408,0.8394829476385658,-0.025078566777444307,9.811239879518475
334.24577716,0.845854134667411,-0.02020556820163282,9.795417897917465
334.747100206,0.7990461592988413,-0.09700355963615115,9.810882740041812
335.24842354,0.8633819654669476,-0.16719158859291572,9.811732519811018
335.749746158,0.8003892077262066,-0.17153158733116505,9.818040074023859
336.25106866000004,0.8033329391191266,-0.1692112896770039,9.794939118631955
336.75239201999995,0.9016004729421266,-0.13704374895435217,9.817461934944294
337.25371548000004,0.7839982033966649,-0.027456242824065905,9.811932646587307
337.75002575918364,0.8905324546407789,-0.02918884310896034,9.813217676990297
338.24633616,0.8302479403943519,-0.021473037449769854,9.811922267465476
338.74765951399996,0.84584853471108,-0.013476366298644779,9.794956125774712
339.2489828,0.8402411292059329,-0.019349713477813512,9.822708313069928
339.75030687,0.8406749969243897,-0.01707197024493821,9.796467442218493
340.25163119999996,0.8386094631475881,-0.018887769534214668,9.816171655031336
340.75295545200004,0.8298459838442355,-0.02044052147709926,9.795383833245502
341.25427986,0.8805728621410387,-0.030090746897767,9.821772265477472
341.75059085714287,0.8334876633959881,-0.018755676980483738,9.801338510656606
342.246901856,0.8587134654244276,-0.01722770463433881,9.805562803283813
342.748226382,0.8608577858186977,-0.01871494996488663,9.815964707672697
343.249551098,0.829575798827588,-0.01902046640666173,9.804215828051582
343.75087590199996,0.8858646918335428,-0.01434724787273848,9.796442252214305
344.2522012,0.8461218881010812,-0.027994717678552924,9.805535027856667
344.753525896,0.8130495070698719,-0.021086290256329496,9.81040965920929
345.249837155102,0.8965222789795977,-0.02103816314210071,9.812694208724547
345.7461489,0.8302276237408721,-0.016508791515038604,9.801039842256055
346.24747426,0.8593278703945834,-0.013491686586050078,9.809098044758898
346.748799576,0.8481296172276883,-0.022670372085881116,9.78324779537088
347.25012514,0.8830990640720893,-0.024237392752601207,9.828766122175605
347.75145082800003,0.8271413085667437,-0.018205273241972568,9.805379625586276
348.2527766,0.8515256933353449,-0.015895378731024045,9.808291046469305
348.7541023,0.8772277498881436,-0.01926415536342171,9.81030158711002
349.25041482040814,0.8518917059698586,-0.018278536961599815,9.8019921311537
349.746727568,0.8598269101516546,-0.02664526176604562,9.823948557574377
350.24805374000005,0.8562155311214065,-0.017859536512294688,9.803438021661727
350.74937955200005,0.8781693422664512,-0.013634947945642972,9.81105531316976
351.25070524,0.8222540740222277,-0.010000902656352664,9.802227133462885
351.752031612,0.8897279302521607,-0.007908681668492902,9.812773112062029
352.25335812,0.83204444076788,-0.014680222652632502,9.806176848227095
352.7496713714286,0.8542023396721892,-0.011486388823972418,9.803774238516207
353.24598480000003,0.8232337775028643,-0.021015235886211507,9.809219043434389
353.747311824,0.8898810927621361,-0.015407149027614284,9.832701422533956
354.24863924,0.8249393984509696,-0.00912909475637779,9.778230925548414
354.74996603200003,0.8449204910561666,-0.01553803021155787,9.81495208545335
355.25129282,0.855737757474833,-0.005482369239834425,9.817086678343886
355.75261984800005,0.8677733212444102,-0.022217946288254332,9.80148938227249
356.25394692000003,0.7970211967570754,-0.011812536919350185,9.830515885701688
356.7502607244898,0.9058531032041989,-0.017342709943940285,9.812975802796043
357.24657451999997,0.8358840563068928,-0.016240980508078418,9.771277154694005
357.747901892,0.7787925886613911,-0.006343857466331894,9.834113075221568
358.24922928,0.9412174516636753,-0.013596287414137686,9.807224400351807
358.75055705600005,0.7923055090969099,-0.01917659333244705,9.800544779842243
359.25188498000006,0.8241741383448601,-0.012807125937568144,9.804212926107816
359.75321294599996,0.8948451395480822,-0.015890254805554522,9.813042031936957
360.24952776734693,0.8714621065307683,-0.017286437485790715,9.809242502770791
360.745842326,0.7810970222079274,-0.03219890244613971,9.81638773731585
361.24717008,0.9042919709510301,-0.017216329245004446,9.812657235428668
361.74849789599995,0.8261604187719298,-0.0011998389063847723,9.813489336107958
362.24982554,0.8465685753470261,-0.014680264682939035,9.805392848873394
362.75115368999997,0.9265640622574298,-0.044652753014131165,9.797717205740545
363.25248208,0.8459105198143565,-0.03364563749889627,9.81865553552174
363.75381043,0.8739258151975444,-0.03991811287340253,9.799249764752702
364.25012573061224,0.8963211197901457,-0.043096828701716945,9.80128447159117
364.746440648,0.8937085305837914,-0.025739576557611114,9.803235981392264
365.24776884,0.9247936398624924,-0.04185983827184149,9.857187244702486
365.749097084,0.8741876116729705,-0.025180807300755403,9.753010164871029
366.25042529999996,0.9350010110557483,0.030530514751773156,9.730165023348883
366.75175373999997,0.9168698388931666,0.004718311588387678,9.950473307944701
367.25308232000003,0.8737167764140986,0.018082597004700184,9.711830849802967
367.7493977020408,0.9247150309235689,0.059955881350945206,9.822188663240738
368.24571312,0.9796054385036846,0.0908544979894832,9.796864294149339
368.747042,0.9274862795661984,0.07866456691386951,9.816996434570516
369.24837116000003,0.8811332731440531,0.08743599852993915,9.761152731061587
369.74969984,0.954892584674023,0.06398028458415209,9.837031058436216
370.25102844,0.9222015579001677,0.10025356476824188,9.708180110466863
370.75235760000004,0.9237682207085429,0.060488614682140965,9.929721020313115
371.25368696,0.8632880812871008,0.06930143858661002,9.744709898367638
371.75000263061224,0.9621322092820789,0.059055133072858625,9.840640509188724
372.24631818,0.8692865669858216,0.07838376976316112,9.806298933319756
372.74764726399997,0.8870454704668279,0.07068954649594598,9.78376921838177
373.2489763,0.9504082800138873,0.07385709708356972,9.82015327014248
373.750305624,0.8847125593301685,0.05224105316690537,9.809770389508591
374.25163502000004,0.9248236840626314,0.06371331103791567,9.80648667370729
374.75296434800003,0.9455935158595055,0.022250146545602728,9.802688186509691
375.25429364,0.8757387991948913,-0.03981342997482973,9.804532733469713
375.7506099102041,0.9117955538754972,-0.02979564129220439,9.817757153022917
376.24692634,0.9028929333008725,-0.03483876760723818,9.788268498996102
376.74825599999997,0.905694264652675,-0.04324652092210144,9.803677297126036
377.24958584,0.9089368538840027,-0.029697597241378264,9.812423121209532
377.75091540399995,0.9240386612226392,-0.042653684154681744,9.808111168228551
378.25224486,0.9087043013005676,-0.03460417785288936,9.803133135660085
378.753574492,0.9053523732195279,-0.029667404072111478,9.79618771920928
379.2498907040816,0.9106602500743337,-0.041035701070384914,9.808366389004624
379.74620712999996,0.910716754438566,-0.03354368660670384,9.803087416255883
380.2475369,0.8968242407651197,-0.030759866462562208,9.78878932415808
380.74886717000004,0.9278894873015189,-0.03762426425516903,9.807980640262816
381.2501978,0.8965656172305746,-0.04565427293224933,9.813413187510555
381.75152799000006,0.8736486986568869,-0.039577254636216516,9.795006184077362
382.2528582,0.962950363829278,-0.033923763658408095,9.799839912523545
382.75418829,0.8863635829675881,-0.03651087467060988,9.815464175636949
383.25050500612247,0.934282436299336,-0.040837136719012825,9.797930430617498
383.74682213,0.9180053759869041,-0.04483380591150113,9.792100089998852
384.24815276000004,0.9123933145686991,-0.03598695119484135,9.804681034163597
384.74948321999995,0.9608848154893888,-0.05478905435217706,9.800383071051323
385.25081364,0.9205788087937191,-0.02566637120191474,9.79535242385602
385.75214418,0.9561827307778716,-0.03729618421414876,9.79421403796414
386.25347468,0.9531823855045214,-0.04149649672735348,9.821711808167393
386.7497923591837,1.023640445604792,-0.013027065325501049,9.786546463889403
387.2461104,0.9359020357990359,-0.04112127975806165,9.799045108823556
387.74744123199997,0.9825269877716104,-0.032810066295818494,9.788141517721922
388.24877208,0.9638625699617228,-0.052578232931537475,9.808284221551634
388.75010295,0.9212005699740788,-0.03958457531163753,9.800893900399732
389.25143378,0.8863692096752821,-0.0390181343985588,9.802905320867552
389.75276479,0.8951066974990386,-0.04050457616791488,9.813335820701397
390.25409573999997,0.8774377993413595,-0.03625956128498917,9.789856314569004
390.75041386734694,0.9043160013502396,-0.035799805521515876,9.812349100129715
391.246732238,0.8798509902910543,-0.026752878736327965,9.802765754252933
391.748063538,0.8500129755408543,-0.01617288904377964,9.811409310717805
392.2493947,0.9010377119324091,-0.011049409531174875,9.808647723271054
392.750726148,0.9168437261665386,-0.018982901099332265,9.799869060478887
393.25205768,0.9043030654833265,-0.02144123830962067,9.80427047336442
393.75338921199995,0.8884086481418468,-0.026645871886609586,9.814895267760136
394.2497074489796,0.8957126065786061,-0.01942018520017574,9.801257334046026
394.74602573600004,0.9192032518171342,-0.009251722060568561,9.80482023248811
395.24735724,0.8751660383196076,-0.010249662070536696,9.82104427401934
395.748689024,0.9501541343357148,-0.017859190425357902,9.793683692439885
396.25002076,0.8765046910367305,-0.031841376760391255,9.803175524497371
396.751352644,0.9442962481588023,-0.020898667772678573,9.8084717281462
397.25268450000004,0.9064065865566829,-0.0131148328377659,9.812091668483145
397.75401693599997,0.9254936090439887,-0.012008732537813016,9.756227036593273
398.25033656122446,0.9623668806551052,-0.025034820503952723,9.825138262014091
398.746655368,0.8921827158656008,-0.04595555397279835,9.82856173793612
399.24798710000005,0.9860972024372081,-0.03182892577121305,9.745099017841351
399.74931954,0.929820175960598,-0.023399593808829087,9.863401920157344
400.2506522,0.91322173493504,-0.0136312333773766,9.785860837771446
400.751984564,0.9618942928405755,-0.019062546445552286,9.787792892609486
401.25331683999997,0.905640542453412,-0.00600836620257436,9.81796210105136
401.7496361244898,0.9057778241759286,-0.013034684451936531,9.782646600518556
402.24595554,0.9386568445815654,-0.02264232418579845,9.780324813043977
402.747288146,0.8593786323273267,-0.024635998670974053,9.816698021072638
403.24862090000005,0.9970404000207586,-0.025012672028465244,9.819917218850376
403.749953574,0.8711122148878704,-0.02432254210260839,9.782605685602048
404.2512863,0.8025980540967743,-0.011276535110188765,9.774816082594306
404.752619292,1.1018543163984944,-0.02756949553048331,9.834776330247907
405.253952418,0.9051981119438044,-0.009843288643830321,9.74802993248804
405.7502721571429,0.9356746757341856,-0.030774935031252382,9.824526312284863
406.24659214,1.0612094277593265,-0.03286644771096148,9.796175028363868
406.74792570600005,0.9394727830342626,-0.023717676330792088,9.796222297207267
407.24925953999997,0.9598799370993852,-0.029070465342411648,9.780046703994413
407.750593154,1.0504038983275499,-0.027319769228692854,9.803030805805795
408.251926558,0.9900015636464459,-0.020697654045245338,9.78709105211257
408.753260902,0.9574798804949833,-0.030157591313553212,9.806154774608865
409.2495821510204,1.0510159172325522,-0.02391241036675405,9.800178332709512
409.74590348,0.9916212610885939,-0.014434687051655634,9.77568185152015
410.24723854,0.9691527681176312,-0.015556662145411302,9.806346966722062
410.748573168,0.9869338109561261,-0.020262391810240973,9.799665174909928
411.24990749999995,1.0516122677441235,-0.021555067095971644,9.786844162666478
411.751242854,0.9209242401034555,-0.008878588402843475,9.7789910358694
412.25257877999996,0.9952831978975428,-0.017167276726670455,9.821035091333785
412.75391415400003,1.0254320582063672,-0.014839873077804804,9.77347083178542
413.2502362632653,0.9605129495704348,-0.013038981606996701,9.806476248635194
413.74655852399997,1.0104076819889445,-0.013497584850703157,9.795337158697633
414.24789411999996,0.9741148319991852,-0.01862517196514371,9.796235617495661
414.749230172,1.010994461388013,-0.011907095517388578,9.77350695149442
415.2505666,0.9829631095548221,-0.02288339850906411,9.794087207203914
415.75190296799997,1.0370208891054589,-0.018835603647594026,9.79764654515651
416.25323956,0.9971431848314203,-0.02472301817963625,9.774718909657885
416.74956282448983,1.0073180708132619,-0.024308770847619773,9.821411664250043
417.24588647999997,1.0551485399560119,-0.015557034882955744,9.767362176398445
417.747223268,0.9806484229760447,-0.028581595514252975,9.820989807444077
418.24856006000005,0.9756256389662675,-0.01229443209876372,9.716547891133601
418.749897192,1.0157963162910921,-0.042527603243014224,9.954630094837112
419.25123428,0.9774223221652977,-0.004868827027182515,9.626150610075438
419.752571644,0.9783403122265885,-0.030181062180701438,9.858785495928096
420.25390886,0.9977887298296841,-0.016455532684103304,9.799018326396663
420.7502332816327,1.0009716178607029,-0.04085762832174471,9.769570039991343
421.24655808000006,0.9265899313458459,-0.027376957121427847,9.811404875364996
421.747896,0.9697903044697698,-0.028063264374219254,9.804861777906575
422.249233856,0.9683888314912881,-0.011685496753333038,9.792884087210656
422.750572102,0.8679333255926861,-0.019365758133601908,9.79118363663368
423.25191046,0.9455427768320379,-0.02092323868874453,9.804447430241634
423.753248876,0.9118223397684955,-0.023092408831193033,9.807247567123285
424.2495740061225,0.8908963712611191,-0.021015070678144364,9.790835866258545
424.745899396,0.9281890643802069,-0.016498945244981807,9.807747815600356
425.247238552,0.9316600549308681,-0.015802092841983112,9.798604119221801
425.74857733600004,0.8859844290934842,-0.013320001242624946,9.795930259069676
426.24991598,0.943579653264257,-0.05047534064672761,9.803445802981585
426.751255036,0.8849502490608891,-0.1175379667540442,9.804435340598994
427.25259411999997,0.8979579997252894,-0.3030722188469258,9.799810912771761
427.753933444,0.8761323302331968,-0.424069880533927,9.803097969045352
428.25025955714284,0.8824018913296817,-0.4179619985786712,9.808247869823628
428.746585812,0.8987687805487888,-0.4232132462108811,9.800831153747676
429.24792591799996,0.8696750303548871,-0.44108838159588365,9.808730954188054
429.749265682,0.8646568403554796,-0.4401683002930732,9.794690030571752
430.2506054,0.8852915672983309,-0.4492171279877941,9.801260626912972
430.75194539999995,0.8723129247506559,-0.45534261155884903,9.827719816330687
431.25328546,0.9000672381678517,-0.4432719173204911,9.760359830901134
431.7496122857143,0.8601919587463699,-0.4971267129964959,9.814955985740431
432.24593924,0.8859127623382532,-0.6099859739634548,9.820798847561282
432.747279392,0.8419738234845034,-0.611865495889946,9.78448233553992
433.24861936,0.8860300475670663,-0.6019855988611928,9.809781937482828
433.749959786,0.8702184882838764,-0.6040976001650903,9.808203769282498
434.25130041999995,0.862691784417824,-0.6033709587166659,9.801465690360722
434.75264076999997,0.8573242752191876,-0.6036325612151242,9.798815230003942
435.25398092,0.8774643671891437,-0.6002569633034393,9.803182861157765
435.75030817142857,0.8698539929535598,-0.6012881326545791,9.801282048680013
436.24663554,0.8626814360025402,-0.6031838302129812,9.805845625544176
436.7479762,0.8471748332328346,-0.6110282640766591,9.804140762770807
437.24931686,0.8695609582251373,-0.5581495014591151,9.800978567209485
437.75065774,0.8597098667564727,-0.4781645740597192,9.793500768571436
438.25199893999996,0.8968762726705833,-0.4564867473106989,9.807415529298481
438.753339778,0.9257170000516871,-0.4619946869761484,9.795425636172112
439.24966722244903,0.8673221519218199,-0.4511140219581425,9.809221793826904
439.74599496,0.860270129302385,-0.43907119852135595,9.792643978127069
440.24733630000003,0.8671195472096666,-0.42999865999158515,9.805921278301176
440.74867772,0.8494288227875265,-0.4795250218031581,9.80232445834696
441.25001918000004,0.812222278129289,-0.6289542859201804,9.810127307575224
441.75136088,0.8132216607195033,-0.6376823280516722,9.801298585082089
442.25270266599995,0.8285643323988576,-0.6745430680605509,9.811275597863574
442.754044768,0.8347314541969807,-0.6738642358226172,9.805000387557598
443.2503736204082,0.8294972290955683,-0.6737251493807611,9.808902325091333
443.746702716,0.8210964649766406,-0.7437744316300747,9.803106844134838
444.24804564,0.8286005547391269,-0.7904567290274216,9.812551931043197
444.749388484,0.8125414054276949,-0.7919630031187842,9.803278118550832
445.25073147800003,0.8318970390904268,-0.5179227704895029,9.810793985491198
445.75207477600003,0.8548143488650141,-0.4301956250273189,9.806715272364046
446.25341838,0.8419563166353106,-0.46821486295273185,9.804191686101731
446.74974843469386,0.8856789649724939,0.10261062258491609,9.806303568108827
447.24607846,0.8789049009643638,0.011999249118438731,9.803311709523586
447.74742239799997,0.8793276847165385,0.012498735781646375,9.803361018912627
448.24876654,0.877515444366571,0.0057960296926606114,9.805523832267493
448.750110778,0.8826525372725507,0.01899023932366769,9.803540618211777
449.25145521999997,0.8799111832902194,0.01820569129751114,9.811042863959704
449.75279986000004,0.8783790026123444,0.01984906855156795,9.799298258025814
450.25414490000003,0.8851507220356766,0.020235000213773082,9.80504937426269
450.75047617142855,0.875302224829963,0.015596872292393928,9.801878028681088
451.2468072,0.8799640189971569,0.010279490395735265,9.801964665085725
451.74815226799996,0.8764868712403603,0.014080491727807872,9.805391085571594
452.24949730000003,0.8740053630202904,0.018137751901911886,9.803812852422256
452.750842774,0.8746032062874914,0.023598549716138964,9.810807573571365
453.2521887,0.8685141933640055,0.02158294370999791,9.813103850791709
453.75353448000004,0.8659266486514029,0.025949835950375925,9.788816129071694
454.24986690816326,0.8705459560753465,0.029427837522278708,9.804200821798421
454.74619955000003,0.8615853327288623,0.021932337258890593,9.809288195654235
455.2475461,0.8775091710378574,0.013360495461560262,9.806275384718903
455.74889234200003,0.8651011269070326,0.021129395525813797,9.80723626704023
456.25023867999994,0.8639001353647285,0.02882819243991782,9.799486793026478
456.751585158,0.8957418982048315,0.019677525502393642,9.806896979819452
457.25293196,0.9403228797386067,-0.010289807560884722,9.793684036015097
457.75427865999995,0.912740460973978,-0.002663280420239158,9.802029199502664
458.25061147959184,0.9361789995119014,-0.016304432385882035,9.802510748097909
458.746945234,0.911743827772341,-0.013807965065687943,9.792540748451152
459.248293,0.9219251698522223,-0.0030044548622656787,9.802289196382272
459.749640368,0.891229456908673,0.0028179873246299597,9.806923861961733
460.25098791999994,0.8869100444549782,0.005284043478105285,9.799562522734826
460.75233563,0.8921530350373417,0.00660593568853005,9.798840522004644
461.25368371999997,0.8787469230310753,0.0060954108050976395,9.80959497359007
461.75001787551025,0.9033041997491235,-0.008608690693662852,9.801240686377444
462.2463517,0.9342256393496616,-0.026741634290010127,9.803556637014637
462.747699508,0.8913615297904112,-0.024875623992879223,9.795602109114142
463.24904766,0.9182803777883843,-0.030571965038657414,9.799134987887632
463.75039559199996,0.9348271399056717,-0.031005043722129436,9.792311938017825
464.25174306,0.9525098755429685,-0.025760020984918485,9.79853657521537
464.75309146,0.9386657310357307,-0.022070564201248862,9.795345717337973
465.24942740612244,0.9233597202586342,-0.017404449457075425,9.797661616332169
465.74576240000005,0.9280472416214294,-0.01561623642462525,9.801876176253645
466.2471112,0.9228784438040014,-0.013759017582436856,9.793977599011841
466.74846017999994,0.923765297739354,-0.017089007536541224,9.799680664661757
467.24980934,0.9072921370627789,-0.007654901079645129,9.800166582725604
467.751158504,0.9136760681141349,-0.011536443162454254,9.792184581588248
468.25250728,0.9578743693061595,-0.030135324668854012,9.798887191939121
468.75385708,0.9654581110379739,-0.05308817304706017,9.794906014965576
469.25019399999996,0.9620555503159195,-0.05646601255353621,9.795074165846644
469.74653043,0.9516744387648634,-0.06606734691044804,9.794376740317468
470.24788,0.9543708058212778,-0.04679063455909267,9.793829498252705
470.74923008400003,0.9563623427821452,-0.036875565667686766,9.79069473879815
471.25058118,0.9609483470934481,-0.03176876781253916,9.794490110010404
471.75193160000003,0.9633861729108172,-0.0311592908654069,9.793206641470688
472.25328240000005,0.960934784035911,-0.02705510942556035,9.794552583770287
472.74961954489794,0.9647118786621451,-0.03382739682746827,9.789978155876046
473.24595650000003,0.9754809084522768,-0.049811444231833375,9.795302370777561
473.747307642,0.9649170151138836,-0.04056104591854501,9.790293812024165
474.24865926,0.9653956132040483,-0.03530695204448646,9.794106211972002
474.75001078599996,0.9612031032980595,-0.03202558733101277,9.793806169566619
475.25136244000004,0.958047410358887,-0.02447189083346021,9.795000807865327
475.75271425200003,0.9574135357295455,-0.03412535241172659,9.792952267946283
476.254065942,1.01917875461707,-0.02550934343142532,9.786201887207026
476.7504047346939,1.0009935954078375,-0.032902371007945234,9.786120253260352
477.24674394,1.0045359987570557,-0.032002000254758724,9.788369702987996
477.74809667,0.994471938555634,-0.0393538219748609,9.788847379417653
478.24944990000006,0.9969891834924592,-0.0298391812611999,9.789612788325606
478.75080291,0.9911717328740671,-0.026383636738623345,9.790076233665332
479.25215562,0.9967410106655108,-0.02794758626489811,9.78929875962239
479.75350904799996,0.9964582960688017,-0.026349837555126182,9.79106011336749
480.2498491897959,0.998344573676558,-0.026047720604190645,9.787818408721332
480.746189416,0.9961928894315267,-0.026353923907663696,9.788632616649886
481.24754356,0.9970563419810375,-0.025841598914169296,9.788321236617342
481.74889759999996,0.9998096106876414,-0.03242715703838579,9.790654663566505
482.25025174,0.9999498118134125,-0.03791927545043764,9.787828603986075
482.751606044,0.997357968094694,-0.029878487671257576,9.790329395576592
483.25296013999997,0.9941238838631297,-0.02890083829449308,9.789863322361503
483.754314848,0.9942921352009619,-0.02515310566596828,9.78947672261447
484.2506562897959,0.9952400836391799,-0.028502463364354108,9.790416542620715
484.746997748,1.0135818315255072,-0.036453768637736056,9.786015090993399
485.24835315999997,0.9890554974679227,-0.034691493062007896,9.78963769237312
485.74970839599996,0.9978103454995404,-0.02757895492443011,9.79149624660005
486.25106366,0.9953194609874864,-0.02757276533497607,9.79180578538422
486.752419068,0.9940362039238676,-0.025608212046189884,9.789862865071772
487.25377408,1.000696594502065,-0.015481293549850325,9.790643150678141
487.7501164204082,0.9495707521406531,-0.005666770321029323,9.794428947771957
488.2464591,0.9475857094224314,-0.007270735923398302,9.794157178873286
488.747815216,0.9620999965226626,-0.007887370136171194,9.793776048585851
489.2491713,0.9804277252142859,-0.0030631490321240875,9.791507923326444
489.750527716,0.9846955657601859,-0.01470500093801299,9.792408320586594
490.25188446,0.9910772687867548,-0.008892100013135881,9.79320956594944
490.75324114800003,0.9839105501892385,-0.0196016969207912,9.792383642906072
491.2495843163265,0.9936991224184402,-0.020196058527833887,9.791695137177918
491.74592766,0.9806883731861572,-0.01787023624726481,9.794815748016028
492.24728458,0.9746094068805384,-0.009694621033473232,9.79395970108647
492.74864181600003,0.9785264854843639,-0.010301056052847556,9.795179002200127
493.24999938,0.9782482213585222,-0.009993628618275251,9.793807053379386
493.75135671600003,0.9768342061212238,-0.011630357030738787,9.79422669573778
494.25271406,0.9794159035783849,-0.008909297332037358,9.792680185522771
494.75407158,0.9780268125654925,-0.010263322072019512,9.794872119786737
495.25041568571424,0.9794316252595915,-0.010545136151726147,9.79401629199732
495.74675990000003,0.9746374838460146,-0.00827253985925499,9.794144213507549
496.24811796,0.9804065482857593,-0.010474092971635334,9.79241249456402
496.74947598,0.9758350806033593,-0.008398097410777098,9.794627123781598
497.25083401999996,0.9773322695551292,-0.010230881811193257,9.793618545135304
497.75219215,0.9639140994038249,-0.008325934311846075,9.794542023621984
498.25355052,0.9697713170702589,-0.00399027759793974,9.795268296810718
498.74989527142856,0.9693980276166192,-0.014725192718612765,9.795662591120458
499.24623996,0.9593613585040704,-0.01522785398484578,9.793149398159601
499.7475986,0.9831141447435492,-0.003889659575605398,9.796328014409442
500.24895808,0.9737285126662507,-0.0005334120185476611,9.79237392236052
500.75031672,0.9797723741205921,-0.015663360951039783,9.794110315571935
501.25167444,0.9915130289741064,-0.01390550332876279,9.79333043634152
501.75303332000004,1.0010655705554903,-0.008747891336939283,9.7923557489153
502.24937868775515,0.9961706424236525,0.0010778045125015999,9.797602504587386
502.74572421600004,0.9954972737100322,0.10079820694277347,9.780648093517645
503.24708402,1.0019487846243846,0.3373344523353612,9.797537348775075
503.74844327,1.0259684013297623,0.5439339768260968,9.792230260728283
504.24980274,1.041927669311257,0.7613649275280419,9.790921857149042
504.75116213,1.0620598934009597,0.8900060426286587,9.782491064926592
505.25252154000003,1.0606804028106043,0.8896916813843002,9.786987448714518
505.7538811,1.054363787652486,0.8902019853857567,9.788859083386717
506.2502270244898,1.0618998324713322,0.8934111491643875,9.787011759467976
506.746573104,1.0551536725835882,0.8909432708207089,9.786721568921696
507.2479323,1.0602012739458968,0.8928510973293077,9.787172958127613
507.749292264,1.0482451559107056,0.8926763325081731,9.788885723545517
508.25065292,1.0568177567374628,0.8954547951627299,9.790276750175133
508.75201298400003,1.0596514251965166,0.8961358950311659,9.785523749932056
509.25337248000005,1.0677437758146702,0.8987402715893761,9.781668580858112
509.74971918367345,1.0675100986494066,0.900519725199178,9.780186218063468
510.24606659999995,1.0601421725783202,0.8954796099964442,9.794491372306906
510.747427008,1.0428852237892805,0.8993405036114518,9.786369669154837
511.2487876,1.0514113326410741,0.9010881592868162,9.787576574156713
511.750148092,1.0702968857226076,0.8953774727611079,9.800656225622616
512.25150862,1.068073397277772,0.8970848505400802,9.780615388529515
512.752869316,1.0530208582782843,0.8989158828063059,9.78764594656672
513.25423032,1.0151169524700476,0.9014033239885318,9.772858279969116
513.7505775673469,1.0917131065753782,0.8821508354463514,9.80865386391845
514.2469249000001,1.0923569483307034,0.8947095620871107,9.79601736992159
514.7482859520001,1.0002232480557054,0.9109520990302616,9.775753849291421
515.2496465600001,1.0776231433001524,0.9027923051830933,9.770976931729107
515.751007748,1.1371761367365467,0.8689899351332278,9.804107150636975
516.2523691,0.9448447114817785,0.8864589850744395,9.777001726477932
516.7537304,1.0631133915001494,0.8614196595699781,9.794107988270598
517.2500785673469,1.1431293929572468,0.8449410170182848,9.781501861063607
517.746426348,0.970187035595112,0.8206992523393368,9.794622992049652
518.24778772,1.076112183262749,0.7912236756060254,9.77580929238169
518.74914934,1.1005170565353857,0.7649278738834566,9.797913216862252
519.25051106,0.9859416521228571,0.7515317729555057,9.783981117594125
519.751872928,1.0843911248864715,0.727639261558665,9.789017981800722
520.25323452,1.0234701495601068,0.7147003860841515,9.792143170596592
520.7495830183674,1.0387989101971913,0.6924156504866873,9.77454031559069
521.24593198,1.0751885974731237,0.6800949695545588,9.800566277746606
521.747294258,0.9941452070607775,0.6635941821404562,9.802968458785063
522.2486559,1.057893156644252,0.6489289648853704,9.800435742350185
522.750018406,1.045427301435381,0.6409326885373282,9.806622092469702
523.2513810199999,1.0112403990202927,0.6326284284224504,9.793625220559633
523.75274376,1.1329377689125877,0.6215763466634905,9.800413427587442
524.25410642,1.0935402567898287,0.6149067119398918,9.779335430187762
524.7504555204082,1.185412132424981,0.6130744878206908,9.727364098526467
525.24680468,1.0418659210951908,0.5692843450707212,9.721816893040257
525.748167518,1.1860315473846768,0.5566579404590372,9.877515610557346
526.24953068,1.035926810633546,0.5455190646615776,9.711772722414505
526.750893724,1.227717130558513,0.5463144050314157,9.851534814892432
527.25225714,1.0532986160665936,0.41173675285254957,9.71997541641677
527.753620182,1.1950966507990406,0.19051402310030457,9.82923380692047
528.249968832653,1.0485193937730497,-0.025179836033281958,9.77850571663532
528.7463184100001,1.1645189260115176,-0.04843214898788462,9.799103095348851
529.24768208,1.0489731589926954,0.04523598765192507,9.779676092096514
529.749045478,1.1901786506621042,0.12754270200109954,9.776704476181084
530.25040926,1.05261294734257,0.2246051423949549,9.800983284637757
530.751772874,1.1885785331735974,0.31507845144396557,9.723570687552417
531.253136488,1.0786500098969567,0.4137541400079763,9.804497506837308
531.7494865918368,1.048005732793075,0.4620416052578984,9.785933939138296
532.2458366,0.9719793687721717,0.493860877806272,9.827387001956627
532.747200512,1.0110041420272375,0.5040935171778638,9.798173283701797
533.2485648200001,1.0178448984381236,0.4967888009537771,9.79857503525409
533.749928898,1.0022907757707629,0.4886014708902191,9.787338473599572
534.251292518,1.008448318499807,0.4774779718181478,9.776344951000086
534.752656736,1.059217541635467,0.4624058577335412,9.816120241256636
535.2540213,0.980494758099029,0.45779372105824906,9.789937691335588
535.7503720877551,1.0936906123289827,0.4765470233187099,9.799864395507997
536.24672328,0.9403245998243345,0.43100010900960606,9.776823019254875
536.748087788,1.0821559913654428,0.4371509800585746,9.804365432449414
537.24945208,0.9691578178714502,0.4369856740437745,9.80174115804118
537.750816744,1.1160370447485783,0.4617102268036347,9.747534631317942
538.2521816,1.0321675609402665,0.43190051793295625,9.777053778506234
538.7535464,0.9541753275473595,0.3208959173245789,9.696064158923653
539.2498976571428,1.045294174645372,0.005546703934401066,9.879273145155773
539.746248936,0.9244565577629824,-0.02426537424469837,9.895029876180235
540.24761374,1.1805437177377385,-0.043241086774149284,9.689186591885568
540.748978884,1.1509197161373295,-0.026516579721481928,9.861642689186041
541.25034464,1.2238466748187204,-0.02160661070907317,9.685679927156455
541.751709944,1.1910786150864703,-0.053759517473968864,9.826414859516646
542.25307534,1.1633883574997006,-0.0456435228833247,9.788145228845
542.7494270857143,1.1688908917729077,-0.07689845845961611,9.776974119180414
543.24577832,1.1555583678953256,-0.0798100813316153,9.777481475775613
543.747143842,1.1456039254407042,-0.058667543932795274,9.783537842085487
544.24850956,1.2521847343412689,-0.03709179331453758,9.782439276379694
544.749875226,1.1267199542388682,-0.03260754411402041,9.760273088218957
545.2512412,1.1470599308436473,-0.04924847866331305,9.785477315748151
545.752607012,1.1968477027113584,-0.044281444912724864,9.790703101341354
546.2539725,1.1434190752803624,-0.0533213092248158,9.848778266195698
546.7503247244898,1.1504513584401066,-0.04116292578490912,9.705268630743097
547.2466771,1.1944203029905351,-0.06423520533492436,9.837689968370343
547.748043096,1.1615604902923597,-0.040430187986484754,9.712857406570683
548.24940892,1.2282017939488248,-0.057633523197882265,9.778062718360452
548.750775,1.1469799079159868,-0.04143048077991149,9.827530952843382
549.2521411,1.1212178550715313,-0.040377549617764984,9.701781980906992
549.753507226,1.2178512941651192,-0.05989929585848215,9.878822778136668
550.2498599836734,1.1246686713719232,-0.02669014750562186,9.676236853206404
550.74621262,1.0562216647724163,-0.04596820905522967,9.853599981092922
551.24757848,1.064495929417286,-0.039078335375114064,9.772140982372983
551.7489449,0.9894412366316837,-0.034467810937329126,9.76615058198475
552.2503114,1.0803154684743324,-0.03591324120772823,9.800534927372592
552.751677874,0.8624041763693122,-0.04136846392793526,9.82163285337338
553.2530448800001,1.0555901485355466,-0.05434879407620607,9.783576740823575
553.7493974061225,0.9810419379080415,-0.05762847584063651,9.791239334527566
554.245749,0.9858802188320104,-0.057813169628785396,9.804784602548732
554.74711534,0.9929379578325198,-0.056360292532748255,9.791027441100121
555.24848244,0.9892547002546823,-0.03841923099460443,9.79193570622341
555.74984882,0.9908900235691636,-0.03714317596931478,9.780978756683012
556.25121516,0.9668841075471208,-0.04262128868228901,9.799947487072938
556.75258184,0.9973011055709933,-0.03736082658315986,9.813872947843768
557.253949,0.958120088175151,-0.04414639066950658,9.784652458712825
557.7503023265306,1.0309694957949136,-0.03861339733660927,9.767560898366437
558.24665578,1.0191428472517436,-0.04336458805869448,9.768714922127652
558.74802288,0.9702407411797833,-0.06947427326829583,9.867924518522758
559.24939002,0.9352145711052305,-0.03765587804855648,9.923690525309702
559.7507573199999,0.9478606591404786,0.023655556576792556,9.625534866460026
560.25212446,0.9119586316125999,0.05670228893985061,9.825484109886805
560.75349198,1.0932686115948729,0.14324381243997597,9.779229403154039
561.2498453979592,0.7886903727528637,0.21116009257684643,9.820111898766358
561.7461994,1.1352282122699773,0.3095392229207781,9.80147942842834
562.247567024,0.9773704006793725,0.3822547167890371,9.727212900662739
562.74893494,1.0290500959687099,0.4557923721812272,9.797991930859256
563.250303606,0.981644027054702,0.44998364257118595,9.786557503068911
563.75167164,1.02124045138792,0.4288582679839251,9.847505565887534
564.25303918,0.9688659202623943,0.4399039776169814,9.749718950470823
564.749393622449,0.8919794525447323,0.43340457256167975,9.792733025408282
565.245748082,1.091886007274932,0.4194503452655465,9.791720003740823
565.7471165,0.9182670670620895,0.4118172775078851,9.805256104978428
566.248485038,1.0264718097405319,0.4278673163906721,9.812726541987168
566.74985366,1.0583078459300614,0.41279614290097955,9.747200769454897
567.2512224779999,0.9594542675144305,0.40065412194694056,9.81070898005489
567.75259134,1.0262429727952485,0.4028152046280745,9.783164014959107
568.253960418,1.0409752874446967,0.40882271485491684,9.784019043284456
568.7503158020407,0.991735557392927,0.3899841614374777,9.808013112817527
569.24667132,1.0190390190373868,0.39549209720168604,9.778336426006005
569.74804062,0.8655972099181115,0.39176913774915073,9.75502594192699
570.24941051,0.9540942392908722,0.3752000606919328,9.834497783946333
570.75078006,1.075159554152218,0.3809173416975556,9.786498116676569
571.252148934,0.8782381150759042,0.36837972384449924,9.830770094773118
571.75351868,1.0352858936991933,0.37547633680795817,9.77689467451893
572.2498754714286,1.0682703330834746,0.37454819981424786,9.794284071233289
572.7462317,0.9884110559496295,0.3394375148726185,9.75857039069894
573.247601316,1.0093342710522033,0.3285828701254418,9.835655784888585
573.7489714999999,0.9027653032410211,0.3195457553237673,9.801933955985664
574.250341816,0.9360394178007109,0.3388815167658605,9.825598521232367
574.75171214,1.0992027632984969,0.3440983125618617,9.719221854664761
575.2530822240001,0.9072916307719382,0.319109791922612,9.821542119772227
575.7494389857143,0.8494390167681716,0.3453418413000878,9.780116317821419
576.245795706,1.136724033671778,0.34737296791614325,9.798463681517912
576.74716632,0.9144969725024636,0.33796776364695896,9.790931394666101
577.248536944,0.9900970765943437,0.3303184933116451,9.790803698397523
577.74990776,0.9574041608004162,0.30919142871745964,9.80146175321515
578.251278276,0.9215509665603233,0.3086910639726754,9.868435040232688
578.75264924,1.1252137718772783,0.34337082428736315,9.696489676472536
579.254020876,1.0123807020433035,0.30323158002730904,9.777662259839746
579.750378332653,0.9102929207739133,0.30195566755078546,9.817743573877186
580.246735976,0.9319512952109857,0.315973654496885,9.817259362325949
580.74810738,1.1063538402933046,0.3296798610494772,9.741237509162122
581.24947876,0.9209150467643968,0.29397251516620704,9.821721234737161
581.75085028,1.0487661334689726,0.31473212431625475,9.788008976586719
582.252222032,1.0170468269226312,0.28404420075922604,9.78362969333444
582.75359368,1.0360219831625828,0.3043730602482004,9.819754553697003
583.2499519265306,0.95720820260412,0.29888867774270494,9.848757075909662
583.74631004,0.9773378224833522,0.294338032437171,9.75488143758161
584.24768094,0.8567328422368228,0.28532372226418273,9.846581175008799
584.74905284,0.9223322337801997,0.2985796566725734,9.754752787309679
585.250425456,1.1454078995839319,0.2996270226194553,9.747991506256689
585.7517976,0.8966892832487511,0.2615823845774872,9.812559638804643
586.253169588,0.9623839253165452,0.272614370691074,9.833666763793461
586.7495281510204,1.0054035553446494,0.27596747892155926,9.798837733735908
587.24588678,1.0023624791267178,0.2802396186599216,9.793940591099583
587.74725926,1.0536037942973195,0.27554425091634543,9.79799669484058
588.248632102,1.0493191365822045,0.2624453295249351,9.797015695393984
588.75000478,1.0824297010489836,0.28377625412336127,9.769419176578376
589.251377574,0.8615142430578732,0.23597086347673416,9.825597400752388
589.75275042,1.1904624488853481,0.2890936208207418,9.758537931413292
590.254123396,1.021749153041225,0.24374906743727304,9.762238659296914
590.7504826306123,1.1028698223154076,0.23607780932059463,9.830833328239061
591.246841732,1.0865381094303268,0.2764849378663611,9.805567035238326
591.74821476,0.9802469186451119,0.254859622859309,9.79190685677262
592.249587524,1.1496370601645702,0.2798770354733214,9.78044854663107
592.75096072,1.0583634718654056,0.2505900957008403,9.782058087743001
593.252334376,0.9648287577352869,0.25033386660165263,9.797268005616447
593.7537078,1.1560146994214977,0.2510714267936751,9.792300635479037
594.2500672714286,1.1120766672160463,0.24383671736921003,9.769654472212748
594.74642708,0.9940334711715463,0.2280038948210881,9.83275655209586
595.247801022,1.1683771412660733,0.27366151884945217,9.806786961670888
595.74917484,1.0137457100876863,0.2533331136533697,9.747211283347816
596.250547968,0.9666197737119421,0.23061054024588232,9.805296747066869
596.7519218,1.1521024090748884,0.24260305772367474,9.756592747035482
597.253296102,1.0063574413900367,0.2328002124280222,9.83306611109142
597.7496564408164,1.1808986621914994,0.24938960324789367,9.80573595158444
598.2460170520001,1.0222865295726409,0.18832442419279727,9.788628301993285
598.74739128,1.0248342515958717,0.021594603055453784,9.837178990261751
599.24876614,1.1255461063352417,-0.0568395285507752,9.72304283606775
599.75014064,0.99100964437281,-0.0932050925096689,9.800446019111586
600.251514956,0.9918864559952832,-0.08121232214505929,9.804728726825257
600.7528895400001,1.073332333583095,-0.07627747471358395,9.793076605421968
601.254264092,1.0100230965451593,-0.06568020898153579,9.79917459519173
601.7506248653061,1.110340515953455,-0.08369312761662064,9.805055844968406
602.246986008,0.9750777863853634,-0.0814394468820812,9.795919487142251
602.748361,1.1748957485719205,-0.08079409999820845,9.78562047889744
603.249735816,0.9111473858244047,-0.10537391938019244,9.796282447891242
603.7511108,1.06531647332387,-0.07498246501904089,9.766491350435958
604.252485616,1.0419491346710839,-0.09076514395807729,9.823795529473198
604.75386098,1.1902180371868483,-0.07217409523390111,9.780427569611406
605.2502229367348,0.9614762129774708,-0.10872539100230744,9.829901173930956
605.746584716,1.0515567507957573,-0.08735580758246753,9.771550612868499
606.247959918,1.02567821459586,-0.07997506403569768,9.773210311502446
606.7493354,1.1207314008852904,-0.10248971688149672,9.781570897095113
607.250711612,0.9899079231961356,-0.10154646906717439,9.820255174226602
607.75208736,1.068052497893694,-0.08169310301325108,9.845411188523007
608.25346326,1.140281249473609,-0.07013426394048299,9.721372518015325
608.7498254265306,0.8880513674871865,-0.09404835047802779,9.814738164534635
609.24618719,1.1442931065224382,-0.058338116464042536,9.818020791212643
609.74756328,0.9858092922449861,-0.05794246739767886,9.760001481109999
610.2489398600001,0.946806457347422,-0.07719029779098485,9.827704149627536
610.75031616,1.1596976767145186,-0.03856755291093874,9.798543707069367
611.2516926119999,1.0400310041494207,-0.06643514382611652,9.87392146002042
611.7530691,0.9381763455960039,-0.05209351488267927,9.909710406914472
612.2494319469388,1.212605467411493,-0.032796037645304144,9.87190565174459
612.74579482,0.8967513199693528,-0.07342775061846525,9.94220452465002
613.24717069,1.0612133388437244,-0.039358982511036644,9.902050233391714
613.74854734,1.0809115325794079,-0.05215619615571326,9.92267346131279
614.24992438,1.0045473533745417,-0.031194929976809557,9.840654953804489
614.75130126,1.000360881693633,-0.059833584701095927,9.95638064258674
615.25267806,1.0368008425646733,-0.059655403013325906,9.92732248431771
615.75405506,1.0926265774137018,-0.010645749732832964,9.852385198791644
616.2504183816327,0.9498969501118779,-0.05236908804184409,9.860757175410782
616.74678176,1.037433564646853,-0.04252915513860403,9.840249116820207
617.2481591,1.0486617931061526,-0.043510012734500794,9.836946190104019
617.74953636,0.9526469337852184,-0.04565663479891879,9.754926637853261
618.25091389,0.9347369928403821,-0.03891166867095533,9.763604020790261
618.75229128,1.026949502264947,-0.06269495231774276,9.831315916836731
619.25366803,0.9861523497771837,-0.047628099162186806,9.802371463739938
619.7500316510204,1.0483973028276692,-0.04717750010110675,9.77194939797692
620.246395976,0.8070274566344842,-0.07705427667590971,9.91007756399569
620.74777366,1.0741100083348423,-0.022098563046504864,9.676059054821541
621.249151016,0.8769858152367047,-0.056669294429269365,9.863710485012268
621.75052868,1.1060129608436775,0.0009091779791139047,9.744229988068959
622.25190614,0.9944672266195469,0.010434415329069233,9.81783236971801
622.7532839,1.0377469637513947,0.12898809303660452,9.822385127108687
623.2496483367347,0.9227495269102566,0.15686525422607586,9.818209575925282
623.7460124,0.753579060633935,0.21330465704186033,9.648748296298557
624.247390456,0.9541669799554624,0.2630614883619193,9.842905511959614
624.74876842,1.0787920970844336,0.28596953779649426,9.862912000220826
625.25014594,0.9541361956418193,0.29928269430417,9.859660781604846
625.75152396,1.1365122129191472,0.31671170754460176,9.774309857200432
626.252902156,0.9385952004893184,0.3054369337304284,9.600553557044186
626.75428016,0.9018810274127462,0.26177406188704877,9.77193156533542
627.2506449387755,0.9899666867237524,0.2930660460184599,9.845167715638333
627.7470091600001,0.9677076406562927,0.2790834593344906,9.697496863281655
628.248386828,0.9621438203202891,0.2638709129249093,9.82583775282355
628.74976486,0.9844638516460015,0.29414633233436627,9.76439206462093
629.251143332,1.0199792034988469,0.28774987512072225,9.78930988747318
629.7525216199999,0.7990740681288733,0.2881872728866032,9.803312031193546
630.253899492,1.155752105282057,0.33559213130639065,9.774239391094127
630.7502641959184,0.9319197172626208,0.2604428556212072,9.860322130907903
631.2466293379999,0.9025562795083399,0.15584288151906706,9.768086885278457
631.74800806,0.937261171658134,0.11574837984904679,9.741969252068252
632.24938678,1.0100974817466772,0.16255307151979523,9.918149391552594
632.75076556,1.067446744589941,0.22985477787540687,9.741860441366107
633.252144452,1.1379521845968752,0.2838316990560786,9.785187738681987
633.7535235600001,1.0405882237541921,0.2988455252273228,9.705725055800452
634.2498891979592,1.0574319499331952,0.2879451976863016,9.823295412894844
634.74625498,1.1082102396603555,0.3001924950552642,9.806898355475369
635.247635064,1.1486581261065727,0.2969445679974616,9.75765708739794
635.74901516,1.0846739757027943,0.29384032485823913,9.768331088836549
636.250394944,1.1318995282593292,0.28525884401164453,9.790349170001681
636.75177534,1.0010470820962947,0.29926067202926326,9.672875564953374
637.253156256,1.1606112994119515,0.27354357026748155,9.678462289227248
637.7495233530612,0.8346007142464699,0.24554890683894612,9.698316243080827
638.245890958,1.0218211587803294,0.2663104788457528,9.738159246148301
638.74727224,1.0082878075061428,0.2840908137562458,9.650621273961782
639.248653414,0.9615216746741269,0.26034266236195613,9.529080847554118
639.7500347399999,0.9272097946658465,0.22111204665190065,9.908160276510664
640.251416068,1.0232285473078333,0.26805395242980956,9.797873157593857
640.75279776,1.013853514867893,0.2508227131253199,9.750975355123277
641.254179554,0.9545963938924511,0.23466090132319234,9.753149133953293
641.7505478040816,1.0191222879995194,0.24458097586792074,9.791191921883136
642.246916406,0.956997766891314,0.23965037621455226,9.785716437178431
642.74829896,1.0019545948436919,0.2854079729301933,9.790450948432545
643.249681594,0.9095704474214565,0.2890967953446239,9.860997310100391
643.7510645,0.7276031630720077,0.19947971134078876,9.782665949384768
644.252448276,0.8926451019218636,0.01230857663649508,9.793551466173255
644.7538317,0.7004469233933621,-0.045182449701670964,9.837279337402753
645.2502007795919,0.5278496252742716,-0.0595374673163974,9.877262612990464
645.7465707,0.9969580328024128,0.0005460319264376756,9.808339603660412
646.247954884,0.7461132043751174,-0.03917889404510234,9.662449770948738
646.74933918,0.8284672373293495,-0.08331768504963324,9.899809296525795
647.25072416,0.5773403732565456,-0.03056465225569861,9.81658225212428
647.752109,0.9126202315655452,-0.05334800889416233,9.792422863951298
648.2534934700001,0.6073986173345444,-0.26313804416248693,9.806840930288995
648.7498645408164,0.7549080415526483,-0.3337413419615247,9.849096328026354
649.246235672,0.6950767245645741,-0.4068714413269545,9.828830707680236
649.74762088,0.5337906406816484,-0.483119848647941,9.835782849474976
650.249006236,0.5609424997809637,-0.5006658379024951,9.848964900072273
650.75039184,0.5917457144025882,-0.484004047056769,9.828650165661706
651.251777856,0.45094749129296974,-0.5156982471374398,9.827702716181047
651.75316388,0.42467615814115545,-0.5198852831790043,9.852165468580614
652.2495358367347,0.38618540529325873,-0.5211344557512667,9.861851670079444
652.74590828,0.4405280088771943,-0.5102910692953698,9.896974925369008
653.2472953399999,0.4498632825259808,-0.49048624465102236,9.832896682076681
653.74868228,0.4525959749706337,-0.5110276709011446,9.916571508657903
654.250069508,0.46889770023348937,-0.5064978960543577,9.800161102519377
654.7514569,0.4616912921491347,-0.5526256932262055,9.948218524387716
655.252843916,0.6524371240983232,-0.4919295484225749,9.762356984547122
655.7542316,0.4863775802516699,-0.5360492159300546,9.812436021728999
656.2506060224489,0.5920320851717785,-0.5039846633912956,9.841409704362055
656.7469803600001,0.855901911257913,-0.5227367461752557,9.762344563180264
657.248368882,0.806448616345455,-0.5279797522375348,9.613642143303458
657.7497575,0.8154804239821106,-0.5632859878185321,9.78994875659547
658.251146212,1.0136840423499573,-0.5181836055135088,9.673979336935798
658.75253522,0.7377563927254591,-0.5708427167233566,9.72403207890526
659.2539248559999,0.9003281357579405,-0.5573554061725455,10.040251543343713
659.7503004897959,0.8245065966274056,-0.4883387042161789,9.430667688043783
660.2466759939999,0.8340013821228359,-0.5430663741432454,9.908951282589097
660.7480658220001,0.8586217633458275,-0.518009182332003,9.86757916313391
661.2494562339999,0.885801385784917,-0.5301951701888256,9.902173535177543
661.7508465200001,0.81975546370309,-0.4953144352836686,9.54953223031917
662.252236162,0.9343234139494494,-0.5335942572527799,9.883078435843563
662.75362664,0.8226309240246757,-0.47735635862227077,9.840282749465475
663.2500040551021,0.9236788298456847,-0.5040824735177661,9.853980803911552
663.74638122,0.7913355921446265,-0.4769717838413184,9.722256403774436
664.24777187,0.8991241366536084,-0.5172721278204007,9.86284988242952
664.74916308,0.8172628535842176,-0.487007293772949,9.763130353897886
665.250554562,0.9275842827878915,-0.4843296168106433,9.748819729718734
665.7519461200001,0.7652080426998737,-0.5162333622235034,9.827352917803614
666.2533373680001,0.910968056321111,-0.49837569976121704,9.822288193139538
666.7497151836735,0.7456933520606276,-0.5162978215863068,9.766017658134535
667.2460937000001,0.8269345626934403,-0.4810567014237098,9.839146120256423
667.74748592,0.8976733602631266,-0.4890806115545719,9.836277509041762
668.24887858,0.9615289514952678,-0.5150629349975907,9.727302667956941
668.75027108,0.7903778807345792,-0.4891126792987178,9.79905130077891
669.251663272,0.9189475035102409,-0.47707562658639946,9.795458944302858
669.75305582,0.7758857496775685,-0.5140613896303033,9.928043894274147
670.2494349040817,0.9466503226861885,-0.48436667343850515,9.639614343318494
670.74581388,0.9003886858142779,-0.5250186019481631,9.891335962687215
671.2472063399999,0.9127773329547639,-0.5025969562101852,9.815408709655706
671.7485992400001,0.8172952153776534,-0.4741612563535576,9.796297746999313
672.2499923400001,0.8274056133580798,-0.46199499588405585,9.927618405684445
672.75138554,0.8625126197693825,-0.4392353968219635,9.681664155892047
673.2527788799999,0.833983112586342,-0.4594544302589877,9.818606801736799
673.75417228,0.8621499024415418,-0.4423718856100622,9.83557759464623
674.2505519061224,0.9281353211451773,-0.46472383328988104,9.834741440356453
674.74693136,0.822302251264572,-0.4463120829529823,9.868174684913662
675.2483248,0.9165587488398442,-0.43782833105929597,9.775028372102804
675.7497181800001,0.9451917572094115,-0.43343052144526906,9.793418187287827
676.25111078,0.9220669451101671,-0.44702436868364764,9.783388020520244
676.7525039,0.9414219684596996,-0.4650437698602584,9.804645733268933
677.25389746,0.9704421576389347,-0.4560357290852287,9.767247715729336
677.7502768673469,0.970525378176245,-0.4591389129292511,9.827576898540485
678.2466563400001,0.9961833235444374,-0.4598266706838178,9.795256273721908
678.7480497199999,0.902772246312361,-0.4491577527787072,9.783611380713403
679.2494435000001,1.0187828531177083,-0.4582852970065324,9.767338458828071
679.750837,0.9930767132501848,-0.4557427290848036,9.829423577858414
680.2522303,0.9793456486408249,-0.4505229031256979,9.77471125962828
680.75362386,1.044119386116622,-0.4719478506888015,9.80490296803421
681.2500038428572,1.0179997476312468,-0.4540937698621855,9.784457582116957
681.7463837600001,1.0066506804184856,-0.46139766951770966,9.805151797567234
682.2477774439999,1.0545647390218837,-0.45720778536417456,9.749458414040937
682.7491715,1.0075547184746068,-0.4759184222238457,9.801372051482707
683.250566018,1.0563511883252499,-0.46197014294076216,9.818258318987768
683.75196054,1.0403438927112305,-0.46275465024544443,9.770944941709399
684.2533551780001,1.0838686663081603,-0.45956136853898466,9.800680026944912
684.7497359469388,1.0460339543196384,-0.459017159839233,9.755652679882818
685.2461171320001,1.0834365465565874,-0.4565432807312071,9.800971006001369
685.74751214,1.0149542635627358,-0.4668069805449038,9.727467531138444
686.2489069280001,1.0850775363620735,-0.480482046106377,9.813153593833983
686.75030204,1.1221806904712082,-0.4563101777762653,9.76062405443741
687.251697712,1.0746392580956883,-0.4772637963490898,9.780272454979421
687.7530933,1.1407780692760539,-0.43875061504385393,9.857272269973668
688.2494744367348,1.0590188028729006,-0.3842777413548639,9.7587245555833
688.74585612,1.1243916354812966,-0.37918024053392757,9.804356400068368
689.247252304,1.1475222073176639,-0.3701430320893228,9.758738023071206
689.74864842,1.0393571055704312,-0.3811824883698172,9.803065814440835
690.250044678,1.1933214238224865,-0.3594867757215123,9.803940903585383
690.75144104,1.071972303636953,-0.35647274765047654,9.755072670608456
691.2528372639999,1.1557843747069,-0.3633258383870625,9.765496090516363
691.75423386,1.1259831035985706,-0.37077679237232386,9.796735083662998
692.2506170244898,1.0748948863843086,-0.3657270666994417,9.753978642386123
692.747,1.163680260803568,-0.36435437689031047,9.789450514082567
693.248396448,1.0972339820041281,-0.3527026294071441,9.756381356287653
693.7497934,1.158910532830978,-0.35882713515758136,9.776539457027365
694.2511909799999,1.1184745221238603,-0.3618332580728385,9.775964458474625
694.75258848,1.1506602116971176,-0.37032659699594156,9.768327023609341
695.253985276,1.135870268108738,-0.3814147021009834,9.782565151058495
695.7503686918368,1.1601279502542092,-0.22641054257198182,9.760241781237616
696.246752896,1.2173835019568713,0.0002857878166730877,9.771429655425543
696.7481509200001,1.175342152470229,0.005922085452878454,9.760457689655158
697.249549036,1.2072590220307322,-0.0022966758016230242,9.755451500172564
697.75094726,1.1993730933878688,0.0024039235578185037,9.77678162912659
698.2523454400001,1.1993431191145714,-0.008943538692555396,9.779795208007506
698.753744,1.1976985932954285,0.006765606955981603,9.745128116129097
699.2501283836734,1.171479748060014,0.011560796013195493,9.768240204691615
699.74651306,1.2501500825868823,0.011353200848171431,9.774388482099646
700.247911914,1.1548728729714581,0.01145835494112734,9.775964983074068
700.74931056,1.2271206711402867,0.004607815214514413,9.75047913558927
701.250709152,1.2317659291835446,-0.030858764302001403,9.79034774693941
701.75210798,1.1191084033847651,-0.08908803742428653,9.731354247166216
702.2535068479999,1.2469080226586813,-0.2454237908573164,9.780034586792613
702.7498919755101,1.1179035983182228,-0.44955088807843124,9.780081468641185
703.2462774219999,1.2158759645381034,-0.592064528073463,9.751987645469947
703.74767668,1.2298392306396344,-0.6065790729829919,9.759758634016794
704.2490764999999,1.1667450741142775,-0.6176585185892827,9.777582915820897
704.75047582,1.2551963773452657,-0.6333881381971824,9.763543548287984
705.25187624,1.1601133720560717,-0.5412408536489096,9.74149488464891
705.7532765000001,1.2124863672203818,-0.5145457339013013,9.776333594427795
706.2496619857143,1.2375491063689548,-0.42588650522368643,9.74700198757756
706.7460477999999,1.241186494002105,-0.4091716716998332,9.76924725919997
707.247448328,1.1884097876334194,-0.4066967953003028,9.755961086597562
707.7488490000001,1.2074749449444082,-0.4122679251950676,9.75295350105669
708.250249098,1.2947431740736752,-0.4158591601428718,9.767211585579988
708.7516497,1.2106973633488871,-0.404006415994126,9.755717161682291
709.253050546,1.2049221085671742,-0.46564957659196066,9.747704533662624
709.7494374571428,1.2260913436484353,-0.6059947428903579,9.775103399346678
710.245824448,1.194055298593023,-0.6207146331421818,9.746893335303406
710.74722576,1.1992217272759702,-0.6112951865997363,9.775065377501429
711.248627472,1.1815771934670394,-0.6164666507689405,9.76157533967804
711.75002924,1.1937239362655836,-0.6408366721625748,9.750539411651248
712.2514303219999,1.1834489149088865,-0.6658267231103406,9.76542400933708
712.7528319400001,1.1988655273377167,-0.6679959860351213,9.768133800787579
713.128883448,1.189116035693095,-0.6620346231043582,9.751603107541076
