Time (s),Linear Accelerometer_X,Linear Accelerometer_Y,Linear Accelerometer_Z
10.25147743,0.06720225018905283,0.03497817193023962,0.02880843063537456
10.752735046600002,0.06703848126152863,-0.3499478558643171,-0.09440125300496556
11.2539929,0.06211229985739436,0.3841975873760479,0.0660528617329729
11.750237593469388,0.016693743926354827,-0.03251228745181554,0.0776651991101018
12.24648274,-0.03438764730089738,0.03493094191036071,0.007819260304542526
12.7477405384,0.04374358261090215,0.004758488790454662,0.013645647810812072
13.2489983,0.06204465678526571,0.012181991638291914,0.04582149664231317
13.750256325,0.010147515632550572,-0.0009603840005460901,0.008611367958871121
14.251514010000001,0.038633375361782664,-0.044666162322536174,-0.04034398953059011
14.7527715634,0.021202314865685377,0.0526312586260081,0.07330825925406904
15.25402924,0.0184437270636655,-0.014725001903163835,0.031168860924926562
15.750274416938776,0.009443698343102085,-0.00016426834793805355,0.028779824736529274
16.2465196218,0.015229718698881149,-0.00217332318850368,0.025179903912045155
16.747778106400002,-0.008247454455458653,0.0013983203853194632,0.023552140605975852
17.24903605,0.037945197602434824,-0.003047538990048175,0.028883437463822725
17.75029399,0.01304696541579569,-0.004923526763038385,0.02405806967484129
18.25155193,0.007188436224003031,-0.001316917411258161,0.023086661376749168
18.7528088858,0.019070008857876842,0.0015397580360855545,0.021442351076244943
19.2540669824,-0.004106224093759594,-0.005027670614642924,0.031565489067065376
19.750313267755104,0.014644002186656097,-0.0006273836005845718,0.024507377339112565
20.246559050000002,0.004499303065640581,-0.002873282445374926,0.02848815217440584
20.7478171316,0.009897470991224967,-0.0020961893438839955,0.022828159863526473
21.24907572,0.011569864899466951,-0.0028252668009033995,0.025873871381514008
21.750338178399996,0.026303455624017244,-0.012559301763424282,0.030010988664624753
22.251597139999998,-0.002679634014531248,0.0053578512817430615,0.019778904793915277
22.7528521968,0.006607648616065887,-0.004132076559782332,0.02768319950345484
23.25411102,0.007438569993486985,-0.002160936718922541,0.0265808424310735
23.750358217755103,0.011736629970798627,-0.007176805677263299,0.025204120671078255
24.246604849999997,0.007813299891637298,-0.003567574749499238,0.029858932256002304
24.747863935,0.007863780516594724,-0.0003161923169238065,0.023929792250028507
25.24912332,0.01256008877443439,-0.0006009677858470644,0.024609783908968317
25.75038238,0.01233724310797503,-0.0010538122334611307,0.024591913861810585
26.25164194,0.012131988242554261,-0.0008223251263980668,0.027200868799848014
26.75290168,0.01061373374834116,-0.0005408727034315031,0.029618210546536728
27.25416158,0.007585606049454256,-0.003021380100149114,0.025251401704560226
27.7504089677551,0.012033852203451384,-0.002488577036688451,0.028190085570496765
28.24665638,0.01125183338784867,-0.0006971125233761794,0.02708014947391889
28.747916682200003,0.017301195013190808,-0.003571791358048121,0.022994219877907347
29.249177009999997,0.011177643492866573,-0.0022255514121555238,0.02475672086039644
29.750437091600002,0.00838836868858299,-0.0016246675863822863,0.027725829649422818
30.2516976324,0.010559107599671746,-0.00400111474279012,0.026716530180721457
30.752958682600003,0.012357927330447596,-0.0007984928178175298,0.02860811493457579
31.25421949,0.00633506983494862,0.001237354635843102,0.0252035589005677
31.750467549387757,0.013785123268781504,-0.0004294830528431247,0.030047417517103724
32.24671596,0.012823094200779596,0.0009011904979748565,0.029043906262872444
32.747977295,0.07505443745587452,-0.003677086017986354,0.03142418845626395
33.249238569999996,-0.005718449024782173,0.00834458410768841,0.015473640125586208
33.7505002448,-0.02640978979073841,-0.004627749989244555,0.032502589366317426
34.25176173,-0.049119525516719546,-0.03562312205701283,0.06056075684444396
34.7530230902,0.03307931145452743,0.06750990984869264,-0.015481931642994402
35.254284659999996,-0.04113328387156648,0.025156986252532865,0.06636308588392953
35.75053355816327,0.010366829460659482,-0.020606021719565337,0.02188207283540113
36.2467827926,0.018122498414835698,0.01137022217176068,0.03268516340557689
36.748044562800004,0.014310458351908806,0.01938026080530147,0.03201015875551898
37.24930659,0.012418295664861126,0.007418757395390717,0.03008492434215025
37.75056877,0.001290059582701325,0.012087887505138877,0.03553149118128454
38.25183097,0.0046975579493979515,0.008556325910689631,0.03298352959458626
38.753093563,0.009880523428608375,0.010934137938716887,0.03073213390649555
39.2543560712,0.005917769923125606,0.006228945687318185,0.033608455846976006
39.750605607755105,0.008579070845519841,0.009835725466812186,0.02799055801219177
40.24685564,0.010117878198790935,0.008893520061529055,0.03177296707520785
40.748118490399996,0.007817345013564372,0.010545415564785145,0.030816350654644033
41.24938138,0.006496674081159604,0.004172939802933838,0.031321797769028124
41.750644570000006,0.010854964807959087,0.008995426280437188,0.030759045461376235
42.25190771,0.0112102399465444,0.0073726054507533955,0.033742070828433265
42.753170698599995,0.008247017998504864,0.01998999262190801,0.02936578374843489
43.24942131612245,0.008256302194841676,0.17973609293428452,0.04021289830691163
43.745672169,0.013411987913204646,0.3785739984192488,0.036172377944114195
44.246935650000005,0.012138238358246805,0.5252128443525238,0.03878249105308354
44.748198709,0.004897294735143275,0.6649089820224333,0.03770234823555394
45.249462291600004,0.016392551623984987,0.6474190199488157,0.038340896848450934
45.7507263534,0.01110483870044289,0.5752797938119136,0.046999495706575536
46.25199013,0.01686326413627214,0.5117921035098343,0.04559816498840072
46.753253816400004,0.006146927184116186,0.45807448523125904,0.0383853515955099
47.249505035714286,0.01410142388335749,0.41150351948010516,0.04618096703686991
47.745755763999995,0.01231626977776832,0.37185709312688603,0.04140966253485989
48.247019689999995,0.008490367446827803,0.3327981931743764,0.054292349223324425
48.748284590000004,0.015044937074568537,0.30271262234338686,0.05649083949310721
49.249548729999994,0.01120418210652089,0.26695713720638126,0.05806988477546409
49.750812175,0.01280151985348329,0.24603205384416843,0.05083017260643796
50.25207626,0.015310123834496347,0.2160038306220977,0.06523132324886237
50.753340628,0.006266272603320871,0.1944532437758098,0.04895792626660672
51.24959229428571,0.026575113065076587,0.17747760213679073,0.06419122008669259
51.745844614999996,-0.004519178494498932,0.16519282195644608,0.05184388917854768
52.24710906999999,0.0071969359393378165,0.14283967448849794,0.05509998161993018
52.748373236999996,0.02285276495247625,0.129365205754059,0.07950338061262965
53.24963764,0.03429893657918321,0.12173780465037304,0.049367725280278475
53.750902103,0.0007949744520521814,0.10534943864475618,0.09628070010479467
54.252166669999994,0.006526902101443735,0.09392568282106659,0.05752542605430893
54.753431013,0.041601096912439094,0.0824744746349584,0.07477428855510959
55.24968307142857,-0.005447258894403342,0.08857130217591175,0.06825780911529984
55.7459352304,0.021414425174852803,0.07809555105855329,0.05672879389911137
56.24720008,0.02561885340261599,0.05023375403857806,0.08726674840930684
56.748464831999996,0.0029325542283709515,0.036579620944549356,0.06930240679909813
57.24972968,0.03549368139708877,0.010330472090351484,0.06330689173654769
57.750995443,-0.014340083374529428,-0.0038623481729949476,0.0671629168131987
58.25226053,0.03688481724407563,-0.026180345806695968,0.08071588695277832
58.753525498,0.023356007041408892,-0.04366537040045466,0.07570903164723199
59.24977790306123,0.013238719828908289,-0.06490670726696147,0.0708757395112886
59.7460300804,0.009298675281609561,-0.060057688641864934,0.028099692734990987
60.24729523,0.014984844143665242,-0.09325276098486475,0.1432074184361172
60.74856028999999,0.015242310473852773,-0.08629913970310782,-0.02023497573470847
61.2498256,0.03788835916134273,-0.09618863874962504,0.10881266264314242
61.75109166,-0.00340172291020869,-0.10635445921069346,0.04835394577232822
62.252357149999995,0.030175268875091983,-0.10618855411873616,0.05657332005854143
62.753621835000004,-0.008166486804623774,-0.106912844266314,0.07869015582766305
63.24987460040816,0.02238883877392236,-0.10662677586585914,0.013241573494243953
63.74612759440001,-0.02069713914447331,-0.12221340188900749,0.1083199083219496
64.24739317,0.038205780969241515,-0.11326559361266078,0.07113392307941278
64.7486594528,-0.027250363895743396,-0.10874185575144743,0.029612835799374536
65.2499252316,0.05694441854217516,-0.11515911012616051,0.04863508433246896
65.751190025,-0.009607730466474637,-0.10176868892852038,0.06338060446143133
66.25245571,0.02721648014572707,-0.09388805054114932,0.038779556423483255
66.7537221178,0.0320397191586306,-0.0980421143425821,0.05191186064711381
67.24997546346938,-0.009219660680483863,-0.09026915733134847,0.06254758269043212
67.7462289912,0.02010071642980541,-0.10082504846386366,0.1108076964702003
68.24749504,0.027383184791520004,-0.09989050177499866,0.0380354283200825
68.7487611496,0.03682959198787944,-0.08898328502382298,0.08451504610516958
69.2500273,0.09820084385566813,-0.07787715464847,0.025950775521835584
69.7512933904,0.04037507842052041,-0.09341384026704802,0.05257139772462626
70.25255967,0.08064887441063982,-0.08817400625450662,0.03829296844872272
70.7538257444,0.06237190278936344,-0.07236354189061274,-0.001760778525960871
71.25007946,-0.011498367286422255,-0.09156700074378203,0.05695771363942317
71.74633389,0.042639752435691285,-0.07358125924200414,0.02876350963363658
72.24760062,-0.008467624601899681,-0.07245572586390737,0.08736535561963732
72.748867515,-0.05775120883016052,-0.053916146185811635,0.008124131154838893
73.25013443,-0.013795903973622611,-0.057867772385604796,-0.004068409910530355
73.75140064920001,-0.0696759899325548,-0.26916732686222794,0.16912154680719801
74.2526675318,-0.07639791045771488,-0.4480175857663113,-0.0010336822506395588
74.7539374298,-0.06309673691047536,-0.4176830749163205,0.11285063523819654
75.25019237836734,-0.05793790634195144,-0.37421521370511335,-0.018123915899871824
75.7464445832,-0.004124421244765477,-0.33139907091454385,0.10389403437561107
76.24771162,0.08747709249529528,-0.2936747094753098,-0.03783507945176251
76.7489792918,-0.026767067206722506,-0.2694807324640312,0.14457552825968528
77.25024695,-0.009792228830829905,-0.2523382377867948,-0.021147658456589093
77.75151479,0.06610375559014028,-0.24769378275085413,-0.08659362743251084
78.25278265,-0.04314668223263403,-0.21902165479391747,0.13328880922093192
78.75405080499999,0.17677653471638607,-0.2275845658564343,0.05847767263944395
79.25030622530612,-0.11523861169025322,-0.1771445951635855,-0.051884815923497384
79.7465618836,-0.01662552589356211,-0.19755881883632148,0.09950579814739573
80.24783017,0.01188371108030382,-0.15239133977338926,0.0819499550155677
80.74909838640001,0.07879573927646372,-0.12047205368075399,0.058775976733019944
81.25036688,-0.10873735095309126,-0.1447215761286401,0.011732323722741092
81.7516352532,0.10868889083649369,-0.1288584391305758,0.00011667389936817561
82.252904,-0.03477089741108671,-0.07006426394555831,-0.029021289397488027
82.7541729512,-0.026756435387793577,-0.11698881571749897,0.107136061038359
83.25042941836735,-0.009175186009640436,-0.05371095834227135,-0.0029517570391309213
83.74668623,0.027318766292827847,-0.10958001605357463,0.034228561801554536
84.24795569,-0.11729231336653397,-0.059560832221385515,0.07600763465433838
84.74922529719998,0.08789112934225704,-0.060339928804342406,-0.014791313657379236
85.25049501,-0.04277887280657694,-0.06504422981425777,0.12864783267123248
85.7517647628,0.05347878266790421,-0.04575991268826599,0.028997055336048176
86.25303465,0.041124625105423245,-0.05045543649916329,0.05865532410332185
86.75430521640001,0.017661942618606076,-0.045949275596559626,0.11851408369760527
87.25056282224489,0.1227062801493931,-0.061134222285614284,0.021151343716675194
87.74682028,0.05788271728566762,-0.034797038941400855,0.09239732657669496
88.24809072,0.08417847657009363,-0.05256000798946464,0.036402508609323495
88.74936102080001,0.07371568541294375,-0.04886306527553004,0.0868950126203249
89.25063162000001,0.03455564344259764,-0.04135536549857056,-0.007157712258727788
89.75190275920001,0.048512411731433974,-0.030218284389146054,-0.020364563569913136
90.25317371999999,0.0699242324503596,-0.033464850042152376,-0.03021966195994645
90.7494315144898,-0.0908041256468781,-0.031663001634974486,0.008985964364853577
91.24568985,0.02116560235676998,-0.015820132127790973,-0.02595310382551947
91.74696113,0.009277602317514485,-0.01963832898081055,0.035939233679119616
92.24823247,-0.07354464557150457,-0.006787890737617849,-0.02574881188977081
92.7495044466,-0.05092561081080268,-0.013222878157762326,0.056198617872038774
93.25077614,-0.07765266071051577,0.007211043818558811,0.1745334723728641
93.752048045,-0.03442723521262269,0.0022432207378742883,-0.05010218240442977
94.25331983,-0.00862472296320529,0.011100169575539444,0.09561535371044026
94.74957854673468,-0.0832969722210117,-0.006996414114054834,0.03279839954769325
95.24583774999999,-0.004211074425475537,0.038295860177550524,-0.038778613297078234
95.7471097034,-0.13799678543641133,0.007948643854526405,-0.02590970448353807
96.24838186000001,-0.08413641164487876,0.01695458387099834,0.052109591328097456
96.74965468939999,-0.06363998319645703,0.03042475482787509,-0.08213456713104902
97.25092717,-0.10626989554882925,-0.005272778016201135,0.08022113009191
97.75219959719999,-0.012002762136457073,0.027241565638753726,-0.01690923507290822
98.25347212999999,-0.05432745900457138,0.10241437679331326,-0.042362132384652834
98.74973106306122,-0.006718428058312937,0.10397900145724621,0.06417502104015996
99.24599078,-0.054571613662397295,0.10529210299618487,0.00154840540518678
99.747264444,0.003714572917730262,0.099408452859966,0.15854545616317112
100.24853752000001,-0.01927265383409181,0.09073612422912389,0.03320939295766748
100.74980986599999,0.011612701943178141,0.09186315399354512,0.10271087521076742
101.25108272,-0.0034402453311732028,0.15093094950291078,0.0633875771964861
101.752356292,-0.03602652138732795,0.15262254845191917,0.12102777126585877
102.25362966,-0.008167033127024317,0.20293222650849205,0.04078608284496453
102.74989022244898,-0.01598088860621038,0.21901417008372878,0.09526976676171356
103.24615086,0.0163399049185206,0.2783019301855915,0.03181140307829055
103.74742406200001,-0.021379303493855754,0.23958019722939924,0.029787980641054205
104.24869753200001,0.025989400594902148,0.20797980215673748,0.06645095197865113
104.74997123600001,-0.04823417648942402,0.1788860333388529,-0.012351340224188595
105.251244976,0.02245374614627495,0.1272321379273877,0.13228925160753216
105.75251874,-0.01948342068384883,0.12540675370424692,0.039162976822473855
106.25379269999999,0.03642824250257579,0.13673729952723257,0.037480003204342596
106.75005453877552,0.040090721744124,0.07337905090936778,-0.05418839480226545
107.24631604,0.10870168898924824,0.10189312611154203,0.07564116819652464
107.74758990000001,0.07372047897941995,0.05923059642690883,0.06083084930482677
108.24886414000001,0.014401425407457511,0.07258919387468828,0.0011155556872395177
108.750139,0.14779538791411143,0.04542150698370987,-0.05734251801585117
109.25141368,0.034344042948987054,0.019697842854936604,0.18044201815453254
109.7526885,0.03917470718451243,0.04054248406707862,0.0870589102851119
110.25396301999999,0.04182314009487364,0.007569180497110077,0.11685774926028221
110.75022508571429,0.02146054506441929,0.029797703246629864,0.04770588915795998
111.24648730000001,-0.014094827543795051,0.0064419245924692645,0.037522895324474254
111.747762456,0.062059728709118446,0.0026332434558305772,0.04339509602648765
112.2490375,0.02989271926654833,-0.007646191319292862,0.013246532095140217
112.750313,-0.005461397487774383,-0.015179363090693166,0.0700282175517978
113.25158821999999,0.044437348222960436,-0.01252492227823275,0.053078466499545576
113.75286306,-0.02614921025832657,-0.016577171840494353,0.023349674466908287
114.25413848,0.07504795265048032,-0.017463157758662317,0.05102543327105132
114.75040117959183,0.0037656793740257753,-0.007311644161528992,-0.00875181029026565
115.24666398,0.00262750606166235,-0.030434835750817752,0.17565386144400358
115.747940422,0.039517535701887166,-0.0029745980673781926,-0.07504125773742173
116.24921640000001,0.013139564866711364,-0.0330805816059677,0.08552296841365457
116.750492242,-0.02253733939031921,-0.00525693944823993,-0.011444730130820178
117.25176818,0.029653600469638178,-0.04679485661016195,0.14089164427395656
117.753044396,0.1202984809456947,-0.030933991894927623,0.3249694546185005
118.25432062,-0.13150697665799113,0.006373232470533245,-0.3120834881140007
118.75058365918368,0.14774879817096997,-0.04786813976088611,0.11045023435381375
119.24684713999999,0.04080416051134007,-0.050794456777643396,0.17139180952843402
119.74812389200001,-0.06519925044456691,-0.023940835571444784,0.014327965535964184
120.24940048,0.060309311942726776,-0.037954844950649026,0.01876867597453936
120.75067637599999,-0.014715373822387879,-0.0356916909703164,-0.014062435680519663
121.25195285,-0.01579686070225219,-0.01615306053427027,-0.0033833005114606725
121.753232004,0.03968873794053027,-0.043957308079801596,0.15611201928989293
122.24949683061224,-0.03898199205864771,-0.0049999080757890755,-0.09545062205146247
122.74575958,-0.06739995863679206,-0.06961032741256937,0.16662592325242723
123.24703616000001,0.20357717741415315,-0.13824988239122427,-0.01628834242483729
123.74831241199999,-0.08885537032405573,-0.34875971991980625,0.032170593034241995
124.249589316,-0.004507556834306928,-0.291112808335716,0.020128282938879184
124.750867308,0.04561438831781922,-0.25589609933486746,0.01664709052882471
125.25214474,0.005289044954960439,-0.21673261626306892,0.05331499072030955
125.75342176599999,0.0027724175685373944,-0.18470382471831975,0.05000131503197487
126.24968624489797,0.06389829895531265,-0.16997833391562459,-0.049826799852914855
126.74595065199999,0.032537627902522216,-0.14413511019079095,0.02662978653983559
127.24722809999999,-0.043208074802456115,-0.15148805540621335,0.10080790503564169
127.74850604,0.16360403104981533,-0.11657184727111297,-0.11743556756056364
128.24978388,-0.006169081192510092,-0.1479125559132262,0.19532382258637473
128.751061088,-0.09087470077709162,-0.0858152361343087,-0.11953744844877559
129.25233876000001,0.041429553369744986,-0.09144537062697522,0.022514562722841806
129.7536167,-0.0785139959105088,-0.07186022107312745,-0.06929000088394065
130.24988196938776,0.23175715633608815,-0.0797358677703096,0.16347545226882332
130.746147176,0.006775026384706473,-0.07227230159101895,0.1550158486354668
131.247425396,-0.0366076732777025,-0.0019207598556418716,-0.20763441176321756
131.748704384,0.004026670467457354,-0.05677003560199801,-0.07536458660110598
132.24998312,0.003207665255747339,-0.052684173517508814,0.24538230960076263
132.751261576,0.004752579496710253,-0.022612115980159997,-0.07590957960901344
133.25254034,0.04045708048842818,-0.02279526758638136,0.036895842466141617
133.753820008,-0.11859998729789246,-0.013311270278617721,-0.05612463602854897
134.25008656530613,0.17010211308228518,-0.04846328847921484,0.3041552572963384
134.746353012,-0.043319902224499135,0.004336983218405435,-0.09921107732200934
135.24763252,-0.018359797640875655,-0.031310005834919066,-0.03980227496985212
135.748912106,-0.02262569988630111,-0.008303917483305586,0.11217424866135312
136.25019184,0.1884366616882499,0.0007018933362602209,-0.17213210884854976
136.751471756,-0.14077340319994908,-0.06310465138795868,0.24876025770821336
137.2527518,0.0075113003478788675,0.008422695166300296,0.07005679600377358
137.754031712,0.24252477612484424,-0.011579671112433734,-0.0283927996242504
138.25029911020408,0.1939313651541748,-0.027089011365950252,0.04451757119084994
138.746567176,0.2350468058877841,-0.014608671756218827,-0.00995987770276716
139.2478478,0.3863591989899776,-0.03156107414734055,0.047880318428004005
139.749128016,0.3072843418131308,-0.024056640395645843,-0.03329132392454434
140.25040858,0.4037023089182673,-0.039351162651982456,0.05774187886891674
140.751689332,0.3505459073061439,-0.03732752562744344,0.05167127844724149
141.25297039999998,0.18900695336880077,-0.0536163782405991,0.08369382773764912
141.75425242,0.2650919107226118,-0.04093990277902023,0.055555964705648046
142.25052129795918,0.25975465564240985,-0.032262624353629116,0.10710561717818133
142.746789696,0.1394787898133418,0.046468474241884605,0.05505230564918291
143.24807142,0.10538343313082542,0.052110765349467424,0.13773927343428297
143.749353238,0.22147913301631297,0.14255621242164807,-0.0872020623157805
144.25063544,0.021993395758642925,0.12842354996228778,0.06310756498840313
144.75191794,0.17968102288984406,0.2065170681926958,-0.07599805259614348
145.25320056,0.1165233077643524,0.15517312099361155,-0.032972978413594166
145.7494708755102,0.0034739336861627328,0.14809112485279322,0.07369598721831548
146.24574134,0.1662027973622938,0.1338669643658726,-0.052552766052778754
146.747024068,0.11279793166092719,0.102465956706179,0.023371062251570773
147.24830746,0.07193935353628278,0.098916441733616,-0.01867725414098603
147.749591234,0.03220286956227196,0.052279377242105234,-0.00725400008768869
148.25087522,0.14089321088933815,0.10066430812029742,-0.046835297058397535
148.752159662,-0.04764213916567523,0.0276375819255127,0.013035795246088035
149.25344404,-0.03182581432066363,0.057019839451772095,0.024373081777664504
149.749715977551,-0.1321500242405625,0.05472710137059344,-0.0836117094039873
150.24598786,-0.31062782435178526,0.04849571528918228,0.04208993273708647
150.747272384,-0.3395853613414189,0.05366077882427238,0.028053395338065563
151.2485572,-0.3888251681661197,0.05221881137532553,0.26439609327102015
151.749842216,-0.45076632189218185,0.04773451344775484,0.27761105643083506
152.25112748,-0.3570734642127812,0.059506611297044605,0.1850512219035886
152.752413164,-0.4988947312844356,0.03161298680206852,0.0412038866172443
153.25369898,-0.2506872648984475,0.029781331265550826,0.08247096054033101
153.74997197551022,-0.2221121400186237,0.02535148388500113,0.0686479936080215
154.24624524,-0.2963759313346376,0.0007731302666684155,0.05259782315402095
154.74753210400002,-0.23560291349751925,-0.011741354301033576,0.07714644181430255
155.24881886,0.0540446723038847,0.02287479686684928,0.03842654299463871
155.75010528,-0.38313541950198504,-0.030223455139693954,0.033460534661578764
156.25139208000002,-0.23747072764284544,0.0014344547473643277,0.02139965060733173
156.752678696,-0.23851478204704685,0.02883295555907847,-0.09561717353316194
157.2539658,-0.369524544090282,-0.01063063573695545,0.04566565935501607
157.75024099387755,-0.4480082157903659,0.037800789370025074,-0.10166509989459137
158.24651604000002,-0.3700029094860502,0.016966887196609656,0.018023673230724804
158.74780382999998,-0.4381569167494902,0.04090011547657722,-0.02259384637572365
159.24909191999998,-0.47374233721782005,0.0615923832187353,-0.1093204701728006
159.7503809,-0.23283542578200905,0.05496528308946298,0.061294995993529694
160.25166978,-0.30796466012800444,0.07231107407819928,-0.08116664746341798
160.752957992,-0.378162629085834,0.05260430407143267,-0.014898988572044271
161.25424687999998,-0.15148559748176685,0.050185267427786756,0.11045985068653193
161.7505238367347,-0.19074985371161038,0.054016700755158846,-0.00598325444143369
162.24680071999998,-0.3223059048126267,0.041191729810639545,0.17335745840820171
162.74809026,-0.02345784390990258,0.062263369923086176,0.07064162246802513
163.24938006,-0.173693631919542,0.005098014932204064,0.21536154401268273
163.75067012,-0.16046730527479158,-0.009896169545079126,0.17897625048446283
164.25196034,-0.15977065238294225,-0.0028717465733457104,0.16216789232944964
164.75325061,-0.09833838634889759,-0.06857784996792508,0.37908941162457455
165.24952824285714,-0.16969773198838,-0.05031285046814663,0.05798547937557411
165.74580604,-0.1230136118001418,-0.06218838576326753,0.19679426677089024
166.24709692,-0.023146070435014234,-0.12871533627858028,0.3638621649695301
166.74838765,-0.13152670596234878,-0.09760449101698525,0.19245053912211607
167.24967882,-0.08606604945203426,-0.09086137301957795,-0.31769863534356224
167.7509703,0.06057170740904451,-0.2718234280692877,0.7199729997565406
168.25226192,-0.2453414589095577,-0.19336610793815157,0.35503371000117384
168.75355403,-0.3096327979871325,-0.21365262574926125,-0.039488819547288195
169.24983322244896,-0.2636954657876693,-0.24857002049698806,0.13519362248512576
169.74611236,0.17662451570877194,-0.41406755548198093,0.4654737410909825
170.24740466,-0.1996432630257804,-0.3689815238395797,-0.02221265510286755
170.748696704,-0.2054072145474854,-0.4767877522682348,0.42756566621245284
171.24998916,0.10757239080416527,-0.47995143642444055,0.3163133346694614
171.751282584,0.09708286844780406,-0.49393193006647856,0.03775258699531556
172.2525759,0.34883293359770273,-0.5619528700930522,0.17868151631419316
172.75386906,0.3499568479618136,-0.5432995072243733,-0.0574053006909446
173.25014946938776,0.6234453574442238,-0.6177259832629023,0.4893016081310165
173.74643001,0.7601415214804704,-0.5494840849271392,0.22390411174214442
174.247723762,0.5651324011690203,-0.48770370259747553,-0.2994630082609281
174.749017666,0.8165789698483086,-0.6119233084038599,-0.012804998681931457
175.25031180000002,1.1251485114339266,-0.5788418140772688,0.18573386101856953
175.751606304,1.2568440617514072,-0.4472857474427828,-0.28078684823598915
176.25290082,0.6816322661821375,-0.4779683178930197,-0.18545484586591193
176.754195148,0.5754107152299199,-0.3485675162215657,-0.16937583631668027
177.2504768244898,0.40872963270935836,-0.26376695394800664,-0.435726507378312
177.746759328,0.388838585099964,-0.30717805335719545,0.20872501039933872
178.24805462,0.10759404075637612,-0.16349841496889955,-0.26508366257870286
178.749349664,-0.03172485102289399,-0.1502462232948166,-0.25949494132510775
179.25064496,-0.2673711160866178,-0.122032063458905,-0.07625607014271185
179.751940108,-0.10809514317821362,-0.06732379392082982,-0.03451661576076544
180.2532356,-0.34329016146507263,-0.014713496476469643,0.13305465045389797
180.7495183510204,-0.3286275049551193,0.06801241800240475,-0.10555223861355044
181.24580136,-0.16883956118001892,0.0919018194504396,0.025898559169519917
181.74709742,-0.11842419141412087,0.14503708438931562,0.06405828831075315
182.24839348,-0.19571270972158025,0.1100255233662865,0.23549796431310924
182.74968989599998,-0.34191837371615813,0.14923275048860293,-0.13552253023736013
183.25098628,-0.0010841996476242998,0.10649853105248701,0.19058064481066958
183.75228223800002,-0.11913457683773843,0.11745722069143673,0.003104323923313622
184.25357842000003,-0.18841834495977683,0.13407528067977043,-0.09495981023263152
184.74986186530612,-0.048248865829599204,0.06139836539725809,0.19759431990650236
185.2461454,-0.30593199448960245,0.14940936302055507,0.027261223245993157
185.74744238799997,-0.23284705443484938,0.12264067787977917,0.04581643882689842
186.24873940400002,-0.43413459149231826,0.19224646214405122,0.03149456232632157
186.75003642,-0.06150406479390744,0.17832426920105565,0.09122162628228027
187.25133360200002,-0.017709508462282378,0.13470371889339366,0.026157574986955954
187.752630762,0.11540558182501004,0.12110034333537162,-0.04218876259345769
188.25392816,-0.1051960000257459,0.06602359548831697,0.09603602648268256
188.75021317959184,0.25757402322839407,0.09322795466457225,0.07359791668400581
189.24649816000002,0.05570381931028817,0.09103625325217449,-0.011630340281518582
189.747795792,-0.01912708345813732,0.0858107202861281,0.04072415293580858
190.24909366,0.00013591573763243158,0.041441356778585244,0.06566588390726481
190.750391594,-0.015066970938584884,0.06164101534153236,0.022032937011029867
191.25168972,0.07920335444285112,0.04157685429940014,0.006892033002445269
191.75298817200002,0.03486916690788659,0.033495553845856126,0.05291418905487179
192.25428668,-0.039808860702853534,0.034658994280690046,0.0208789101741685
192.75057211428572,0.005577481739167498,0.03810314627113572,-0.008762944306689467
193.24685772,-0.3179371550722059,0.0029434799559941182,0.013632379339707628
193.748158116,-0.09600010786744179,-0.10182542748699025,0.1428924186581485
194.24945788000002,-0.41878319721063306,-0.16942523015288224,0.08125857743385617
194.750755388,-0.4957583936037681,-0.16809603608927706,-0.011527184566756282
195.2520537,-0.5187503161148349,-0.15114529027553758,0.031621180711612545
195.753352872,-0.806479480726216,-0.1909328325972205,0.28337926389140855
196.249639,-0.8496891626317433,-0.12748380342628052,0.08474122431781272
196.745925688,-0.5637670722049686,-0.10728361876678806,0.07848762392089415
197.2472252,-0.6734654159013219,-0.12884813395144668,0.16378670932207512
197.748525072,-0.48641156485834436,-0.11901327731753546,0.14629482246142886
198.24982484,-0.4407051210567221,-0.15355744648958874,0.13707473521664876
198.75112352200003,-0.2456868405331579,-0.13476037448286562,0.1291061895401569
199.252423218,-0.2543664397282022,-0.12180516313109742,0.14675034758802552
199.75372443799998,-0.25985952202262674,-0.09447692924245653,0.13003072845166738
200.25001200000003,-0.26679087660036166,-0.10340580265722964,0.15705594397765557
200.746299136,-0.25630322934814603,-0.11966372506277455,0.10606289137808814
201.24759922,-0.2864818259634131,-0.12216633597192918,0.16088039028431
201.74889951,-0.15365510839111393,-0.12239185948468415,0.15945699256234025
202.25019939999999,-0.15448180298348832,-0.1335254435636628,0.12434602661033764
202.751500156,-0.1256444448290229,-0.1523243158660134,0.15595242280948238
203.25280080000002,-0.3312027184508108,-0.13345456434070338,-0.025311617219509364
203.75410155199998,0.045526764779549554,-0.17391359537455034,0.2544428836507296
204.25038913061226,-0.17530316393963644,-0.17909120520864574,0.2553808530826545
204.74667732999998,-0.11463671530167013,-0.16396488009171262,-0.10366250826242114
205.24797852,0.11897572559266376,-0.21932072480246245,0.5572882511892128
205.749279558,0.012594839473850889,-0.18931865525594602,-0.08207090631534981
206.2505807,-0.0727526299459542,-0.2190167926144554,-0.020411151079249935
206.751882262,-0.14498072712854285,-0.2943368865058743,0.3047737219041729
207.25318366,-0.05101492201372814,-0.2940123669608601,0.15595644910360934
207.74947197755102,-0.029142089028396195,-0.20774044937999225,0.09823899455559934
208.24576032000002,-0.1184669307196857,-0.24041283305632027,0.13964241084660114
208.747062162,0.035968676245982066,-0.22671896516366288,0.14881090692936844
209.24836402,-0.11903670983234635,-0.24411728747019049,0.14951219521344666
209.74966608399998,0.017907083511604464,-0.22745717438958024,0.11086505757855424
210.25096817999997,-0.04601283773829173,-0.21802752630993127,0.11861170784685506
210.752269786,-0.023420692182210247,-0.21413759117700418,0.162376933037978
211.25357174,-0.057281554103645084,-0.19973408596789294,0.13900535385979296
211.74986124081633,0.05611621896265288,-0.1951782291436282,0.0701413045335808
212.2461507,0.07688031373096027,-0.19708993296679173,0.12174410827223024
212.74745316,-0.06741438140117069,-0.20298939897025792,0.1635349748344523
213.2487557,-0.030518076960498748,-0.1870648191512503,0.10942777147977961
213.750057952,0.008594267940429282,-0.19293703800560877,0.14445751409202423
214.251360338,0.1929307701406169,-0.14907805262977192,0.014483403687650432
214.752663256,0.11580868941602304,-0.18038116745955357,0.17280492081100202
215.25396609999999,0.2663631382813586,-0.1639786939339811,0.03529924143612047
215.75025623469386,0.22680153255811547,-0.14895315082827099,0.05643893479551713
216.24654636,0.36727699994289764,-0.14394674459199003,0.07996270851762721
216.74784884000002,0.29877793285909193,-0.14723789240965574,0.04453047951932363
217.24915146,0.4011666554221131,-0.129533886487363,-0.032109295490877605
217.75045456,0.30253665900925547,-0.12998425484177437,0.07688156378083157
218.25175764,0.5691741313788278,-0.10185925131272439,-0.00720266170260324
218.75306024000002,0.4948910349986949,-0.10876170767945441,0.005071889935196623
219.24934993673472,0.4007587568864855,-0.10234420148721196,-0.018935625483177152
219.745640168,0.16451653191013185,-0.08912219206890748,0.04262687063992419
220.24694344,0.6446422423315927,-0.08167338831661226,0.03118309003521342
220.74824642,0.5375706191536552,-0.06620072990330082,-0.045412994821967916
221.24954954,0.21362829061430766,-0.11447152384995342,0.13775930966626646
221.75085294000002,0.22177343148847684,-0.03034229867799874,0.012558570831365072
222.25215631999998,0.2160136233334471,-0.04793545578763612,-0.2406097843950836
222.75345972,0.2156829258900632,-0.08615739718883969,0.16808449164494696
223.2497501877551,0.11761037524237855,-0.1176396221248215,0.15664023590368867
223.746040618,0.5396269373721921,0.0029833295057014268,-0.04469010436529977
224.24734422,0.05451987586401124,-0.07256659266335495,-0.018891408467791828
224.748647934,-0.06466669160706248,-0.0642672878487105,0.07399844284701923
225.2499517,0.29059613343158597,-0.04206126635996934,0.016908636256950157
225.751255342,0.2026025615270547,-0.030389794606231337,0.044950014785548234
226.25255905999998,0.08752547350159222,-0.03718164571395838,0.033231232035339155
226.75386298,-0.016190841289429988,-0.023550416976799673,0.030265653988642786
227.25015387142858,0.08136898894435718,-0.014493432891026581,0.12187636538183971
227.746444374,-0.05866156521629799,0.012848531183678546,-0.17311351178059922
228.24774806000002,0.18909865591789188,0.011700692979645733,0.03496317413784923
228.74905240799998,0.11666029693637675,0.03434383557778355,-0.08441803249406858
229.25035680000002,-0.024372901035676214,-0.12346699328702775,-0.08692274617637975
229.751660984,-0.06808611995760357,-0.14330115355499756,0.4390918829179275
230.25296536000002,0.013927130071818757,0.008726626115682704,-0.4873801662905437
230.754269626,0.18738628378319563,-0.09259710200230492,0.161868423179683
231.2505607612245,-0.011662945170805508,-0.07698192363219722,-0.008530816371156836
231.74685218,0.04475384374722198,0.004039714421456789,-0.14976149487297702
232.24815658,-0.05114325392685031,-0.0696099184045928,0.10656183196056399
232.749460624,0.038456721008560846,0.0015962277856262786,-0.0684014748551677
233.2507647,0.09209617861371969,-0.021326342838707095,0.02727608963896552
233.752068534,-0.054495335648496984,-0.02955924905607052,0.0658523685832952
234.25337248,0.038462545303229095,-0.008166461965791169,0.043497747570308026
234.74966398571428,0.06355373842554216,0.02358659182704718,-0.003704407923944788
235.24595548000002,-0.00402309695652364,-0.007930508341264656,-0.019415235234955266
235.747260588,-0.012215474264763063,0.0015869875466028424,0.01640687287108044
236.24856567999998,-0.04003943645218414,-0.005438544896735049,0.0394884196190374
236.749870376,0.02999509732399322,0.012309388316578924,-0.03402925145330849
237.25117527999998,0.11732507211557149,0.020250937083486777,0.062497842266814756
237.752480236,0.09676391560981623,0.0003937369717213099,-0.022286147783756788
238.25378536,0.2052649556858935,0.011197971307878678,0.030422154997976736
238.75007774489796,0.35550192939421615,0.0056637395364071185,-0.06976798057387318
239.24637019999997,0.37350669784870155,-0.005902590824138667,-0.03368064417597255
239.74767608800002,0.3487940239501991,-0.0029073806222376574,-0.0392275278197922
240.24898198,0.32141821801502685,-0.016702202882699482,-0.006232844467213965
240.750287632,0.284523383743791,0.006947476136623196,-0.01849492360964626
241.25159346,0.20074131991145797,-0.007724055837443351,0.0070778124510691084
241.75289980000002,0.16356475953311325,7.0870554527155405e-06,-0.024424897552803585
242.25420623999997,0.12206961021402071,-0.010007973561126239,0.04694416439304344
242.75049953061227,0.19462282413674603,0.008106599383236983,-0.027985350297242143
243.24679286,0.0965283665100768,-0.0016394543544315334,0.03775218274055745
243.74809934799998,0.06098269541697343,0.005976401184709982,-0.02608149036909436
244.24940592,0.08377339126180755,-0.0016615650020774231,-0.001207340192265699
244.750712188,0.09010484446451071,0.002277509469894235,0.06076435775942575
245.25201858,0.08126376229317119,-0.004872549206666258,0.04029927168953984
245.75332524,-0.004457316195781594,0.01104672370329397,-0.015980977061879332
246.24961903673469,0.06027936968697851,-0.005275494970788254,-0.0120579461877583
246.745912492,0.05274419927440491,0.0013339653566878929,0.017693701609123206
247.24721924000002,0.014443538481021222,-0.010102888435481057,0.023013943979917725
247.74852676999998,-0.013759778376659948,-0.009861742144232834,0.021724914510811467
248.2498345,0.03907498166077766,0.008321138428626924,-0.026945525145657827
248.751142106,-0.023207116020799005,-0.04238196697093562,0.21195174556441476
249.25244987999997,0.19842952610942963,0.021468132752770458,-0.0740111569301855
249.75375805200002,-0.0783863250293414,-0.02451912925565476,0.023843024707791698
250.25005318163264,0.13769065994989757,-0.01127168371026912,0.019482837709913804
250.74634804599998,0.013774609726212124,-0.010671580415109863,0.07319324886230465
251.24765618599997,0.17723666150773304,-0.038803113145499175,0.18234224515099162
251.748965086,0.1781195373898182,-0.014539629948836482,-0.10605527790000979
252.25027412,0.3878124333093796,-0.03483897263245859,0.02578261338423415
252.751583356,0.23943468369278545,-0.06748653301724468,0.07364910823080245
253.25289274,0.30392242473075465,-0.043087199388272365,0.012918191870564422
253.754202228,0.24122164243216357,-0.05058322965627245,0.05554108652633674
254.2504987510204,0.20270610846437123,-0.05829775437355291,0.016947582440107287
254.746795256,0.18342789138004317,-0.059385805720396874,0.057990658719861615
255.24810492,0.18465293038376152,-0.05463124308462954,0.07090653843597455
255.749414468,0.06659955701922386,-0.07996994066013788,0.16395312448655003
256.25072423999995,-0.09267151846823118,-0.07100477159035323,0.21399330769086952
256.75203485,-0.13399382649812647,-0.057212281606800024,0.12010193425167973
257.25334558,-0.16720347123654572,-0.08838279729887423,0.3452257855543738
257.7496433857143,-0.19349332578844797,-0.08053035285748511,0.20979433024506802
258.24594136,-0.30386274479280545,-0.07717502935943896,0.09022201582964891
258.747252248,-0.14471859371887175,-0.08785930317197801,0.07347276986870223
259.2485633,-0.14266376878253004,-0.08529986087037277,0.10936160160580868
259.749874324,-0.15666488074564733,-0.08368072108371148,-0.04934555202748859
260.25118558,-0.09257748252868556,-0.07705463753601428,0.023418504724566063
260.75249698799996,-0.10615797866588375,-0.1082758381320965,0.1858865935110534
261.25380858,-0.08187411757052901,-0.06416116113872312,-0.04438583568228653
261.75010706938775,-0.030059223407877547,-0.07134441108612202,0.06299056339804072
262.24640569999997,-0.07298559433435414,-0.05460149685981507,-0.04874576777515091
262.747718104,-0.07728010090049126,-0.08416699543334637,-0.09500491214046106
263.24903064,-0.12399233111231531,-0.0643682452890041,-0.1169102747176233
263.750342596,-0.24313002212464124,-0.12408582999656495,-0.01026214576837876
264.2516547,-0.31902245206041974,-0.06390189622438856,-0.10807023978535397
264.75296716,-0.4938466979904451,-0.052418249445577325,0.07870713204388516
265.25427973999996,-0.3466896901847701,-0.015008996814928545,0.0703938053818215
265.7505794081633,-0.3041026456889013,-0.006906520171706658,0.0959976098895788
266.24687918,-0.27402764997351814,0.0013172324965337607,0.05117995441712144
266.74819212,-0.19356849144330915,0.0030107369124908823,0.06127114318911214
267.24950514,-0.16630067438274462,0.002631843211844122,0.04565521799796249
267.75081849599997,-0.16288762376165797,-0.0008104962295877466,0.07322951516539238
268.25213198,-0.2860792861772231,0.007124045493616426,0.07701501176887535
268.753445308,-0.29742548343632225,0.009410500286206658,0.04704178727537506
269.24974565714285,-0.47149711413878687,0.012461120879757039,0.0637531371298976
269.74604638,-0.47439745598877986,-0.000637383334993078,0.15296138893725908
270.24736028,-0.4853060101868287,0.017003254070685647,0.037057774702665164
270.74867525,-0.4309589747703336,0.003183961038720089,0.12441729002739933
271.24999036,-0.4083375718397019,0.00012313204449595743,0.11816534888131507
271.75130335800003,-0.35979568933647194,-0.01852166835975461,0.10457069442100415
272.25261638,-0.23306544752236505,-0.024929903787506286,0.10319692867090124
272.75393044,-0.23977892700413456,-0.06001763188561951,0.20062493609027324
273.25023149387755,-0.10900337234601248,-0.04744212589967444,0.14311664507234886
273.74653291,-0.11491017368674704,-0.05080164374549168,0.13916996183071345
274.24784754,-0.2812043361475904,-0.08887709638441584,0.27794673554826793
274.74916165999997,-0.08629718804410481,-0.1031744227024502,0.2470886599325662
275.25047586,-0.008024654632620013,-0.1110442424217448,0.20857746452610068
275.75179061,-0.18278483711478508,-0.1223928070923062,0.1330319245352318
276.25310546000003,-0.05630971070272651,-0.14072175397979303,0.20700897680984492
276.74940741224486,-0.10614741341144851,-0.2313364941958614,0.2708667663816698
277.24570946,-0.057238044874825214,-0.27445765472677436,0.15744502878204297
277.74702460000003,-0.0840322128787418,-0.31511469701787026,0.27152810936165733
278.2483399,-0.03019635795725728,-0.336251309283324,-0.030607115024100642
278.749655304,-0.058137711269662926,-0.36305516918679515,0.03217087683892992
279.25097084000004,-0.1260560548856249,-0.3728490892283354,0.12726153736388984
279.75228658,9.719003691764574e-05,-0.3142530727814753,0.03772329994635031
280.25360242,0.009280011745919891,-0.3587667725276267,0.12903738316467328
280.74990546530614,0.05102492470898135,-0.30751881103673245,0.036377900896333734
281.24620871999997,0.0761301648467355,-0.2857771797460182,0.034442110486796705
281.747524924,-0.04062798859121379,-0.2936357984545026,0.11681155672578215
282.24884134,0.07053283536982519,-0.23795297971360743,0.11727670169473728
282.750158,0.13547896549041658,-0.27254115119161243,0.04562701247706801
283.25147474,-0.034218491864733074,-0.27530927700560603,-0.04829832175418096
283.75279199600004,0.10166392785569275,-0.28725193801764776,0.15982707373486932
284.25410941999996,0.15631620615784883,-0.2647804281906989,0.07605617092725982
284.7504128938775,0.029432497845940007,-0.2407588584903532,0.04237259485624625
285.24671656,0.12341555608700111,-0.21019280448893507,0.014684861510505583
285.748034344,0.02497891354929682,-0.22276543880883654,0.10870871121588319
286.24935228000004,0.2179834672283323,-0.17328938221201817,0.056809381872522845
286.750669728,-0.0063361688974538,-0.1649174019506123,0.07733821522100844
287.25198722,0.202629525391756,-0.15896940615479296,0.12402112101882164
287.753305204,0.059519764194386156,-0.13315358983539827,-0.08978083785361442
288.2496101040816,-0.027255263237462416,-0.1900530797255364,0.12215816553607299
288.745914896,0.2223338016200974,-0.12892960442262175,0.019438054368715298
289.247232918,0.01862412539740857,-0.1748298971440124,0.16638224301378504
289.74855143,0.20563472026507676,-0.11115941920641983,0.10862506769552781
290.249870116,0.06276924021016728,-0.14875302460687942,-0.001502887746673629
290.751188234,-0.0188898010177286,-0.10733230350196392,-0.0054801373953949975
291.25250648,0.15554672625652508,-0.11412550129572205,0.1212957290651433
291.753825268,0.13294076287595114,-0.13637358692192497,0.06382476304200725
292.2501309061224,0.04757689641436841,-0.0772484095030129,0.04980759573735313
292.74643666,0.1716052707113395,-0.10368944643313709,0.051482913162915526
293.2477556,0.06518527064252201,-0.0736913680996308,0.016488480514812276
293.749074634,0.06023792559275009,-0.0731036823434804,0.0990355724532586
294.25039374,-0.0049164573294518165,-0.0631588712356962,-0.0007039773739844635
294.751713118,0.19556374844082058,-0.08989856024861512,0.10004876155012064
295.25303263999996,0.0967880752267269,-0.07667667434740749,0.1013715721936076
295.754351888,0.17233398985910284,-0.08339369262964824,-0.02269432908193011
296.2506580285714,0.12295761675252141,-0.06797591838251835,0.13592261275622008
296.746964452,0.07659134464223405,-0.06750194670570779,0.06953852018097188
297.2482842,0.04241689678453924,-0.07794889542891292,4.0570038302162324e-05
297.74960389200004,0.08883248686884743,-0.06888619477689678,0.08572067048804449
298.2509237,0.07097751401130586,-0.07003927827164849,-0.02149803370390625
298.75224348,0.066998026778954,-0.07032253981775076,0.11472326727132215
299.25356328000004,0.21011826761244298,-0.04042689023862049,0.05725096600028906
299.7498695755102,0.14807804248656642,0.04794917657253799,-0.009845608565017948
300.24617578,0.20817659849475206,0.08241189762120667,0.07455863746206542
300.747496184,0.11221727623056403,0.1275063027202003,0.06078233947427807
301.24881691999997,0.17176998829183363,0.10091538772406558,-0.04284409237276614
301.750136736,0.15041438814858185,0.07901133316905129,0.08776913008097685
302.25145660000004,0.17025626713764347,0.11247160823607327,0.03501256088917644
302.752776604,0.15098937916931868,0.10287201953255896,0.07326979332845623
303.25409668,0.1510509110155697,0.07851223747216864,0.06335543030768225
303.75040388571426,0.05153923486187174,0.07170056765446477,-0.02708136981649353
304.2467112,0.10872290920136785,0.04553364633724111,0.08421474748773265
304.748031556,0.09234719502251981,0.04379347858065342,0.02682275579484093
305.2493519,0.049500772209525125,0.03470188119675226,0.06672288258081771
305.750672624,0.048211537433506015,0.023054080785647697,0.05967855880909128
306.25199342,0.05591382883244497,0.03341395447677559,0.044919103697350436
306.753314004,0.0339429606168436,0.025676081672162267,0.026243524821114854
307.2496213857143,0.06168845221717641,0.019375631227583606,0.045916327689565585
307.74592873999995,0.010034924482650042,0.008097398218021254,0.03685537274681465
308.24724928,0.042545851776625794,0.015162342606263262,0.051692757279394305
308.74856963999997,-0.007711560512595117,0.006726216143203611,0.08267855493102451
309.24988994,0.025454834329700696,0.01491064117850485,0.00863229022388018
309.75121076,0.0032190577762813625,0.015642832993084672,0.06924480199410349
310.25253162,0.020744920689236966,0.008511898787380368,0.0524252658306189
310.753852196,0.030218272941777573,0.004624932681895274,0.059212217119333645
311.25015963265304,0.000944958183894211,0.012283799591070873,-0.002514660671501654
311.74646689,0.01753943927976764,0.006296880976370926,0.05803752774499362
312.24778736,0.008377421777100635,-0.003520260797112979,0.061213834740752475
312.74910831,-0.01664444549925868,0.014090622241600279,0.06819426908286971
313.2504294,0.03094611474561753,0.007541466521083166,0.024219508666426727
313.7517502,-0.021719320695901642,0.002524859734714916,0.057511404801813874
314.25307108,0.03290046919634226,0.02532357838411924,0.054016124353349966
314.7493785612245,-0.0028585784594038098,0.15246715505651084,0.006750214683500008
315.24568596,-0.011942795107527677,0.13327715654971295,0.06222807648360203
315.747007256,0.05538146187747399,0.11905074118306178,0.08035013275321543
316.24832864,-0.03848387690700075,0.09374311901105091,0.002454919604364068
316.74964937,0.05535176342623071,0.09371070582206813,0.06359800762800977
317.25097006,0.017592134474163617,0.32586630430454994,0.02371063785363573
317.752291028,0.010982816635463945,0.32357928928117263,0.0734555525016669
318.253612022,0.0369816799423712,0.2730085811673857,0.004581142728766954
318.7499198734694,0.0011092825395537203,0.22662106710375018,0.052155123589447516
319.24622774,0.008863036043127924,0.19270281675555126,0.03741743457393526
319.74754883599996,0.03126603808539695,0.1580935423591099,0.030945102829938072
320.24886996000004,-0.019566778493524655,0.1332692505651738,0.029728045310650854
320.75019164,0.05598373790483988,0.1183395147268713,0.03205921705740605
321.25151356,-0.03684996991762783,0.09184516283568962,0.021201579285742293
321.752834774,0.0435355124016627,0.07594796200051819,0.06202018875268092
322.25415602,-0.048588854669992756,0.0686974417085894,0.0278659330091165
322.75046414081635,0.08268122532986623,0.05455004454342679,0.036297230617982
323.24677210000004,-0.06098245641037791,0.0464640664273622,0.05209323810110738
323.74809388,0.06711162007857156,0.042831636339834826,0.018747121666730898
324.24941574,-0.02841908209889235,0.033222548647531,0.041027091271925116
324.75073739,0.027312030429877687,0.029540860568808266,0.04341495390355098
325.252059082,-0.03040700349323064,0.02474233370947839,0.021909586171540766
325.753380808,0.03861189829407335,0.019491945952185563,0.053115482820766564
326.2496891938776,-0.011869427161085402,0.017338697725781053,0.026182029219305056
326.74599792000004,0.01820920283513524,0.01472013944163968,0.025526037580071083
327.24731998,-0.02228998799054295,0.010792789171481998,0.04877144187680088
327.7486417,0.028504830548312113,0.01008982806554874,0.03120243824499498
328.24996350000004,-0.0020183076344908557,0.009544130699331407,0.04264480857846432
328.75128537999996,-0.01863693580642032,0.006736777046854793,0.03300518970942638
329.2526074,0.058888506561956794,0.005016525785476445,0.04157373990922964
329.75392936,-0.051280695400380105,0.005025734026637358,0.03171264136757126
330.25023819999996,0.04162205472007669,0.001995019532131569,0.04239032840668505
330.74654684,-0.017187045917109834,0.011554967602629782,0.01076402508586089
331.24786852,0.026567101891026908,-0.006916721790651103,0.0712461302349421
331.74919104,0.009749522264034544,0.0023930516717045845,0.0272403418863892
332.25051357999996,0.01059896816815375,0.0074057294367749025,0.029590818049367293
332.7518359,-0.02716943746148207,0.0010585670801693814,0.04648693750182852
333.25315822,0.024212995277396863,0.007375758365760774,0.01692152912954636
333.7494676020408,-0.0012450516524996182,-0.000979237770860046,0.037659847286063634
334.24577716,0.015332064386108155,0.0026589695949578046,0.02118746880836815
334.747100206,-0.023966668637261532,-0.0680284715091388,0.03536693202219764
335.24842354,0.038130248395773496,-0.12023228863866536,0.03607996373427573
335.749746158,-0.023058594820456055,-0.10053111079199858,0.04332853172402269
336.25106866000004,-0.018341613215316528,-0.07855887611363616,0.019243990868481286
336.75239201999995,0.05888729677862913,-0.0381742339173117,0.04500606754061358
337.25371548000004,-0.04212355314167283,0.07555689807652162,0.03751369463032658
337.75002575918364,0.052275663734658674,0.0596989894967038,0.038781894239998956
338.24633616,-0.004491218491529869,0.05178907993520346,0.038315192651065734
338.74765951399996,0.014522385383969005,0.049870620991047325,0.019806658494098888
339.2489828,0.000849091950158003,0.0379297623379191,0.04852719971501416
339.75030687,0.004351410505646659,0.03578708101269234,0.02231488794621231
340.25163119999996,0.00020102851549697306,0.027132334609351116,0.04277829062391599
340.75295545200004,-0.00797362838868746,0.025251472359000132,0.020680087102663443
341.25427986,0.03433431901334225,0.01608399075266928,0.048112717190460536
341.75059085714287,-0.006883145692341456,0.01876971057586044,0.027897372632003564
342.246901856,0.014405333470199656,0.016294004094769707,0.03144584682181664
342.748226382,0.01671769084043781,0.01230008649721396,0.04324268820252265
343.249551098,-0.012198169778100338,0.009584250291425045,0.030672637728928646
343.75087590199996,0.03743752254169474,0.012605118582656887,0.023371906234520873
344.2522012,-0.007632512170173551,0.004396724123249465,0.0322132226389794
344.753525896,-0.024956483739070626,0.008875247522960312,0.03612218272053164
345.249837155102,0.045436680588147836,0.004462911344014629,0.03998498783636787
345.7461489,-0.01664614315444886,0.008273109547090696,0.027471626996232325
346.24747426,0.018521919034955748,0.01028792516686752,0.035710336199805646
346.748799576,-0.006712119670138678,0.005828418597331225,0.009505564835316628
347.25012514,0.03513149093931314,0.0021887788022141082,0.0558444974349392
347.75145082800003,-0.018095055809542494,0.007319279470259296,0.0323389680538606
348.2527766,0.003093006173584714,0.009019970649493945,0.03514126083231642
348.7541023,0.02394644923945444,0.001561621783192604,0.03711459202684894
349.25041482040814,0.0004857101632451851,0.004967526350025948,0.029739147012209036
349.746727568,0.005371589618024609,-0.0008532494106253816,0.05154794216356255
350.24805374000005,0.0033767055758558958,0.004332688095567988,0.03052249599523031
350.74937955200005,0.02640852285916585,0.00040770331679433944,0.03814645764567227
351.25070524,-0.02163319584262419,0.0034358691661119894,0.02859396896023909
351.752031612,0.04189165182810571,0.0034270069798568214,0.03918328861244052
352.25335812,-0.010997885821708759,-0.001493847501015172,0.032209707005403015
352.7496713714286,0.007746331805490535,0.0017772459439476195,0.030144827640822654
353.24598480000003,-0.014741337937041117,-0.0028535097209571258,0.035224533569797434
353.747311824,0.042795557521263794,0.000964086581137234,0.05893962732150857
354.24863924,-0.018088137399553634,0.0024029530176171866,0.004728777683998649
354.74996603200003,0.00014377561807046328,-0.0036742501123648748,0.04121668271600058
355.25129282,0.011739147661111456,0.007942058460514633,0.043362860983733834
355.75261984800005,0.022641080645229374,-0.00785592835428122,0.027960768432811475
356.25394692000003,-0.0387280494094794,0.0037998322512468874,0.05575499949892802
356.7502607244898,0.06122954271720167,-0.003141746897674807,0.03946064152383725
357.24657451999997,-0.008421274949394491,-0.0021191744936465812,-0.0015484189015221967
357.747901892,-0.04759684911999182,0.00725461106605071,0.058233312122787685
358.24922928,0.09078843477432669,-0.0032084186113195373,0.03423019250586639
358.75055705600005,-0.040497714438350964,-0.0020873868767142,0.026276558152839267
359.25188498000006,-0.012325571370883193,0.0020140399479384253,0.029226407126174837
359.75321294599996,0.04629598647167644,-0.0019037902640432626,0.04050943654541582
360.24952776734693,0.027015922421422638,0.0025443576945952616,0.03546286268269692
360.745842326,-0.05351088561967435,-0.0028208472318834795,0.041190363705379596
361.24717008,0.061464853147547585,-0.008695076530194447,0.03959573586035707
361.74849789599995,-0.01579601916154089,0.0034050540700005915,0.03933856633868542
362.24982554,-0.005375962015960284,0.0012390454323580919,0.03295798564982568
362.75115368999997,0.0319665554100194,-0.0042190552685099246,0.0288904079653269
363.25248208,-0.02335602713264264,0.005009813806447757,0.04678078225655554
363.75381043,0.015739204865346815,-0.004540350536041952,0.02700789533530947
364.25012573061224,0.014180309525510713,-0.006201729564732057,0.03195126958040535
364.746440648,0.0015407279866013399,0.009374338145736788,0.03333173747586011
365.24776884,0.023846150378590284,-0.004588380740191334,0.08813157814997798
365.749097084,-0.017308774083175337,0.011265686018610818,-0.0140245253235906
366.25042529999996,0.026827584329299246,0.05795717203515336,-0.0377798916814887
366.75175373999997,0.018939199805343854,0.03551459541681142,0.1811106214694818
367.25308232000003,-0.02697463837436541,0.04524927138697628,-0.0581613963764436
367.7493977020408,0.022281908114780778,0.07862609549246705,0.053909658893603385
368.24571312,0.06707020344746112,0.08085677665132915,0.029822120828116125
368.747042,0.00591329035282344,0.0559335821078734,0.05050038250618501
369.24837116000003,-0.023232874812147787,0.060002940457640846,-0.006667356491496344
369.74969984,0.04310418247191506,0.022322552568031756,0.06904312055197584
370.25102844,0.009522209322805794,0.047529928323071964,-0.05819185418603246
370.75235760000004,0.015395081655984612,0.017271961627740112,0.16040520055911137
371.25368696,-0.0392706404405033,0.0283822848942172,-0.022828603918827583
371.75000263061224,0.05133883028181425,0.012873116705799393,0.07393838365323142
372.24631818,-0.031423480098026195,0.024229505494601112,0.036755963194491016
372.74764726399997,-0.0022523569065301887,0.010066688254996682,0.013782927222370891
373.2489763,0.052495398085099385,0.01021990764315087,0.05138655867027225
373.750305624,-0.026180501249036533,0.0015037961887788848,0.04320649530215662
374.25163502000004,0.007671225895805664,0.010649868091338366,0.039144681690077995
374.75296434800003,0.0319680075754535,-0.04017244565937046,0.03625082964810455
375.25429364,-0.0228612198628286,-0.09078517439894196,0.035999862858310853
375.7506099102041,0.015048747302964053,-0.06905590522836855,0.048398816787182684
376.24692634,0.0051068842052966945,-0.05694590100248898,0.019738190400062857
376.74825599999997,-0.000667197404726394,-0.05121858309641026,0.03542520379279275
377.24958584,0.0037564005064393,-0.03245284725891447,0.04393354190679813
377.75091540399995,0.017837185312878596,-0.039631455916993547,0.040548342710986535
378.25224486,0.005724766720204655,-0.027133783246488723,0.03486305484540863
378.753574492,-0.0014991950913500291,-0.018090969347290858,0.028135986069706048
379.2498907040816,0.009629039910181558,-0.02152987974866298,0.03961532267127281
379.74620712999996,0.006093834917140101,-0.014257188614052866,0.03508467915023501
380.2475369,-0.0024346872035417837,-0.008569280387391597,0.02057258629854316
380.74886717000004,0.027710244576131443,-0.011257730431547222,0.039297013970298895
381.2501978,-0.007206494832058572,-0.009491423542349706,0.044405850686158745
381.75152799000006,-0.022613976931936976,-0.0039187971969408195,0.026867475196439436
382.2528582,0.05030330347942504,-0.003137054533001496,0.03262965230276428
382.75418828,-0.0189256016332819,-0.0010826942320945907,0.04738186530647517
383.25050500612247,0.022393120580847893,-0.00343286228229415,0.03109069375563272
383.74682213,0.00309371390239075,-0.0022982550794293775,0.024321833222519452
384.24815276000004,0.007654247950105469,0.00027894813946445317,0.037152393527616075
384.74948321999995,0.013058646123738955,-0.003375288386690465,0.03657377050454989
385.25081364,-0.004587776848804693,0.003473325945642595,0.029085221470909795
385.75214418,0.010211385659219287,-0.003231321587294779,0.029405097166919986
386.25347468,-0.003090552672418569,-0.0032068890566890273,0.05796869172796955
386.7497923591837,0.0411670631844531,0.011701063931824882,0.026261335494280405
387.2461104,-0.03211259544261531,-0.00898814761881608,0.03755074231186902
387.74744123199997,-0.007424034588979035,0.011802166991986196,0.02849632920599146
388.24877208,0.018859688682399997,-0.004667368362494181,0.04498409408074618
388.75010295,0.017408044504266647,0.006017568379384687,0.032038631887022655
389.25143378,-0.00442954678749548,0.005759255904001875,0.03390858434641928
389.75276479,0.004395082575652316,0.0032681825708174316,0.043934864305525095
390.25409573999997,-0.008691372209119842,0.006110592328070482,0.020177464900326885
390.75041386734694,0.01789517819468709,0.0023253901158773243,0.04198817862726214
391.246732238,0.006388787269460378,0.0028562672246651042,0.03183365896019691
391.748063538,-0.010071608118312016,0.003959221905346419,0.03946141954216729
392.2493947,0.009459396639163314,0.0073832653396195035,0.039504107117977603
392.750726148,0.013446724292304117,0.0023917040833435384,0.032076380202325845
393.25205768,0.00029450404301984784,0.0019462369394791102,0.03547731893807622
393.75338921199995,-0.0020651233483939845,0.000633675408856148,0.04578223186787263
394.2497074489796,0.006863339083725291,0.0017382739448100395,0.03097838991792843
394.74602573600004,0.022736010930191036,0.004342219206170367,0.03676509122123675
395.24735724,-0.01628571155624708,0.0033886946291066737,0.0519842830342074
395.748689024,0.04380100822375877,0.0019174990135503373,0.025070561617510822
396.25002076,-0.028419800492226636,-0.0012922142087303768,0.035207870586647594
396.751352644,0.028949083894802524,-0.0015393120763075962,0.04051081927902158
397.25268450000004,-0.010988979451708125,0.0014811190033233329,0.04609998143304432
397.75401693599997,0.004668973374284488,0.004419360186973751,-0.010292749200894317
398.25033656122446,0.02921783986383211,-0.00029046384805019336,0.060024233239400475
398.746655368,-0.032503734839694653,-0.006035970206580695,0.06114961883973311
399.24798710000005,0.05270919276638333,-0.0013603211787732183,-0.01861032800582852
399.74931954,-0.0029692613064996975,-0.0023184462144534086,0.09654978645006458
400.2506522,-0.0110957517261608,0.003570323974585551,0.019818551726057985
400.751984564,0.027036411702654597,-0.002685336643074212,0.021849805718228005
401.25331683999997,-0.014368703402842459,0.009267514907723573,0.05195178778812996
401.7496361244898,-0.007172457302244654,0.003911598782307432,0.01435794001864503
402.24595554,0.018858749179599215,-0.005038452424511381,0.015574311985752392
402.747288146,-0.030843046051200442,-0.00044941686769601227,0.04541145344121666
403.24862090000005,0.07993665292648162,0.0012328427576511994,0.05564432120064204
403.749953574,-0.030472584403522084,-0.00255113192321418,0.012751085982804283
404.2512863,-0.07049314170683486,0.009751148382530295,0.0025936175150986897
404.752619292,0.1748444878941796,-0.013940432908896936,0.07004274799713148
405.253952418,-0.009312422446713316,0.01093834061685747,-0.019537163399729086
405.7502721571429,0.013441315881957967,-0.004920175288705861,0.057882038811641175
406.24659214,0.09172513834760315,-0.009841936222384225,0.03456199987156499
406.74792570600005,-0.019934213276367935,0.0039034146123413673,0.03351090637748345
407.24925953999997,-0.003940753666826572,0.0017499252387539368,0.01768636448396805
407.750593154,0.06667838656199393,-0.004202726246327847,0.042856259078989
408.251926558,0.010329486658952051,0.0036577869740039267,0.02507919992544389
408.753260902,-0.022530678949918018,-0.0036034236426081335,0.046357361728931325
409.2495821510204,0.05481086391119565,-0.001258958775678774,0.039728153963521425
409.74590348,-0.006425160094229971,0.0015104191570122774,0.017479409215988492
410.24723854,-0.012596751925303976,-0.0012858125240015298,0.045229805534712064
410.748573168,0.003689847323177293,0.0012222747789917329,0.03992000477610804
411.24990749999995,0.06156426312047929,-0.0043578833175251415,0.026969905182787645
411.751242854,-0.0518937586703106,0.008105647472704874,0.016888116297455635
412.25257877999996,0.01788523871350688,-0.0007100602036866269,0.0601795352848024
412.75391415400003,0.03867802071879389,0.0011351965400315008,0.013845371200966867
413.2502362632653,-0.020319584217782276,0.005832563703525451,0.04545873460354739
413.74655852399997,0.024242210521871418,0.0021956032295669036,0.03484815378387753
414.24789411999996,-0.013701720429573063,-0.0004590603283919292,0.03637100592092673
414.749230172,0.019463280978021146,0.008913601734580862,0.013780759425240121
415.2505666,-0.006930626952523365,0.002807769982355738,0.03468298524380897
415.75190296799997,0.03354078152457229,0.0020061200089149214,0.038479339395118155
416.25323956,-0.011331658551328512,-0.00029633781237893163,0.017143743037661675
416.74956282448983,0.002549622968201586,4.3579315064287455e-05,0.06252947840413058
417.24588647999997,0.04127705846747528,0.002002991644495922,0.009822120366456352
417.747223268,-0.010234996241551402,-0.010812192720858014,0.06168159212148308
418.24856006000005,-0.003334928193361238,0.01150415203407314,-0.045576158295922015
418.749897192,0.04992845264672789,-0.019176505235321228,0.1913278345604791
419.25123428,-0.02014690247375885,0.017540191027141726,-0.1302680224008739
419.752571644,-0.009028941292903209,0.0010754558747154291,0.0981638193873329
420.25390886,0.012718875077350427,0.006528847163282809,0.03781175875500425
420.7502332816327,0.015822678827574425,-0.008459153926956403,0.009206289399835553
421.24655808000006,-0.032552342951558635,0.0068509999481198925,0.04887841560575985
421.747896,0.012380123701519608,-0.005105612256042613,0.04154676713107542
422.249233856,0.011770222072850316,0.006967644323925186,0.029838179125789357
422.750572102,-0.07750232012245999,0.006272141937955945,0.026275654397599536
423.25191046,-0.00027856851995283397,0.002718693831013792,0.04036654323734669
423.753248876,-0.02404299103359013,0.0026054841615411307,0.04181542592992522
424.2495740061225,-0.029698087449137957,0.005450214632437588,0.024212269353349337
424.745899396,0.00016009344234238222,0.005002469492058482,0.04180256769731073
425.247238552,0.0010798597032480298,0.004349562917110163,0.03259399839793329
425.74857733600004,-0.03095838172296615,0.009446206078538058,0.02938955149788975
426.24991598,0.02051179305057666,-0.02137196288283156,0.03735984628736246
426.751255036,-0.025895664589521864,-0.08774428410846806,0.03682264577822216
427.25259411999997,-0.007894178219381874,-0.2458613513717863,0.0316112459901051
427.753933444,-0.025478068470017524,-0.311111678383043,0.035305876952407285
428.25025955714284,-0.008998625791952809,-0.24811893026190487,0.041139252492439
428.746585812,0.008102047675722032,-0.2051722696947396,0.03387650156260623
429.24792591799996,-0.013086968715013353,-0.18255227007686922,0.04195657700926954
429.749265682,-0.014582693410671765,-0.15228444557188658,0.02834960704267318
430.2506054,0.004643971461505145,-0.1313862094588476,0.0359560813132703
430.75194539999995,-0.004029553428927631,-0.11317431522733434,0.06275935908096751
431.25328546,0.01924441789918153,-0.08189796931228027,-0.0028065510859899834
431.7496122857143,-0.014824423250501201,-0.11320291188392985,0.05196333169696781
432.24593924,0.007219215192884352,-0.19321542007429054,0.05826873249015179
432.747279392,-0.029464688639941117,-0.1589313147823084,0.023952502373268177
433.24861936,0.016796564907598416,-0.1254052598356694,0.049449948553709024
433.749959786,0.0017341755827613666,-0.10575964416015612,0.04975924345746491
434.25130041999995,-0.0066419006431093445,-0.08524218503507995,0.04386169068803481
434.75264076999997,-0.005851762623578438,-0.06988738424780522,0.04114057504449578
435.25398092,0.01118263649656177,-0.05449377352899222,0.047169210035770674
435.75030817142857,0.004892428343958374,-0.04565096805435874,0.04489016654573835
436.24663554,0.0019534634887886384,-0.038445546007848386,0.050311874027453525
436.7479762,-0.008881460347462303,-0.03460908785105263,0.04862694479341534
437.24931686,0.016721163229006627,0.016551489397700424,0.04469825454838783
437.75065774,-0.003849954272959848,0.08936277287960331,0.03865401391876205
438.25199893999996,0.008398487809869522,0.09806058853473429,0.0537435390540222
438.753339778,0.028915058532884338,0.07754466803469265,0.041045501276177586
439.24966722244903,-0.0004987556073347027,0.0628353787804773,0.05142897556940015
439.74599496,0.0034734097080672123,0.053893612533938706,0.03233894620407488
440.24733630000003,0.017637741335271247,0.04260145646713291,0.0439994107669489
440.74867772,-0.0021154197200366175,-0.006410509245205681,0.040600167915871774
441.25001918000004,-0.01234816851948019,-0.14010927050000155,0.047428075819571716
441.75136088,-0.0012890022778912938,-0.12789042609758428,0.03868916700042163
442.25270266599995,-0.0013186910525681606,-0.1377859513106767,0.051515843267056924
442.754044768,0.001597833592532482,-0.11098803501573781,0.04632303301055611
443.2503736204082,0.00318419783561185,-0.09103071337172956,0.05139814129913773
443.746702716,-0.002519634501514137,-0.13364791824216374,0.046876364786589145
444.24804564,0.004611653817291655,-0.15332395604919305,0.05806153288779397
444.749388484,-0.004929408784048491,-0.13168060419319633,0.04963132158162106
445.25073147800003,0.012124981547812701,0.14802446173613576,0.05817391412265106
445.75207477600003,0.02564642132656647,0.19833047255730096,0.05201821790332502
446.25341838,0.011475392649417706,0.12380962050288433,0.04744032096603759
446.74974843469386,0.04834044754958724,0.6313047675269223,0.04704511406851014
447.24607846,0.031969842445490254,0.43336873012543314,0.03847694919105973
447.74742239799997,0.024631376363784752,0.35511674741307464,0.03701058475372992
448.24876654,0.016767231628310758,0.2848232910193041,0.037247653133752855
448.750110778,0.022211267845174038,0.2360737626395581,0.033756707580774925
449.25145521999997,0.015559629418339488,0.19136750886272286,0.04075119237690348
449.75279986000004,0.011276773223844341,0.15923824294941144,0.028723295876486164
450.25414490000003,0.017552324568004565,0.13048864469193316,0.03416166699544856
450.75047617142855,0.005909835544857479,0.10641167462293892,0.030485617569794735
451.2468072,0.006716678793432506,0.08762472962389602,0.031766192902469195
451.74815226799996,0.007893342003986751,0.07077284317144077,0.03436402375995026
452.24949730000003,0.00895927930268309,0.058877812043127815,0.031950091621614454
452.750842774,0.011775594162665408,0.05072330379947908,0.03886173814979017
453.2521887,0.005662436587796359,0.03827443217655422,0.041157548565650535
453.75353448000004,0.003693680780282578,0.034039781243785844,0.017047043470948087
454.24986690816326,0.010367527165606311,0.029189222595147796,0.03196866730915194
454.74619955000003,0.0001325039885629078,0.022011349726527647,0.03699045635366255
455.2475461,0.008975925184331155,0.019624524515925425,0.034875081593043415
455.74889234200003,0.0033366280660242593,0.018068077894687916,0.03477785274066548
456.25023867999994,-0.00045899876916435727,0.019058652190581848,0.027600072794186817
456.751585158,0.010068049961521119,0.017935439431854504,0.03680948190740397
457.25293196,0.012579789840442264,0.008810290473957193,0.027921616402660852
457.75427865999995,-3.6350773375739e-05,0.010607882158363178,0.034659747047482904
458.25061147959184,0.009774359786894999,0.008995823620462726,0.03599022298868213
458.746945234,-0.000887152925723555,0.007155984455281286,0.02555783799221435
459.248293,0.01089151903398176,0.0107725719878559,0.034958782112271526
459.749640368,0.0051907633295899015,0.007904402409517374,0.037051561985181315
460.25098791999994,-0.0026547713530048556,0.008921590549642429,0.03006167628075892
460.75233563,0.003217465071103516,0.006724901813678421,0.028842468795683075
461.25368371999997,-0.0025067948850111548,0.0038594956584672184,0.03906438610307146
461.75001787551025,0.014520602187201853,0.00030142005185721817,0.03177432923245052
462.2463517,0.022586958022146858,0.002988245606799135,0.03553400712779526
462.747699508,-0.013311298548767593,0.006309664868655736,0.027234485221355572
463.24904766,0.0016338253665248654,0.0032886531840462963,0.03245259293914703
463.75039559199996,0.005076982001133376,0.0019107387812878878,0.02643676427738325
464.25174306,0.012631570934020377,0.006836840906352853,0.03352376087556287
464.75309148,0.009145547053901547,0.003777684017725476,0.029577693941741465
465.24942740612244,0.0035687082595177093,0.0037348398576129587,0.03127150217958366
465.74576240000005,0.009294650931966644,0.004684608214906534,0.03479527659476611
466.2471112,0.0054395570259413,0.007126899701192202,0.027042531814658717
466.74846017999994,0.005491556682224349,0.005324755921857125,0.03250207327802053
467.24980934,0.011468557134375829,0.0037432939484515616,0.030892983998700437
467.751158504,0.0011936985894175662,0.006328945241449367,0.02487313232186291
468.25250728,0.01206143870476309,0.00793920214658773,0.03490226008496879
468.75385708,0.006586438417059875,0.0013105216055498319,0.03191903854046717
469.25019399999996,0.003419650423427626,0.0038625183218444024,0.03193621381411021
469.74653043,0.0037494787430108058,-0.00015769288326355571,0.030466528501768272
470.24788,0.007611737747706634,0.0014006138002506845,0.030110121513132273
470.749230096,0.005031856835841506,0.000804009872780113,0.02705927160434741
471.25058118,0.004267023542735787,0.002194110829852522,0.030836536537688843
471.75193160000003,0.004329086874571425,0.0005678124059430815,0.03057683503187489
472.25328240000005,0.002952391566625057,0.0026497135785231523,0.03152505778600296
472.74961954489794,0.0017498479700580097,0.002520475871644915,0.02759948390074443
473.24595650000003,0.004822616857472841,-0.0013506853002357088,0.03298591644378896
473.747307642,0.0014304393715854952,0.0021526394151287474,0.028268346367042643
474.24865926,0.005418181192784712,0.0018297813052005662,0.031259641976172696
474.75001078599996,0.003676407314329022,-0.00029546347645235916,0.030744257285331648
475.25136244000004,0.0063515733400487905,0.003124114090064322,0.031280875788807186
475.75271425200003,-0.004077006305737365,-0.0027019249645769392,0.03027122455323558
476.254065942,0.01851124439888612,0.0074996972893695705,0.02729376345487017
476.7504047346939,0.0006106424402546194,0.001353662658183698,0.02725778850698146
477.24674394,0.006735515359114239,0.0040171537425888705,0.029473947231283996
477.74809667,0.0005907062576135007,-0.0003803941196025372,0.029562646682799013
478.24944990000006,0.009251810490443827,0.0023892720052623574,0.02975259904469271
478.75080291,0.004035530101482268,0.004571790888668592,0.029800032088602647
479.25215562,0.007414271742968801,0.0028622458286360277,0.029259414410256097
479.75350904799996,0.004890623975859086,0.003723488099570331,0.031276243670783244
480.2498491897959,0.0044065644045167595,0.005585543592124024,0.028475066053622336
480.746189416,0.0033910441436572638,0.005951702058023497,0.029180219510392503
481.24754356,0.004041745608676043,0.005811251811614187,0.02856463937894284
481.74889759999996,0.004566210187664713,0.005020668579950022,0.03139483257238505
482.25025174,0.003503868569469235,0.003868405429046805,0.02898946794100196
482.751606044,0.005857535034391982,0.005183320253859287,0.030583968604965765
483.25296013999997,0.002379925264997421,0.004318103999502967,0.03023950210567415
483.754314848,0.005684884469196716,0.0049682513616375636,0.02959720430858814
484.2506562897959,0.007331991631869183,0.0031023906287900604,0.0301321585535535
484.746997748,0.004236415658801295,0.009416766864342157,0.02808968049317429
485.24835315999997,-0.003360358948522282,0.002059799959856542,0.029878459122803937
485.74970839599996,0.007911752342129218,0.006158998300077719,0.031473985439761154
486.25106366,0.0030773192894385172,0.005207048605181627,0.03215022427711325
486.752419068,0.007242836646018657,0.005889689564051908,0.02985509563656879
487.25377408,0.01630924849526465,0.010398234681220413,0.03024436190669698
487.7501164204082,0.004754557157953011,0.0028736648220018704,0.03015172267900625
488.2464591,-0.0012192405455344938,0.0028859972796805556,0.030094890200324853
488.747815216,0.0032958112978031025,0.004871384388809518,0.030567391802399646
489.2491713,0.012604791492709811,0.006132443576611481,0.029443318236576664
489.750527716,-0.0002637406537219672,0.003832956338670699,0.03191681946337468
490.25188446,0.014977311162823298,0.006432027086574792,0.03215729616930454
490.75324114800003,0.0015510545893435293,0.0027809556110521445,0.031726123942362155
491.2495843163265,0.010019765458868792,0.004216273428104674,0.03121935507650044
491.74592766,0.007853304989933755,0.00403521101218285,0.03289380976287592
492.24728458,0.008112043314812308,0.00445977942715996,0.031902501580476215
492.74864181600003,0.009637625423825793,0.0029738190787394715,0.033273161785020336
493.24999938,0.008190228906897228,0.004288474290028871,0.03183265022821267
493.75135671600003,0.006426124420682806,0.004469391911918313,0.03207738971477472
494.25271406,0.007706718389462285,0.0073594627981774085,0.031323252354102174
494.75407158,0.00728027231917041,0.004089205282230682,0.03328931588058237
495.25041568571424,0.008448451908215651,0.004580991292048509,0.032271021458859746
495.74675990000003,0.0062932738702135785,0.004867894083073947,0.03186886958296191
496.24811796,0.011321946119346853,0.003231520843379647,0.030444452459829976
496.74947598,0.00688042106691408,0.005364465038665949,0.03250109976265123
497.25083401999996,0.0063467035666035735,0.003701644592266738,0.03214844235753394
497.75219215,0.000436657180173908,0.002327134745712063,0.03170116098656298
498.25355052,0.009054056255938903,0.00539995146691607,0.03253179744932264
498.74989527142856,0.005348452552868074,0.003306574339007895,0.032998218344061206
499.24623996,-0.0037508529648283395,0.0034256056777997855,0.03086878270975353
499.7475986,0.0186879104025324,0.007579826109369965,0.033800516832090594
500.24895808,0.004248001734215722,0.013333868872216676,0.03032666748381871
500.75031672,0.007514795961726109,-0.0010484889244996912,0.03264322943847552
501.25167444,0.004187520112779192,0.0054641030306592,0.03283298484459102
501.75303332000004,0.009319055986248775,0.007268227360007207,0.03272598385474242
502.24937868775515,0.012781625802941154,0.015179386052586655,0.03672903952414179
502.74572421600004,0.01569037782587972,0.11187761623258542,0.01994410667164468
503.24708402,0.026592517913842973,0.32215196464204604,0.03594458840964363
503.74844327,0.03965612455559272,0.49574083435680794,0.031893918788800484
504.24980274,0.04870352886518644,0.6668431790624798,0.03185865036562949
504.75116213,0.054900386623384215,0.7416656467157802,0.025738036578947313
505.25252154000003,0.04727499862025323,0.684836418820725,0.031462486823682384
505.7538811,0.03694186801332846,0.634052241321852,0.03456217060871967
506.2502270244898,0.03761409130512596,0.5900544211586877,0.035527968240955915
506.746573104,0.027735960607507267,0.5440501746057965,0.03668791638747051
507.2479323,0.02951162954953914,0.5063061125438341,0.03944351379936934
507.749292264,0.018452585050087268,0.46844713397771953,0.04234500334530055
508.25065292,0.024304775629240907,0.4368972803865201,0.04542949590938372
508.75201298400003,0.022106600738434797,0.4043500093558292,0.042841595504808545
509.25337248000005,0.024833052216654723,0.3756297144764911,0.04173761691983037
509.74971918367345,0.02499239979613164,0.35040534884059127,0.04065075008373752
510.24606659999995,0.016644044632799816,0.320939852953074,0.05769560595402863
510.747427008,0.002751375914062512,0.30146537667295453,0.05073423775915212
511.2487876,0.01036680528406965,0.281619150453346,0.05184067376242429
511.750148092,0.021240035958499735,0.2560055960415009,0.06871354610374475
512.25150862,0.01722401091035699,0.23824660015150478,0.04944892439298801
512.752869316,0.006259520443340889,0.22266142947192782,0.05704998907426928
513.25423032,-0.021298597446113045,0.21001570231884595,0.04214100995520836
513.7505775673469,0.030153485968092187,0.17798199893943645,0.08031919012608933
514.2469249000001,0.034598170712194724,0.174912961083899,0.07134870195318939
514.7482859520001,-0.023400522564657206,0.17989038555170878,0.04612853562798023
515.2496465600001,0.02435925755540101,0.15695937241973495,0.04566410736162949
515.751007748,0.06438320347207836,0.1169800667019244,0.08262897831420361
516.2523691,-0.08132243096875591,0.12546308105586457,0.05034338486745595
516.7537304,0.013517716044189516,0.08953309882110227,0.07080361120955236
517.2500785673469,0.07746567010994687,0.06531909429432677,0.06137068722729742
517.746426348,-0.06832089438748355,0.04764168065186136,0.07016389263931291
518.24778772,0.016906882204668395,0.01847410516639419,0.054050461657033574
518.74914934,0.04224487743528932,-0.015613961831487787,0.07644413015974831
519.25051106,-0.05118504599119558,-0.023433293150836122,0.05995154681094885
519.751872928,0.030679111345400988,-0.04773717540072084,0.06609769985189888
520.25323452,-0.019651243328027656,-0.05624289511034468,0.06948934395104543
520.7495830183674,-0.010282208910044506,-0.06459958537871885,0.04979477068028254
521.24593198,0.02768794491779428,-0.07251670918909797,0.07551535774471653
521.747294258,-0.02616793467343109,-0.08936565286662208,0.07565561968005302
522.2486559,0.02362129792542476,-0.0946883567321021,0.07318135261151547
522.750018406,0.029306243691881576,-0.09786471230068168,0.07827258467257592
523.2513810199999,0.043515422319004154,-0.10417014183571897,0.05965716855471395
523.75274376,0.1807998021223207,-0.11192845240746788,0.0634598326234704
524.25410642,0.18837839998116704,-0.12175871288480178,0.039927522083000856
524.7504555204082,0.2625987216243224,-0.11706605734268868,-0.01397808644099392
525.24680468,0.15112573305012522,-0.13949134240332411,-0.019514131841114418
525.748167518,0.264996408304448,-0.14422014108192077,0.13493531771065867
526.24953068,0.12787855505120496,-0.13933766823376822,-0.03073553857179999
526.750893724,0.269954362570338,-0.14064217025529646,0.11105819733151426
527.25225714,0.11176492000152224,-0.25722278183949915,-0.02146591544106844
527.753620182,0.20612277457936767,-0.4506547487969803,0.0911081435622743
528.249968832653,0.07515876909843265,-0.6158098131482863,0.03479031475646238
528.7463184100001,0.15916889638359194,-0.5788166265303609,0.054611829609099
529.24768208,0.05343632271515791,-0.44195457561935364,0.03227717475946892
529.749045478,0.16587332055929863,-0.3276616338822119,0.031328258878663466
530.25040926,0.020224921086067507,-0.20091082125925017,0.05435018139277817
530.751772874,0.11826402585318614,-0.09991796624798789,-0.01885790251856709
531.253136488,-0.0104254061214586,0.015814928512406564,0.06355190817858014
531.7494865918368,-0.08811205288223779,0.06783837380546483,0.04817669197896883
532.2458366,-0.17592403555243138,0.09323673301635488,0.09429052444385883
532.747200512,-0.15537644978293805,0.09316791651864062,0.06602182461381977
533.2485648200001,-0.14889966115197967,0.08066275656966887,0.06667767478968571
533.749928898,-0.149966765663211,0.0660199003610618,0.05511897321171134
534.251292518,-0.13193571187610248,0.056356582447765445,0.04221445293363895
534.752656736,-0.06894855296047836,0.044627787350950056,0.08111508436101081
535.2540213,-0.13096770675831634,0.028446083212230168,0.0523387239966453
535.7503720877551,-0.013110688412869973,0.04247049671757869,0.06124124007182926
536.24672328,-0.15409740977958794,0.007303420479055503,0.0397239398894663
536.748087788,-0.014238433103574706,0.010073756256434979,0.0640349248985309
537.24945208,-0.1044379279396114,0.007525611283532702,0.059721264483961665
537.750816744,0.03303775558785299,0.020552429858822167,0.006953971588222935
538.2521816,-0.03854707516032506,-0.007410815793298529,0.036275056529117056
538.7535464,-0.10729867469633493,-0.09677839479450956,-0.05179667800725812
539.2498976571428,-0.013539927608347763,-0.39506222771320093,0.14053591380589708
539.746248936,-0.0937461641152279,-0.4164752230578236,0.1434482703338639
540.24761374,0.1534600308208535,-0.4150730772176686,-0.05900967918733811
540.748978884,0.16580912800881809,-0.3708749163880145,0.10809111788013025
541.25034464,0.24251811930049968,-0.3420848476603105,-0.06964744558881457
541.751709944,0.21239363720175386,-0.33862186992285304,0.06925245019685027
542.25307534,0.16103666693868607,-0.29743374589044524,0.031125829155036148
542.7494270857143,0.1517790997063609,-0.2852798854781833,0.02362425149230013
543.24577832,0.12805746775200044,-0.26232290818074944,0.023360962707588976
543.747143842,0.11177914522866725,-0.23562056971380038,0.031139142792987996
544.24850956,0.19940842944988024,-0.21708115509693454,0.029597849072186412
544.749875226,0.07855716142326885,-0.19864795409250577,0.007460318463279202
545.2512412,0.08867587705501229,-0.1923393114344418,0.03389325341518963
545.752607012,0.1020511132832992,-0.17208743260262324,0.043089235698587754
546.2539725,0.03973421321318162,-0.16671760930204,0.10124379600040351
546.7503247244898,0.04180157783164917,-0.1437906259768067,-0.04049428607693794
547.2466771,0.0699103350223266,-0.14870849931196356,0.09278090591281658
547.748043096,0.03716478852766251,-0.12347146350523061,-0.034591076308864814
548.24940892,0.09010351317786641,-0.13172297839014654,0.03619214099516438
548.750775,0.007274668204617084,-0.11134194299253355,0.08436740320328162
549.2521411,-0.015355536226655859,-0.09741790275043087,-0.043309635461192084
549.753507226,0.06519263220673492,-0.10373969836511082,0.1349398294628696
550.2498599836734,-0.04833075310972226,-0.07509641463702545,-0.06082084034160639
550.74621262,-0.12863584413378054,-0.0822197904166784,0.11667335826870488
551.24757848,-0.1358751576704876,-0.06555902261449809,0.034661310305936825
551.7489449,-0.20979157876753496,-0.0491027988529702,0.030453680503826207
552.2503114,-0.13446377610119686,-0.04304530517607699,0.06653337648662323
552.751677874,-0.3196801842626197,-0.03137316723056878,0.08222969530722715
553.2530448800001,-0.16129582320902813,-0.024796454106711652,0.049456550123851646
553.7493974061225,-0.18634664079785151,-0.01807359024677007,0.05168172793214287
554.245749,-0.16251397701754214,-0.019366448767552155,0.06228624686620737
554.74711534,-0.1282842831873589,-0.018719518699506322,0.045839313154983206
555.24848244,-0.10592775661547252,-0.00871270231850674,0.042640347675624725
555.74984882,-0.08347000846241359,-0.009734632257269955,0.03040459343482828
556.25121516,-0.09591803346255345,-0.013874010454076715,0.04831759933097019
556.75258184,-0.06098893590794804,-0.008157659756349423,0.06027944499099374
557.253949,-0.09308991567775105,-0.005628614767717438,0.030534501011343453
557.7503023265306,-0.016720233127591282,-0.0008985448034919397,0.01355063496873046
558.24665578,-0.018818039660478472,-0.004958316373032883,0.0108004434631526
558.74802288,-0.05121727313254957,-0.02242542901344951,0.1142605778096954
559.24939002,-0.04480148778239641,-0.01968036334626025,0.16555646165880833
559.7507573199999,-0.043552811082093426,0.03194042600871069,-0.137480806626693
560.25212446,-0.09512209262494982,0.07498925106646288,0.06978254614854275
560.75349198,0.08423653568527442,0.13904873714667232,0.020863482114531377
561.2498453979592,-0.1867628210017691,0.21161890249530907,0.05837022605504536
561.7461994,0.12696156998399963,0.2771468915402572,0.044344212374838966
562.247567024,-0.015831123893751478,0.32525657166871774,-0.03471482368836837
562.74893494,0.023355956905862583,0.3612113173109286,0.042081008277165564
563.250303606,-0.022816713268869596,0.31995210312765227,0.026654332415780385
563.75167164,0.01975733507279085,0.2755515653580687,0.09176048392187884
564.25303918,-0.02656682316257196,0.26178026406959615,-0.007918038352019296
564.749393622449,-0.09138501937599716,0.23142379567420204,0.03475489097229898
565.245748082,0.0857761088722981,0.19443667533220224,0.03607295746413177
565.7471165,-0.07234157502451127,0.17166965635410703,0.047535673136239735
566.248485038,0.02786020905587245,0.16613069773564046,0.0579227704151027
566.74985366,0.05319232941134011,0.1398979642081543,-0.008463653198810577
567.2512224779999,-0.04071786238568922,0.12112763537317182,0.05681633384962285
567.75259134,0.017975982133296202,0.10680479151573702,0.02946056236810352
568.253960418,0.03962853775816353,0.09910652239840154,0.029371503221939935
568.7503158020407,-0.011971100706251145,0.07297994016449577,0.055805034213606254
569.24667132,0.02481400269543226,0.06958866643096905,0.02334831744123774
569.74804062,-0.1089698160495611,0.0667702465734872,-0.0026922415376976565
570.24941051,-0.029874254274958042,0.04482331657589447,0.08172524768857205
570.75078006,0.08134167421335219,0.04233534537008553,0.03173471184671066
571.252148934,-0.09763127130384833,0.033640497602418336,0.07473642451619794
571.75351868,0.030487903022571528,0.03390699175134617,0.024403455767646225
572.2498754714286,0.06577657871875439,0.028703254426550886,0.043194809214331324
572.7462317,-0.033317172153251286,0.021117362945049414,0.006404828858091489
573.247601316,-0.00821430238845296,0.020283671716109796,0.08242465393653642
573.7489714999999,-0.09608758432875796,0.0025355131131876607,0.04928803438068981
574.250341816,-0.039566794203099505,0.01891346954166715,0.0689351954623083
574.75171214,0.10035019702011674,0.01842277098033359,-0.03457190346186164
575.2530822240001,-0.08212512453548276,-0.004676878630003847,0.06774185986906456
575.7494389857143,-0.11132199042686752,0.0011145011910234223,0.02285807380614101
576.245795706,0.14503320547137444,0.0010475062831716174,0.04631695102588664
576.74716632,-0.06882629636052594,0.008204762554807073,0.03616717237533206
577.248536944,-0.002793674654467827,0.0010786674509169509,0.03642823828686541
577.74990776,-0.027791518730849677,-0.013388407724489656,0.04671146805683333
578.251278276,-0.05581726169933347,-0.009343106721050601,0.11169314604390042
578.75264924,0.10885077440548806,0.008277247726745639,-0.05556462737472527
579.254020888,0.0068931938450413855,-0.01885872291669508,0.025501705289081866
579.750378332653,-0.07869714990869274,-0.013422993500727672,0.061585086749042624
580.246735976,-0.05583541864096873,-0.007991464757762247,0.06314466139121415
580.74810738,0.10175742449753544,0.00450323562738663,-0.01233639530920063
581.24947876,-0.07423560432076672,-0.022633724349562984,0.06673420871675058
581.75085028,0.0534516114927301,-0.0003556740510731393,0.033522962543185465
582.252222032,0.013082290162059591,-0.024221127675121305,0.030059937509391302
582.75359368,0.03861619062335298,-0.01248927767071089,0.06573113157114838
583.2499519265306,-0.022888845834929762,-0.021654702650611035,0.09260780348907895
583.74631004,0.03132764930796259,-0.02557695166399675,-0.0030303402390357177
584.24768094,-0.002312308113259145,-0.021425723808596118,0.07946607864513092
584.74905284,0.061483060829990416,-0.022993437279934734,-0.012179747085562282
585.250425456,0.27557448890392566,-0.016134969638491863,-0.01950488660753542
585.7517976,0.04806241493297926,-0.0434613240031221,0.044927921792954816
586.253169588,0.09974744348065209,-0.027972673579258752,0.06620171505096707
586.7495281510204,0.1446216830624821,-0.029080082725654027,0.03039131555039586
587.24588678,0.14485735039963515,-0.025497690766895634,0.026677264388958424
587.74725926,0.18441772500627046,-0.029065230206049543,0.03182340958092255
588.248632102,0.15525239579630043,-0.04170314061297513,0.03320583298395542
588.75000478,0.1726667446458188,-0.015351191478566948,0.005466083227597575
589.251377574,-0.04963076780878916,-0.0554757650086597,0.06314077049796606
589.75275042,0.26398242229504676,-0.00671703850499632,-0.004463001685028735
590.254123396,0.08120237043992566,-0.041008517552617356,0.001858613748961852
590.7504826306123,0.14817678702012405,-0.048687220842131305,0.07123194811092147
591.246841732,0.11557408862411692,-0.014273578350073592,0.05007945173539243
591.74821476,0.0015448702029094497,-0.03403605864226225,0.03273049374349436
592.249587524,0.17677072673534852,-0.006673723098211932,0.02370374865802422
592.75096072,0.08452604314258949,-0.03429117279505355,0.025660990749238187
593.252334376,0.004271571706098665,-0.02987319499483238,0.03803885078654468
593.7537078,0.14939603728359666,-0.02670443017999677,0.03873245939143256
594.2500672714286,0.0955457380136482,-0.02322981640335478,0.014854528464489314
594.74642708,-0.00021242587409904922,-0.046030897341468056,0.07921202610324787
595.247801022,0.18953880883043298,-0.005141374945876731,0.04869000358574124
595.74917484,0.029355641348863145,-0.02012242202614476,-0.011051008459713588
596.250547968,-0.011908323612216562,-0.031410028175909634,0.04837098295897183
596.7519218,0.14686116033377716,-0.023705735278216747,0.0032390117662423525
597.253296102,0.008947833586099551,-0.03173625090909302,0.07905999488165782
597.7496564408164,0.16550851370909736,-0.018054082970015633,0.050855259992129455
598.2460170520001,0.0038289163113709845,-0.07192047938263255,0.033693602556343884
598.74739128,0.007669696170902609,-0.22732964071237813,0.08345771435588269
599.24876614,0.09279403895293022,-0.2828169101099921,-0.030145596103550033
599.75014064,-0.038448520757513996,-0.28048591844385845,0.046452096320780116
600.251514956,-0.019573981061784537,-0.2354303830519029,0.04820119830058991
600.7528895400001,0.06532858057347972,-0.21029608204712694,0.03644187474434927
601.254264092,-0.005806522218975649,-0.18218733394783967,0.04308616396194639
601.7506248653061,0.07794081544762439,-0.19030851785612113,0.049647351891182606
602.246986008,-0.04495105622936185,-0.1658936293721137,0.03807348055912692
602.748361,0.12197957744350468,-0.15779466398791148,0.03436769631358176
603.249735816,-0.12201772889743438,-0.1578982447603007,0.04068604533326336
603.7511108,0.02641550178596087,-0.11602769192524638,0.012233372600329157
604.252485616,-0.011905163944271,-0.11602488342140056,0.06982169007856956
604.75386098,0.13049642991380575,-0.08784581529665329,0.026630599094898618
605.2502229367348,-0.08639144636115292,-0.11465216152064214,0.0777855053904808
605.746584716,0.005615655533674413,-0.09039902896276568,0.017079380736782973
606.247959918,-0.021027682471271295,-0.0749373727703897,0.01939432858256322
606.7493354,0.062491085489126554,-0.07500250863044439,0.030284907834043796
607.250711612,-0.03922248837989823,-0.0690843235251358,0.06341768971778794
607.75208736,0.028431302981775302,-0.053716656515290645,0.09039547176976477
608.25346326,0.09485285581145028,-0.041110284427563905,-0.03356258086705849
608.7498254265306,-0.12417294221146366,-0.05411657605848475,0.05780990087631768
609.24618719,0.11229837082271041,-0.03211300246762939,0.061318850156047926
609.74756328,-0.041796264392470146,-0.03544161503919762,0.005809009448576621
610.2489398600001,-0.06811870965373104,-0.05055887983168353,0.07106059623630546
610.75031616,0.1327759576244479,-0.021211326362198576,0.04219586342701907
611.2516926119999,0.026645393147734266,-0.04293303583554123,0.11604327987895598
611.7530691,-0.06706668222453524,-0.037311213504247126,0.15067117298256036
612.2494319469388,0.1800503071824367,-0.04186806431873756,0.11800761568370813
612.74579482,-0.11149560854017836,-0.06780096096058565,0.1814699399675307
613.24717069,0.05176530072069668,-0.0596517173684801,0.14780174983070982
613.74854734,0.062218523981863144,-0.08230094949163759,0.16185380129644872
614.24992438,-0.00432374553507368,-0.0709935426079483,0.08402789196262177
614.75130126,-0.022062976138774105,-0.10800173419169808,0.2021410137940649
615.25267806,0.01211415701020655,-0.1148306755221695,0.16929898899991702
615.75405506,0.08808336820173311,-0.07813923773692184,0.09393752470718474
616.2504183816327,-0.05035576213807725,-0.12072356726266963,0.10118260312786974
616.74678176,0.02889203550573582,-0.11539901576318437,0.08525420369161116
617.2481591,0.05198836959866623,-0.1161900163695532,0.07989912720855546
617.74953636,-0.029086274125986637,-0.10413772518882843,-0.009742638300955852
618.25091389,-0.03397335239869796,-0.08603901946142027,0.004265343425217731
618.75229128,0.042001383028728335,-0.10215940709497773,0.07178239083231791
619.25366803,-0.006103704278425338,-0.07455573485494,0.04120467971671283
619.7500316510204,0.06561864086989448,-0.06842313698914998,0.014210203001715273
620.246395976,-0.14057718731892319,-0.09598954753351904,0.1451178679846985
620.74777366,0.12164231577973322,-0.06701842367555519,-0.09155468859497287
621.249151016,-0.05650953751674338,-0.07587605899505839,0.10204128255275562
621.75052868,0.11953645501048087,-0.01429923097019163,-0.017121618586387916
622.25190614,0.0038738049073608703,-0.0014409944359469707,0.059855339831191866
622.7532839,0.06744548755931373,0.10815357936385053,0.06048741622057043
623.2496483367347,-0.04552101580874149,0.12667546118195203,0.05403286166472147
623.7460124,-0.1998113082172566,0.18091188498395752,-0.11504219967961891
624.247390456,-0.06809661859375153,0.20807572797046323,0.08734629326350207
624.74876842,-0.039157120548236085,0.20794940146166963,0.11664130764849068
625.25014594,-0.21334901780665005,0.19003109435271212,0.12020268368066117
625.75152396,-0.053020740280544966,0.1814149841736244,0.034359068595571085
626.252902156,-0.24516044894836747,0.1791435199461549,-0.13334885697850699
626.75428016,-0.2612246262971384,0.1481922488920938,0.03342325188707918
627.2506449387755,-0.16281810490458035,0.15794791918796974,0.1021061687976418
627.7470091600001,-0.15819578956775954,0.14164420895303698,-0.045028363667792524
628.248386828,-0.13311338770309974,0.13262480002812058,0.0780289184449217
628.74976486,-0.10131596417583609,0.14109811951075937,0.01609515465352451
629.251143332,-0.05011673648196613,0.11234153019804863,0.038400030983619576
629.7525216199999,-0.23193785935036515,0.10389633273441543,0.05208509919345043
630.253899492,0.10848482486576126,0.13617878532648098,0.017409718084023796
630.7502641959184,-0.10292314352584442,0.05992734776575515,0.10922020911458011
631.2466293379999,-0.11575018533685244,-0.04587851827147637,0.015729116830809367
631.74800806,-0.07411174874853753,-0.07948774688994609,-0.014653075742104837
632.24938678,0.025339828880359006,-0.025054030711268483,0.1584416085947301
632.75076556,0.12802707032927135,0.022106238116657476,-0.01899273268709689
633.252144452,0.2547022765498788,0.0658472233790526,0.017363643033151997
633.7535235600001,0.20932308705163394,0.07328716343093183,-0.0679161254033571
634.2498891979592,0.22670050777136963,0.05404511286860132,0.0518675407816889
634.74625498,0.26095180199042334,0.05084748017937217,0.03703618605744269
635.247635064,0.27261136458835755,0.04634361759264139,-0.010430658178562958
635.74901516,0.1876388611319802,0.040299318142244356,0.002874709505848792
636.250394944,0.198741948659535,0.027345967500882223,0.029615198320796083
636.75177534,0.04159214868235919,0.047649425078050894,-0.08616227128507392
637.253156256,0.14108015432477317,0.032546696835449085,-0.07747728282325148
637.7495233530612,-0.219435803027856,0.03427032709910131,-0.0522893805807535
638.245890958,-0.14073365913279992,0.05715691768492051,8.600846430119658e-05
638.74727224,-0.1795894053341938,0.08445561385325381,-0.08576409047290438
639.248653414,-0.2287616855349179,0.08505209342543534,-0.20669030268366145
639.7500347399999,-0.21507489958199552,0.07129715662898453,0.16884962214149568
640.251416068,-0.13577976743163714,0.11200997710473155,0.054237972787081416
640.75279776,-0.10905180609462775,0.09911243609656382,0.005853489202421392
641.254179554,-0.13189775308372773,0.0714230181268008,0.005701139007921042
641.7505478040816,-0.0590854919157541,0.07499241629209882,0.04125637067150263
642.246916406,-0.10891020193071908,0.06323044442050675,0.03644346459086429
642.74829896,-0.05096612578383069,0.0809058863578232,0.03655800202277146
643.249681594,-0.12110404185272988,0.06461550968033118,0.11146790936167095
643.7510645,-0.29881822861349777,-0.012522246092902412,0.029492653535144266
644.252448276,-0.16571900419313898,-0.17638468665664536,0.04252934985707202
644.7538317,-0.3562400324129646,-0.2159826318007106,0.08302019771283925
645.2502007795919,-0.4780241903103783,-0.19917122721449532,0.12324406208468
645.7465707,-0.06379965037454614,-0.1390368362832763,0.05162031001258767
646.247954884,-0.26824675639268086,-0.16270937039537306,-0.09152027248011953
646.74933918,-0.13833039902485983,-0.1783941331360494,0.14073473863590583
647.25072416,-0.34176614371568304,-0.13779479415801968,0.04942363812727385
647.752109,-0.016980611893866352,-0.15220910649038527,0.024381278386002535
648.2534934700001,-0.27228355598977216,-0.32858789666467914,0.0390784260616345
648.7498645408164,-0.10968786289072967,-0.3798621607213979,0.079597900547389
649.246235672,-0.15833118719917091,-0.3998393464553171,0.05409871431006047
649.74762088,-0.2763555891610735,-0.41216660217878315,0.05926698543806112
650.249006236,-0.2375128796043585,-0.3767028726158121,0.0739609268789087
650.75039184,-0.18736544265850413,-0.3210898468407073,0.051004215078312425
651.251777856,-0.2569052122911998,-0.29669072206609665,0.044038043911515834
651.75316388,-0.2653289831847681,-0.27419187037345694,0.0698633029866956
652.2495358367347,-0.2607640107827869,-0.24768018641214845,0.07682159538841528
652.74590828,-0.18236013562860112,-0.23036308418945836,0.11080612076896898
653.2472953399999,-0.1539389983916869,-0.19480940678246234,0.047494115042408504
653.74868228,-0.10457550439792987,-0.1967035735769612,0.12881365883621457
654.250069508,-0.07689121317768677,-0.17502059593741567,0.009002638375077423
654.7514569,-0.07379813919690249,-0.20157912095191471,0.16135752246592655
655.252843916,0.11495053625153957,-0.14145689967149674,-0.02749411263936866
655.7542316,0.007666788816960304,-0.17555615636330832,0.020105791945691124
656.2506060224489,0.15108597009122152,-0.13776760693438433,0.04825993082587496
656.7469803600001,0.38843207622081116,-0.16580140344517746,-0.031893071033999215
657.248368882,0.35049421003906484,-0.13976082653318214,-0.17678082342413584
657.7497575,0.3790314957471408,-0.1503757669069185,0.0016404817255741655
658.251146212,0.4928360021633882,-0.10593328516443024,-0.11472913816236849
658.75253522,0.2302819065862829,-0.11422400878780001,-0.061421005140953916
659.2539248559999,0.35836902847340396,-0.10235835903572012,0.2510416803653793
659.7503004897959,0.24149141020505133,-0.04021718911735355,-0.34997883060527823
660.2466759939999,0.2574474571726076,-0.0746575058298906,0.13284379119969408
660.7480658220001,0.22712402884289143,-0.05671392084328442,0.08414036124092995
661.2494562339999,0.2354469134569899,-0.06186477522967821,0.12070923830568119
661.7508465200001,0.14355782900248276,-0.018099684854628772,-0.22304086925503494
662.252236162,0.24505663068803185,-0.04701901829364412,0.1088970795031556
662.75362664,0.1256383208955447,0.0036485290349732606,0.06894149237779768
663.2500040551021,0.2104458859020833,-0.025986687700637917,0.07982647445019217
663.74638122,0.04828548432422188,-0.0019674518728314077,-0.04482185257495596
664.24777187,0.12785045926157085,-0.031011520702616306,0.09616785125570773
664.74916308,0.030871379914413875,0.0023827334309665534,-0.0051807574559282095
665.250554562,0.12564119164214965,0.012454708223956763,-0.016233611819571697
665.7519461200001,-0.010601165292497283,-0.01099790970056966,0.06151752703099482
666.2533373680001,0.11588878906938474,0.0030817255119847285,0.05712693191707156
666.7497151836735,-0.03733681104978752,-0.002263578100974605,-0.0002927953505455528
667.2460937000001,0.03596496903203323,0.020402320360715064,0.07618201983721667
667.74748592,0.08560369478103674,0.0071699206628915105,0.07417810505626812
668.24887858,0.12701081340778436,-0.021290157713564004,-0.03599020552854448
668.75027108,-0.034888563616487234,0.010675196508297242,0.036456853221682316
669.251663272,0.05414081258437597,0.015113528437762947,0.03716969171263755
669.75305582,-0.08274610451693652,-0.018145681745372077,0.16670729683778784
670.2494349040817,0.06498993953410356,0.005304060446973191,-0.11969747622472296
670.74581388,0.03499087193982065,-0.026822900023854408,0.13485278612336085
671.2472063399999,0.04532276719821808,-0.006572445860595217,0.05417198548489881
671.7485992400001,-0.03498439453659762,0.021353066241520478,0.03847412420500695
672.2499923400001,-0.025846655057175604,0.03189692742605744,0.166475534658301
672.75138554,-0.015803335818823615,0.04551798405268414,-0.07832792357602197
673.2527788799999,-0.07072689973346828,0.027190262919675478,0.06525564214112563
673.75417228,-0.07017309056373804,0.04085136328610015,0.08109852787014794
674.2505519061224,-0.04261292157101319,0.0042406400979104674,0.08504034278779277
674.74693136,-0.16149055526737086,0.015169244125856374,0.11728907553822339
675.2483248,-0.09496068432416994,0.01279035151115469,0.027236712968643325
675.7497181800001,-0.0661745323280004,0.017133622156794114,0.047054383338173
676.25111078,-0.08496326949974138,0.005244372832143235,0.0367199171205267
676.7525039,-0.05476800181565001,-0.008717322945439202,0.05525552686068189
677.25389746,-0.025431697247178118,-0.00016624362915365883,0.018805738605974242
677.7502768673469,-0.0215873221993473,-0.007009765663883046,0.07961192191902595
678.2466563400001,0.005859197030450494,-0.013253456964099635,0.04527696959443654
678.7480497199999,-0.07232190542011263,0.0007252725889934324,0.03368344322268852
679.2494435000001,0.038822424717643675,-0.011585454058920976,0.015609437844064345
679.750837,0.013098210384345938,-0.012362909567949434,0.07978427525712818
680.2522303,0.004055884525692448,-0.006903381701827761,0.022093625630270175
680.75362386,0.04800498318385214,-0.02756501831436815,0.05561222977489792
681.2500038428572,0.026110469378164327,-0.0057060387078766255,0.0361618979722265
681.7463837600001,0.005288504506584888,-0.01156051983315139,0.055115297884287644
682.2477774439999,0.0527415507852899,-0.004527375329753782,0.0016108955098818004
682.7491715,0.00012328834095302264,-0.01694455350297011,0.05352647496078815
683.250566018,0.05282819181108658,-0.01594715624820497,0.0732284303124135
683.75196054,0.03209553948563279,-0.019344763163271033,0.0207386260921686
684.2533551780001,0.07306191875345718,-0.009846624274585542,0.05396663080215594
684.7497359469388,0.0330881551502861,-0.004763717150049304,0.008186727591577212
685.2461171320001,0.05712279960890234,-0.005519030014394615,0.05482653387361925
685.74751214,-0.009980305767310245,-0.008510499206036646,-0.018611904355081803
686.2489069280001,0.04526235364136654,-0.017486723098983355,0.0702729905390883
686.75030204,0.07950082669982488,-0.00014842631250134151,0.014833571165959736
687.251697712,0.023996922671869262,-0.019303649793836673,0.03927359613034852
687.7530933,0.07690031826474562,0.017461807057897995,0.11538439852107635
688.2494744367348,-0.007101951485694192,0.055008825264735065,0.017616844969230244
688.74585612,0.054968245386877994,0.04292684003616217,0.06115492399343811
689.247252304,0.07172587890343127,0.04542100720467866,0.016804417086315578
689.74864842,-0.023792721204367283,0.029750496706227262,0.06016673499389749
690.250044678,0.10798920729064884,0.025710576447585023,0.06216978282982685
690.75144104,-0.007033259578065234,0.027689647678558305,0.011991902627957044
691.2528372639999,0.05467201760349239,0.015708973500513684,0.023622588449958376
691.75423386,0.03487085309464424,0.00250126620398125,0.055353477231157716
692.2506170244898,-0.011746139000340775,0.015192824630088496,0.012311524114247244
692.747,0.06536603168014268,0.002295827908721688,0.04746677147632308
693.248396448,0.0043814987661792,0.007456288005121841,0.014707832754769086
693.7497934,0.05178922041624814,-3.4603343917012884e-05,0.034785989847337884
694.2511909799999,0.00701320241581405,-0.0012802942446537866,0.03554310068257087
694.75258848,0.033273848471932,-0.007708762624940324,0.029150010520461383
695.2539852580001,0.019015684811473203,-0.006961289960223683,0.043607334132188286
695.7503686918368,0.03105151184362708,0.14482224652003076,0.022467236060395517
696.246752896,0.06746938231914751,0.33174857284094983,0.03464762770826042
696.7481509200001,0.020218771471711437,0.2910844434476878,0.02325066720118192
697.249549036,0.04039924374228041,0.24514590359070937,0.01857317720584038
697.75094726,0.028556770410009702,0.21624443628847573,0.038551022421367966
698.2523454400001,0.026560598501779133,0.1823955704339928,0.042862060166917244
698.753744,0.026525799112041785,0.16475405064964768,0.0055984270828025595
699.2501283836734,-0.0025055335359849733,0.14112021187554286,0.030968111375991945
699.74651306,0.06176809813230962,0.12092644464300985,0.03831864815833928
700.247911914,-0.021287505445838118,0.10639979702512743,0.03575639735127227
700.74931056,0.0382991045196617,0.09141594180466475,0.013795407801405375
701.250709152,0.03668740845824024,0.04716331778267202,0.052353441376608245
701.75210798,-0.05143306472868765,-0.0201791017918337,-0.0076644652165049594
702.2535068479999,0.05279345153796762,-0.16903398273979486,0.042871256986306
702.7498919755101,-0.07741276238100084,-0.3258371753856324,0.0451527379301351
703.2462774219999,-0.0007686469789140232,-0.38821023792004666,0.019418894888261012
703.74767668,0.022082849223366827,-0.34454172268095135,0.029690117051539823
704.2490764999999,-0.03143412494625516,-0.2983365819515595,0.044097534228662055
704.75047582,0.046377468308152425,-0.2796540515018562,0.03367368019089138
705.25187624,-0.03199852663865685,-0.1571726864360699,0.014335429289903123
705.7532765000001,0.013290259172240417,-0.11197510110567359,0.046655300240083644
706.2496619857143,0.026592240608907934,-0.014506858043289437,0.02138228791381855
706.7460477999999,0.03588359924064908,0.004427899620825924,0.04281410543630475
707.247448328,0.0004480174942165276,0.005495418323558495,0.02601178527820265
707.7488490000001,-0.00323287718582856,0.0058015920536094116,0.027926129564027777
708.250249098,0.07548662244765686,-0.0038579390436550153,0.04052131176815255
708.7516497,-0.004041649335213815,0.0037207943518390873,0.03119924087764273
709.253050546,-0.003288878707303543,-0.05742281382720236,0.020072911954610948
709.7494374571428,0.015263310305151904,-0.17973923069977785,0.049664204086240754
710.245824448,-0.00505122054012057,-0.17769581288858766,0.021041716831730867
710.74722576,0.00803852850939462,-0.15116386078611696,0.047612193455333414
711.248627472,0.015931370532336748,-0.13939295939652185,0.03350495763458184
711.75002924,0.023119792221973787,-0.14404801106230322,0.023424005685834443
712.2514303219999,0.010760048623041923,-0.14709625927896652,0.03937212581092852
712.7528319400001,0.020943312806896767,-0.12672343713672768,0.04460724028971301
713.128883448,0.014502572188816008,-0.1051964706161018,0.027807491053530087
