Time_interval,Time,Acceleration_x,Acceleration_y,Acceleration_z
-1,-0.0006062083121,0.9592053223,2.817890167,7.603139191
0,0.25005111822612247,0.5401227274,2.6887576791816326,9.557844767428572
1,0.7463521717,3.95456943056,2.7496680359454,9.008177398579999
2,1.24766661104,-0.32290551450800004,4.27410994266,8.2464833497
3,1.7489811800000001,0.167298101721,3.70040995792,9.43528123196
4,2.2502960025,0.7258136627201001,2.280561547846,9.603624160819999
5,2.7516109749999997,0.649774786374,1.1835527893239999,9.38919506826
6,3.25292546346,5.31473395387,-3.2488948883889996,5.979474618482
7,3.7498631695510203,6.283419276390816,-4.482312656142857,2.8596624848532652
8,4.250719652,0.689915313706,4.83685570672,8.59852727044
9,4.75202344014,2.12556785890614,3.73563770142,8.80035556634
10,5.253326674999999,0.6591602691356,3.98362401116,9.22745939936
11,5.749614358183673,-1.3706354631071633,4.090607822938775,8.259334828857142
12,6.245902327,-5.21221813658,4.49399967956,6.972641317699999
13,6.74720409348,-4.18162925722,4.154930777000001,8.08001152968
14,7.2485059000000005,-2.36200718086,4.5958957855,8.01592978822
15,7.74980732352,1.4891542877250001,1.079806530722,9.71929162872
16,8.251108852,2.21298607178,0.17206419066975798,9.65561704082
17,8.75241130848,0.35840569147372003,0.43236688839799997,9.14345408918
18,9.25371357,-9.19739891088,-3.757564105271,5.069858175622
19,9.75000182142857,-7.791224595653061,-3.9622879308069385,4.7409472718979595
20,10.24629019,-8.65854047232,-1.3406211639540002,4.8830885651400004
21,10.7475924428,-8.44994325226,-1.791711117614,3.0707413603876
22,11.248894700000001,-8.13151043698,-6.18759582832,1.4645215118528
23,11.750196409600001,-7.96654448544,-4.7721123411924,1.080369360376
24,12.2514981,-5.7565581756799995,-7.6897580658,1.0865065978896
25,12.7527999328,2.3355781402866,-9.4181448674,1.4314073730403998
26,13.254101659999998,3.4857683075400003,-8.97148869322,1.540365792812
27,13.750390535714285,3.638694520244898,-8.924768399530613,1.504383862565306
28,14.24667927,3.7460949554600003,-8.93013568754,1.667592224106
29,14.747980975,3.2614687408600003,-9.00395917066,1.4390025787120002
30,15.24928258,3.28801753234,-9.057760290580001,1.5839551483240002
31,15.750584327199999,3.0516650299399997,-9.18208276054,1.894313754234
32,16.25188606,3.10173890084,-9.0424950348,1.63552590632
33,16.7531877152,3.16820668038,-9.13621813662,1.57460259702
34,17.249476134285715,3.0811773525714288,-9.160213482938776,1.5380760441632653
35,17.7457650084,3.21019736018,-9.08477012328,1.48787594604
36,18.247066580000002,3.2260613709,-9.10987591558,1.48773823242
37,18.748367901399998,3.1917676849200003,-9.110504608180001,1.4188335205000002
38,19.24966889,3.20698204656,-9.09566147452,1.62474532466
39,19.7509707334,3.61886553042,-8.9405330658,1.5068894072399999
40,20.2522724,3.56876770934,-8.987385635399999,1.4781072600799998
41,20.7535730624,3.48124172054,-9.014182910099999,1.25893004148
42,21.24986083591837,3.3432242599591837,-9.098581443306122,1.201401672412245
43,21.7461496734,3.51590064704,-9.00502196042,1.42958117058
44,22.247451310000002,3.4887441192599997,-8.99810334774,1.47072461246
45,22.748751861800002,3.4704521576,-9.02529580078,1.4567137481399999
46,23.250052420000003,3.4284345337000004,-9.035139331,1.35232981576
47,23.751353378399997,3.49220791626,-9.01678450014,1.38854550468
48,24.25265418,3.5075090972200003,-9.01377276306,1.42806033324
49,24.753954769799996,3.54792205814,-8.9858468353,1.33061596988
50,25.25024225,3.4584998493061225,-9.043633463285715,1.3429338852653063
51,25.7465301576,3.4899176788,-9.039240802,1.2237621735
52,26.24783038,3.4677278229,-9.05407794796,1.24591311026
53,26.749131086400002,3.5144067534800003,-9.01695813906,1.22255268864
54,27.25043154,3.4396432250999998,-9.06549320982,1.2473680847200002
55,27.7517318586,3.45992904044,-9.040330535839999,1.1870794555800002
56,28.25303213,3.50356629642,-9.02742437438,1.29991780692
57,28.7543323416,3.51315834962,-9.025229937799999,1.29330455934
58,29.25061967,3.512684111367347,-9.030793836959184,1.2149805777959184
59,29.746906669999998,3.4802028808,-9.031271374520001,1.24564067694
60,30.24820611,3.47082637942,-9.0498447509,1.2755065704000002
61,30.749505669999998,3.48595092772,-9.02269121706,1.2928495056
62,31.25080567,3.4705180205599997,-9.0509584351,1.2259296660799999
63,31.75210466,3.4460169708799997,-9.05796386722,1.20617075496
64,32.25340438,3.47308368522,-9.06648714308,1.2970108520260002
65,32.74969032979592,3.270163944755102,-9.155386785408163,1.0224900475314287
66,33.24597669,3.08791664432,-9.11706995526,0.917196679702
67,33.747276207599995,3.1174891479199998,-9.24843078926,0.8961055389182
68,34.24857557,2.81324382937,-9.33823204648,1.0925001342960001
69,34.7498744324,2.8868128418100003,-8.708856839324,2.7445905944824
70,35.25117335,4.38390362541172,-8.16533110646,1.88200634762344
71,35.7524729676,4.0222407074062,-8.6734883881,0.870984777825
72,36.25377251,-3.6566559449329996,-7.158581652862,4.9364346312368
73,36.75005839020408,-3.0084866768612244,-0.6974425179624489,8.251951203857143
74,37.246344199999996,-9.14809144598,-1.419426287926,3.592409545882
75,37.74764269,-1.4791820251788,1.3546739410618,9.0076475005
76,38.2489412,-1.1396071747126,4.25042918706,8.93384796742
77,38.750239977599996,-1.340228979572,6.66207913512,7.00603387758
78,39.251538780000004,-0.6420388732860001,6.09968963012,7.69304822382
79,39.7528380308,-0.5114175018396,4.7554010926,8.5493186004
80,40.25413719,-0.5697811340539061,3.91934468082,9.10252619932
81,40.750422629183674,-0.5090913391166122,4.118071120938776,8.983632725408164
82,41.24670823,-1.25687032472,4.60796668398,8.41656266782
83,41.74800682,-7.35572768538,-0.05682483220406,7.39414379888
84,42.24930543000001,-8.1634031154016,-4.153649441497,2.0568307983562
85,42.75060439,-4.2813698457278,-8.629970883250799,1.252283862324
86,43.251903389999995,-0.3148043609522,-9.22284299928,2.95973220518
87,43.75320270500001,0.4164849151626,-9.05232958358,4.165211398299999
88,44.24948906367347,0.2545685810818163,-8.455671442734694,5.317111377265307
89,44.7457748768,-0.4220563293722,-8.26665839544,5.549796139500001
90,45.247073730000004,-0.04632267154659999,-8.7444887421,4.57668772892
91,45.748373095,-0.44058479916018,-9.04906636944,4.40352482296
92,46.24967246,-0.06747069394508,-9.05144642016,4.36095634462
93,46.750971815,0.209073230013,-8.41503584316,4.7646249115199995
94,47.25227143,-0.3420057952992,-9.055203607680001,4.04331388544
95,47.75357030999999,1.1264315734232,-8.69392389232,4.5400469238
96,48.249856089183666,0.7884807539836735,-7.975659428693878,5.2304752116530615
97,48.746142250000005,0.8371671020012,-7.93036172782,5.41243578188
98,49.2474416,1.4924055267458,-8.25213559592,5.38136339728
99,49.748740936800004,0.9729557281474,-7.21710096114,6.365479916320001
100,50.25004027,0.6592291260016,-7.7365687224999995,5.78929809266
101,50.7513389508,1.5512302001982,-7.480954275599999,6.09698026422
102,51.252637560000004,1.6695651214716,-7.445960046400001,5.96146407166
103,51.75393675,0.3398742278778,-7.785031942640001,6.211276583799999
104,52.25022301020408,2.469359837734694,-7.840466075491837,6.1757289341061234
105,52.746509079999996,0.40577917786344003,-6.8692094053,6.2059835907
106,53.247808109999994,2.1302112030386,-7.46228809212,5.63878009646
107,53.74910705,0.8527796356103999,-7.66331705024,6.7272805481199995
108,54.25040597,2.0952978057784,-6.97141387028,6.011873245199999
109,54.7517046316,1.4245576172144,-7.424994643920001,6.599182928459999
110,55.25300327,1.6746725005998,-7.12020445864,6.21960227052
111,55.7543023084,1.7822777343726,-7.18662134396,5.668622039780001
112,56.250588331632656,0.5153232776928571,-7.919055708285715,6.394106448367347
113,56.7468744316,2.058067227184,-7.23349187616,5.33145119012
114,57.24817353,0.94818823244146,-7.87631811232,6.975970395100001
115,57.74947221080001,1.3503539245626002,-7.32489779654,5.73691302794
116,58.25077083,1.8229032531136,-7.31108152768,5.53340821838
117,58.75206985,0.41320373841159996,-8.23786127942,6.393019647260001
118,59.25336888,1.7928607269034,-6.97081810904,5.7264497863
119,59.74965626795919,1.4679392413840817,-7.630422251081632,5.8629283857755095
120,60.24594381,0.588351516726,-8.053483694599999,6.372781732140001
121,60.747241108199994,1.926221402008,-7.23506660128,5.68316280204
122,61.248538280000005,1.56958802493518,-7.446950985559999,6.052223336759999
123,61.7498366816,0.9828142272996,-7.6533747252,6.06259077758
124,62.25113526,1.924652664153,-7.718710858360001,5.66781671448
125,62.752433579199995,1.4938275695462,-7.4062925356200005,6.10864101564
126,63.253732039999996,0.9352521332252001,-7.57812021792,5.78999264828
127,63.75001756306122,1.8953982949000001,-7.675903183387755,5.68125210199796
128,64.24630299,1.3003908233702,-7.615608261139999,6.429289224320001
129,64.74760090640001,0.8150281402845999,-7.442367516839999,5.6403159027
130,65.24889868999999,1.6750048095634,-7.94505517232,5.69669466246
131,65.7501966952,1.102484371919,-7.42582691334,6.41584418336
132,66.25149463,0.9810359252278,-7.4793256625,5.73167392266
133,66.75279378500001,1.8829553741254,-7.97319665224,5.603291894500001
134,67.25409302,0.9156997925102699,-7.42510242006,6.29262940984
135,67.75037708163265,1.2496503184161225,-7.799778236693878,5.169750468959184
136,68.24666087,1.8303338013258,-8.70236334224,4.44036920468
137,68.7479592148,1.0051896972898,-8.454903936900001,5.21324200742
138,69.24925765,1.352237008626,-7.8012791563,4.83568813472
139,69.750555185,2.038170602392,-8.330356933660001,5.12915586548
140,70.25185268,1.1414842712475801,-7.544452230959999,6.346717932100001
141,70.7531505186,1.140122103847,-7.63263984374,5.61902417904
142,71.24943537163264,1.639146479382245,-8.068102905734694,5.490402037938775
143,71.74572021,1.0944191436794,-7.50124009086,6.058249804659999
144,72.24701805,0.8523126068153999,-7.759147769239999,5.75486369938
145,72.7483161596,1.849679571543,-7.907363552880001,5.70752613834
146,73.24961433,1.541320806834,-7.30194452822,5.7392840973
147,73.7509119728,0.6428771301444001,-8.3106070039,5.808814507979999
148,74.25220954000001,1.1430470214183999,-7.79132785034,5.38298302918
149,74.7535068884,1.3894735748484799,-7.78211900024,5.391724850399999
150,75.24979133591837,0.26614654536938775,-8.237837695408164,6.274783153918367
151,75.7460759824,1.4133279693362,-7.1497260680600006,5.69610488894
152,76.24737379999999,1.4065919769064001,-7.850718347240001,5.6910064911
153,76.74867101720001,0.8601143829294,-7.67314561164,6.33067130124
154,77.24996825,0.69625612792312,-7.37444176924,5.6759807373
155,77.75126574,1.5214032257174,-7.84313811044,5.688431845139999
156,78.25256314,1.3909584869192,-7.341498275899999,6.4006687408200005
157,78.7538602904,0.7224336914674601,-7.628295876879999,6.08843603206
158,79.25014441755103,1.7569392831287756,-7.6127406529999995,5.899696823428571
159,79.7464285632,1.5336357879159999,-7.11994998774,5.703188159180001
160,80.2477257,0.510130178835,-7.8903768766799995,6.45843661196
161,80.74902273,1.7982315582184,-7.2951127348,6.02621043094
162,81.25031967,1.5809104797326001,-7.3267689057,5.73763153376
163,81.7516171548,0.5146986785914001,-8.08823243396,6.3568039581799995
164,82.25291471,1.61432100219994,-7.188603222519999,5.91924586486
165,82.7542117452,1.6419655151097998,-7.3934911559800005,5.7814903289999995
166,83.25049578061224,0.5720216991996326,-7.814918181816327,6.47707676789796
167,83.7467793446,1.3445879150316,-7.301603237939999,5.71914797054
168,84.24807572,1.5015275573672,-7.6548326935399995,5.60799810794
169,84.7493724004,0.28671976316922,-8.008921362119999,6.2733495025399995
170,85.2506689,1.322850118998,-7.396134658979999,5.816921649219999
171,85.751965805,1.5783687652492,-7.68990176708,5.621482067900001
172,86.25326271,0.5609644683742,-7.956458459379999,6.635656082200001
173,86.74954651530612,1.5274450901583674,-7.474287750899999,5.839167592461225
174,87.24583027,1.2543824981602,-7.1880403929800005,5.43779604488
175,87.7471269246,0.2648532348865,-8.27470266752,6.1461350464199995
176,88.24842362,1.6950151977432,-7.5735966247399995,5.9437109894
177,88.749720435,1.2310071075558,-7.29881304022,6.0335242217600005
178,89.25101749,0.6079996581894,-7.51749628612,5.8505896361800005
179,89.752313845,1.9135577362635998,-7.743942388739999,5.5474669830000005
180,90.2536102,0.245294906653,-7.78002934576,6.39803721312
181,90.74989363510203,1.7305329708122448,-7.327171232387755,5.896522811612245
182,91.24617717999999,1.1366283691352,-7.48426539002,5.91285116274
183,91.74747369999999,0.6926935363649599,-7.8138829469,5.93013422234
184,92.24877043000001,1.83769549255,-8.003260135,5.780475439419999
185,92.75006643,1.5662260162160002,-7.86686377252,5.567282775820001
186,93.25136241,2.223799584978,-7.43291617118,5.74768462828
187,93.75265885,1.892915661584,-7.965969680760001,6.118882717819999
188,94.25395543,1.6001065613038,-7.54898779894,5.70414317316
189,94.75023909326531,1.7815554405204084,-7.615242593142857,5.741607205081633
190,95.24652298000001,1.9040165771439999,-8.05263046856,6.1716509857
191,95.74781953600001,1.7152141936862,-7.77702359642,5.78943580632
192,96.24911621,1.8756595459679999,-7.56239392096,5.856077224760001
193,96.750413018,1.775418997224,-8.10868889466,5.94781246032
194,97.25170976,2.01105000008,-7.7512501920800005,5.96049408872
195,97.753006492,1.857017312654,-8.58830053714,6.3287642669399995
196,98.25430345000001,2.0607286926206,-7.4871244446,5.82257090144
197,98.75058659428572,1.8836462028155103,-7.7024530745102044,5.915612705795918
198,99.24686971999999,1.8683218048544001,-7.560900027620001,5.74835822756
199,99.74816616,1.7405145813258,-7.44721743152,5.6437437744
200,100.2494628,1.69123106687,-7.85646040638,5.56286097107
201,100.75075944,1.767736972022,-7.72503370982,5.963439962846
202,101.25205622,1.596070953348,-7.77611049488,5.74064327082
203,101.75335288000001,1.545107931512,-7.90154365536,5.73505090024
204,102.24963662244899,1.5907145410530612,-7.688852785102041,5.59751195477551
205,102.745920592,1.611946939158,-7.900349139379999,5.74494233092
206,103.24721772000001,1.5571009918379999,-7.765880767820001,5.7736017333400005
207,103.74851467799999,1.480211883508,-7.745325512739999,5.76047103884
208,104.24981174,1.627538516192,-7.70306539302,5.78893883974
209,104.751108742,1.74615485232,-7.949806292759999,5.88376365054
210,105.25240574,1.8061890106146001,-8.02152515254,6.15460443422
211,105.75370284,2.2431992431344,-7.3572964230774005,5.82807046512
212,106.24998694081631,0.8257593552132653,-8.121065219183674,6.460455210204081
213,106.74627095199999,0.9889903839414,-7.384210455480001,5.719109051619999
214,107.2475678,1.104684796149,-7.844173956160001,6.02159702454
215,107.74886528799999,1.36196976930294,-7.3289423857,5.70773570254
216,108.25016294,0.6955765410912801,-7.65203950208,6.439228555360001
217,108.751460088,0.424424404898,-7.555247781199999,5.8615857697000004
218,109.25275718,1.271366180417,-7.23671317762,6.09178007806
219,109.75405459400001,1.2608610259478,-7.30562986462,5.806081191980001
220,110.2503391877551,0.33334456154591835,-7.982367927142858,6.455637677285714
221,110.746623552,1.3942037384084,-7.48516651628,5.86737273568
222,111.24792068000001,1.142648849454,-7.29910044254,5.913348129240001
223,111.7492182,0.1829854797216,-7.9353254059000005,6.299709686259999
224,112.2505156,1.4515255370694,-7.41261239324,5.902944763120001
225,112.75181325199999,1.3354479217319801,-7.21180497418,6.00070646668
226,113.25311096,0.029826974473400006,-8.81540227674,6.68384387514
227,113.74939536938776,1.338055254839796,-7.059231477367347,6.127797994795919
228,114.24567956000001,1.2209270691114,-7.81348477444,5.81979267886
229,114.746977324,0.904922204598,-7.08131532902,6.43044482128
230,115.24827506,0.5891328918326,-8.01666625672,6.38033203114
231,115.749572792,1.370570883158,-6.81655490108,5.95850921638
232,116.25087044,1.279545172112614,-7.961056896520001,5.93300525202
233,116.75216794800001,1.0053932739338,-7.0333820067,6.34636167294
234,117.2534655,0.5133215423102,-8.05916288446,6.18812872008
235,117.7497501,1.1248404740789797,-6.774752645836735,6.083636767367346
236,118.24603486,0.9702283996222001,-8.06170459904,5.92184146732
237,118.74733257199999,1.3565749877203999,-6.877484198019999,5.964906912280001
238,119.24863028,0.5172224304255999,-8.49112261934,6.86816457832
239,119.749927964,1.1990814972062,-6.683760049159999,5.8409167511
240,120.25122554,1.3833632812634,-7.898843271,5.7747154175
241,120.75252294399999,1.53219877629,-7.0251012269,6.74585093088
242,121.25382026,0.03249442749900002,-8.38475381476,6.388699630900001
243,121.75010500612244,1.696932435304898,-6.863741062734694,5.855126243142857
244,122.2463897,1.156165740982,-7.753381759819999,5.7719551575
245,122.747687644,0.34510135804680003,-7.515861685260001,6.53679266968
246,123.24898572000001,1.8618672271708,-6.88763309322,6.21928193668
247,123.750283304,1.51865194707074,-7.189106176499999,5.76129732056
248,124.25158098,0.689157888766,-7.4876842803,6.60144322818
249,124.752878444,0.9487959686364,-7.20448220202,5.94560904248
250,125.25417568,1.3091925201391001,-7.70738540944,6.252533789006
251,125.75046054489796,1.631347391549796,-6.610315003793877,6.073983372306122
252,126.2467455,0.92539363404312,-7.606842489760001,6.8502198944199995
253,126.748042976,0.7218828369354,-6.98456851504,6.442168441820001
254,127.24934026000001,1.92694290161878,-7.3893447784,5.86997731938
255,127.75063817,0.24810905460784,-7.636606594800001,6.729699517799999
256,128.2519362,1.7654617034879998,-6.9974746764999995,6.15231719058
257,128.753233812,1.4083583038512,-6.936293902559999,6.32510886838
258,129.24951844081633,0.47292471122130614,-7.681554696204081,6.502071729346938
259,129.745803104,1.8239061677114001,-7.53235139462,5.9660834655
260,130.24710068000002,1.2424253631332,-7.1109357329,6.73826171266
261,130.748398456,0.7299211212365999,-7.08942546368,6.06951537784
262,131.2496965,1.5923466979902,-7.7175462798600005,6.007741836579999
263,131.75099434199998,1.0175869170557,-6.99099016116,6.889525158720001
264,132.25229216,0.8111062957866,-7.095736340319999,6.126495886300001
265,132.753589724,1.6463573822409001,-7.7097894105,6.0541273773399995
266,133.24987419591838,0.893186486677755,-7.042368584571428,6.7131419902040825
267,133.746158944,0.564060031032,-7.36607416994,6.07468263238
268,134.24745670000001,1.4850288665614,-7.53317168894,6.07910743102
269,134.748754348,1.1040770599684,-6.7618736114399995,6.59595264584
270,135.25005184,0.2169259003114,-7.900891012580001,6.311580001874001
271,135.751349436,1.2964150909080001,-7.42423123174,5.9770616364
272,136.25264694,1.280476235925,-7.04362071548,6.00954408878
273,136.75394446,0.017591418500730007,-8.058156976520001,6.61825327148
274,137.25022911632655,1.4118273551591838,-7.066783120346938,6.393043353142858
275,137.74651365600002,1.0139494812326,-7.21929839162,5.6472794219599995
276,138.24781142,0.3654260925074,-7.526639273,6.6474665222
277,138.749108804,0.48631170966248,-7.3335797423999995,6.0087148133
278,139.2504064,0.9420001006959999,-7.8024227785,6.199481112680001
279,139.751703784,1.2516791199036,-7.068927090360001,6.03106034548
280,140.25300117999998,-0.022100042766999985,-8.02899162614,6.58589057012
281,140.75429834,1.26783053284552,-7.01370692146,6.018806826740001
282,141.25058229591838,1.0490918715915103,-7.9545747027959175,5.833262525265305
283,141.74686643,0.65641198422468,-7.28508957814,6.341374044819999
284,142.24816348000002,0.36672239686779995,-7.357209603799999,6.22555090024
285,142.749460632,1.0799143066022001,-7.43584408262,6.15208068238
286,143.25075784,1.243940213037,-7.21484964302,5.90096288466
287,143.752054816,0.2538990142624,-7.85716094988,6.67544035034
288,144.25335178,0.857515786755,-7.0360374847900005,6.017702124124001
289,144.7496358510204,1.1155903219265306,-7.849300764346939,6.035510316183673
290,145.24591995999998,0.9120982817916401,-7.03632189338,6.49402959592
291,145.74721695,0.11716435543180001,-8.03267696254,6.6408802184
292,146.2485139,1.03615729981374,-6.908364981239999,6.00351462706
293,146.74981083,0.999133291678,-7.3377470764999995,5.97987279056
294,147.2511078,-0.21380638730792,-8.07053323976,6.408880664020001
295,147.75240498,1.155818463202,-7.0708281371999995,6.048208685380001
296,148.2537025,0.9828022521718001,-7.65306636636,5.86735477298
297,148.74998634897958,0.10876260247757143,-7.641233442795919,6.519747217999999
298,149.24626990000002,0.5062771911094,-7.1564770293399995,5.936052914419999
299,149.7475671,0.92887838741842,-7.883260674980001,5.98000152284
300,150.24886458,0.6544181305083999,-7.39228167128,6.4015878296
301,150.75016128,0.42407413330059995,-7.60938420392,6.023617822239999
302,151.25145762,1.0828990997824,-7.8877064301,5.866121337959999
303,151.75275462,0.8056666076765999,-7.1949560120000005,5.86526511838
304,152.2540517,-0.22768253174480002,-8.645221170580001,6.7632657164
305,152.75033565510205,1.2353046401346939,-6.959615161142858,5.843560498265306
306,153.2466197,1.13127250671,-7.58125170596,5.812990823400001
307,153.7479164,0.1506587035882,-7.92944862642,6.10746745604
308,154.2492129,1.2355726135062,-7.422961871160001,6.147593014520001
309,154.75050968,1.1374007629862,-7.51023039554,6.2236199157600005
310,155.25180624,-0.2019749908684,-7.64904273388,6.544145379640001
311,155.75310345,0.8349457214121,-7.501901715420001,6.335012274556
312,156.2493880244898,1.1183091579516327,-7.038045940755103,5.905155879489795
313,156.745672036,0.17741406553320005,-7.86149294128,6.5983476653399995
314,157.24696907999999,0.8206953552226,-7.1007808503000005,6.0577049376800005
315,157.748265848,1.0894913910024,-7.7438166507,5.917542407239999
316,158.24956248,0.642446026585,-7.29008020008,6.831371090679999
317,158.750859496,0.3481909332504,-7.28275742796,6.2342238648
318,159.25215662,1.2101584624904,-7.761878091460001,6.146859539739999
319,159.753453552,1.158470947211,-6.9461434206399995,5.9857016693
320,160.24973749591837,0.017299739327142866,-7.8558015318775505,6.62593150855102
321,160.746021514,1.46091700745962,-7.29356495366,6.34478994136
322,161.24731846,1.2202594573932,-7.10424165354,5.86340598452
323,161.74861546,0.1783421355774,-7.83146538394,6.819626513619999
324,162.24991248,0.9760423095726,-6.897395791600001,6.04924453124
325,162.751209504,1.3036001495380198,-7.51221826166,6.0926602478200005
326,163.25250638,1.1062355713,-7.08033037732,6.79589785768
327,163.753803516,0.35491794432379997,-7.42250382414,6.57329576114
328,164.25008774285715,1.5791396316816328,-6.932124369142858,6.458903335244898
329,164.746371698,1.35812276910132,-7.05364387208,6.042191198719999
330,165.24766830000002,0.34027239989106,-7.63101123042,6.827958187839999
331,165.74896563599998,1.03981868587592,-6.91863662106,6.2611887908799995
332,166.25026322000002,1.3259875945179598,-7.5777579710400005,6.08678346858
333,166.75156029599998,1.036130355902,-6.977715765279999,6.581390927139999
334,167.25285707999998,0.0658750122328,-7.5987862427,6.578289376820001
335,167.7541545,1.3226166045829002,-7.21541546638,6.257344784560001
336,168.25043934489796,1.2655692556534692,-7.195616230877551,5.94137444
337,168.746723404,0.2613115997592,-7.6996105773800005,6.6603457398
338,169.24802018,0.49601153865500003,-7.18164868472,6.0324135315600005
339,169.749317412,0.8981921997451999,-7.2872959899600005,6.076829168473999
340,170.25061473999997,1.182852246122,-7.2025631927,6.31732505486
341,170.751912012,-0.07490124210339999,-7.83560278034,6.77580065002
342,171.2532094,1.0116891815312001,-6.90681420588,6.2212368713
343,171.74949359387756,0.8536564449038775,-7.662336497285715,6.173709663857142
344,172.24577748,0.7057763305739999,-7.04663844006,6.42141260384
345,172.74707494400002,0.22430256043091998,-7.6910603577,6.47460598762
346,173.2483728,1.1966565399886,-6.92559714644,6.1998553345000005
347,173.74967008,1.1852143341132,-7.15743204328,6.1142273987
348,174.2509675,0.3811793335136,-7.64408504354,7.03529203488
349,174.75226493999998,0.5475882843395999,-6.92651324172,6.25413545838
350,175.25356238,1.0150901092486,-7.54937399586,6.3996388825
351,175.7498469346939,0.9684676937469388,-6.98051659410204,5.944841719632653
352,176.24613141999998,-0.0811642181194,-8.01820206266,6.65076266792
353,176.747428976,1.0544642303569,-6.9338659514400005,6.11878092954
354,177.24872662,1.0892578765856,-7.54110519126,6.302425039659999
355,177.750024204,0.6723418579242,-7.0623886873,6.63883247684
356,178.25132164,0.3564387817102,-7.49117202762,6.44945528874
357,178.75261945999998,1.1926598510802,-7.19797074298,6.26078463132
358,179.25391732,1.10451115722052,-6.84055898448,6.050480960060001
359,179.75020225714286,0.1580437952157347,-7.811041549632653,7.100304229163265
360,180.24648725999998,0.9256870239398001,-6.73903410632,6.110643850719999
361,180.747785328,1.10988797605,-7.7595639038,6.27481645204
362,181.24908354,0.7805847656675999,-6.9380033479600005,6.38047872622
363,181.750381476,0.12064012755760001,-7.70353840936,6.8171506622399995
364,182.25167924000002,1.1182106689356,-7.10027789604,6.281474606320001
365,182.75297753200002,1.0963531219568,-7.15067210072,6.0886485901
366,183.25427596,0.39094801941,-7.51658617884,6.8173033447
367,183.75056155918367,0.47142476923387755,-7.085616405142858,6.050445584653061
368,184.2468475,1.0500633819904,-7.72413557746,6.16628314814
369,184.748145918,0.8691226501224,-7.061541449,6.03623059384
370,185.24944434,-0.06621031496886,-8.00249372872,6.61506490172
371,185.750743028,1.0567424926928,-7.11859081436,6.1851469208
372,186.25204178,1.0767828185825998,-7.31588653552,5.93594214476
373,186.753340416,0.37210220942592004,-7.5386383207200005,6.75347607422
374,187.2496258265306,0.46504619671959185,-7.12265978144898,6.289730641918368
375,187.74591172,1.2097123900698,-7.70614898058,6.20087321772
376,188.2472106,0.8659881683348,-6.7677893097599995,6.34433189388
377,188.74850962600001,0.30537097775988004,-7.586915927300001,6.5103935670199995
378,189.24980888,1.3024295837202002,-7.18968098134,6.45875694584
379,189.751108004,1.1812745270173999,-7.11624668862,6.14001277774
380,190.25240738,-0.173845486417556,-7.89998988658,6.7580954681200005
381,190.753706528,1.211391897616,-6.74036034856,6.05622601312
382,191.2499924,1.1310785223534694,-7.205825612632653,6.093152693142857
383,191.74627852199998,0.10709030456140001,-7.647608716060001,7.065894396999999
384,192.24757822,1.126518392932,-6.9784612152,6.140419931
385,192.748877456,1.2438953063779998,-7.498836090039999,6.21786588132
386,193.25017674,0.36197127681720004,-7.2947654571,6.647577291899999
387,193.751476432,0.3936364288674,-7.25255024392,6.060668774460001
388,194.25277645999998,1.03759431150232,-7.769096081520001,6.15916095886
389,194.75407579,0.6238067870995999,-7.14252903448,6.64870594482
390,195.2503624,0.17020218521714284,-7.335318575469388,6.22244097967347
391,195.74664873999998,1.0360435363414,-7.7131993193,6.31632214054
392,196.24794860000003,1.0616163574312,-7.0604696777200004,6.20018764338
393,196.74924857999997,-0.06077960815247998,-7.714786019718,6.3067600251
394,197.2505485,0.9955677063028,-7.1885223909,5.978836944659999
395,197.751848588,0.9397008819467599,-7.09652669674,6.07192237252
396,198.2531483,0.02932102661988401,-7.9125248199,6.765238613899999
397,198.74943494081634,1.163701498771443,-7.354912523693877,6.14921875622449
398,199.24572214,1.01331779479316,-7.23101003738,6.02339029548
399,199.74702284,-0.11867321775659999,-7.9083814361,7.03175039972
400,200.2483227,1.2473201843522,-7.2064341433,6.6192771423600005
401,200.74962266,0.9482331389984,-7.125955499320001,5.80195577082
402,201.2509225,-0.11701466674560003,-8.266122510066,6.98353865666
403,201.75222244,1.004495141652,-7.03651648858,5.94817470704
404,202.25352289999998,1.11046876830638,-7.1058942169,5.817709011860001
405,202.74980997346938,-0.018048182894204078,-7.922700170469389,6.7662234434693875
406,203.24609776,1.4227763214572,-6.883717236513999,6.545696154999999
407,203.7473983,1.0701935210937998,-7.1098310305,5.770542096000001
408,204.24869876,-0.09373807070320002,-8.161681695514,6.700168927019999
409,204.7499994,1.3103600921684,-7.26873758228,5.89452626946
410,205.25130058,1.0937814697682,-7.18924389066,5.9292420776200006
411,205.75260112,-0.11052117005659999,-7.882033227419999,6.54298678888
412,206.2539019,1.3558804321462,-7.42042614434,6.24303454284
413,206.75018985306122,1.1158499861491837,-7.850156128632654,6.008679376775511
414,207.24647788,0.02464175722600002,-7.413043496919999,5.95186603078
415,207.74777853799998,1.2364318267585401,-7.63872918086,6.1932989686
416,208.24907876,1.0676967132702,-6.87291569838,5.9899677979
417,208.750379758,0.29266839298434,-7.876045678540001,6.439671633980801
418,209.25168086000002,1.5811380065874,-7.56779768352,5.80002478624
419,209.75298198000002,0.8299461182055999,-7.4796699462000005,6.004885775719999
420,210.25428344,0.5745891357648,-7.90497751476,6.4699985688799995
421,210.75057145714285,1.5659456401883671,-6.868381412979591,5.453010406510205
422,211.24685932,1.0762948333695999,-8.082364636680001,7.284233359140001
423,211.748160546,0.3298031707518,-7.1241712094388,5.54420975656
424,212.24946158,1.7706738647184,-7.86098399962,6.58401047978
425,212.750762856,0.816504071082,-6.49728981598,6.1071111969
426,213.25206432,0.91510403141,-7.17012265318,6.376649688700001
427,213.753365858,1.6143269897426,-7.5115775939,6.3918999755799994
428,214.2496542530612,0.9007747883499999,-7.027250023571428,6.7229786776326526
429,214.745942994,0.9043683563267599,-7.2863379822,6.321504364
430,215.24724473999999,1.6120966277892002,-7.717061288374,6.4875989684399995
431,215.7485464,1.0307864684676,-7.088766833639999,6.64359257804
432,216.24984818000001,0.437626950128,-7.4050680814600005,6.56262295534
433,216.751149808,1.5031292266568,-7.66491572562,6.9041617218999995
434,217.25245126000002,1.40854990543038,-5.98904272162,5.886616717639999
435,217.75375310200002,0.6304170410586,-7.52920194368,7.22475903614
436,218.25004191020406,1.5883470154369388,-7.02692009744898,6.382870629755102
437,218.746330896,1.6272092010076,-7.361442801120001,7.13392193316
438,219.24763298000002,0.14719191287199998,-7.0998707428,6.627896218759999
439,219.74893500599998,1.7283957824263998,-6.87182895826,6.45824501032
440,220.25023688000002,1.276144244386,-6.8361281982,6.14083905942
441,220.751539186,0.26147026974676,-7.382677642779999,6.32300125118
442,221.25284196,1.200892730682,-7.26479478144,5.93766955262
443,221.754144164,0.76699602356554,-7.2518107819,6.49698744514
444,222.25043339387753,0.5797841285820408,-7.590504240755102,6.646664923836735
445,222.746722712,1.2830658507936,-8.16590890522,7.24957143848
446,223.24802532,1.2968851135464001,-7.2300460417600005,6.07953254698
447,223.74932774,0.23405328369880002,-7.772625741340001,7.0662746063199995
448,224.25062982,1.12301567689978,-6.7490123565680005,6.194017474318
449,224.751932464,1.3925661438156,-7.363152246099999,6.25939851384
450,225.25323541999998,0.57106546323714,-7.51789146438,6.8770381256799995
451,225.7495250591837,0.6896067717200001,-6.895624760204082,6.097466172183673
452,226.24581488,1.3320110687476001,-7.44634624338,6.26952046514
453,226.74711767199997,1.1991443664702,-6.99559758,6.87655912166
454,227.24842064,0.6210734710634,-7.21356830746,6.43435768438
455,227.74972346400003,1.466739898678,-7.34266884148,6.2730531189
456,228.25102632,1.1519894256560002,-6.78923371592,6.44145891716
457,228.752329236,0.3164120178146,-7.317619931,6.78099185488
458,229.25363202,1.4864778533732,-7.11734839772,6.42020910644
459,229.7499221795918,1.3355074917591838,-6.8935199535102045,6.248175220122449
460,230.2462125,0.31019095455718,-7.58207798762,6.882414944480001
461,230.747515848,1.5879039367568,-6.9611063049799995,6.55374641418
462,231.2488193,1.5365427429424,-6.736076257280001,6.14206351326
463,231.75012264600002,0.16289126585320002,-7.55954085382,7.13443087466
464,232.25142604,1.3352114135688,-6.660962457299999,6.4413691040200005
465,232.752729472,1.5584871093422001,-7.15332757866,6.209692877139999
466,233.25403286,0.653148770162,-7.25630443726,7.058077652040001
467,233.75032344285717,0.7127321515653061,-6.949702101673469,6.25243065667347
468,234.24661408,1.19313885497596,-7.63906448358,6.19539461062
469,234.747918054,0.80571450807884,-7.03030440664,6.77863874812
470,235.24922208,0.206181243947,-7.2437635160800005,6.2869681824
471,235.75052592,1.2075389099136,-7.4170102478199995,6.25632690134
472,236.25182974,0.80693596802348,-6.9077572449,6.56097937318
473,236.753133546,0.333994454935,-7.313096337839999,6.50782790222
474,237.24942429591837,1.3171874252524491,-7.462083537795919,6.4864582793877545
475,237.74571514,1.0492400939328,-6.69147799982,6.52678448186
476,238.24701916,0.33412618103999997,-7.39500001836,6.69480408322
477,238.74832327000001,1.45661794739496,-7.13262263484,6.4968826629
478,239.24962784,1.22918090514,-6.65171768186,6.29735059202
479,239.75093202600002,0.2438878326272,-7.5380156158,6.9136070801
480,240.25223622000001,1.4404336029756002,-6.90479939568,6.55899150698
481,240.753540632,1.29032575376434,-6.904700601219999,6.26729908452
482,241.2498318632653,0.17886580175495917,-7.677668899204082,7.065661982367347
483,241.746123408,1.3279574981256559,-6.743569674620001,6.33829345102
484,242.24742792,1.34138457635802,-7.125308844,6.29326408998
485,242.74873265999997,0.5290568207231999,-7.143882220399999,6.98966391906
486,243.25003748,0.6838379516354,-6.79435905768,6.348882431020001
487,243.75134231,1.3124796844100002,-7.524040676759999,6.302377139300001
488,244.25264682,1.2165501709094,-6.780575720220001,6.583103366086
489,244.753952006,0.5062831787058,-7.378827648940001,6.871493655399999
490,245.25024479591838,1.4685624351906124,-7.169790344163266,6.419996487367347
491,245.74653683600002,1.35025213627454,-6.84834579166,6.0624141449
492,246.24784152,0.391870101913,-7.63375652168,6.95887294916
493,246.74914680400002,1.44033181454634,-6.7855633484,6.28107942812
494,247.25045196,1.4799634002872941,-7.110866876239999,6.30454463196
495,247.75175747199998,0.63449456175704,-7.1502948852,7.10770245668
496,248.25306354,0.6325545959438,-6.947867834559999,6.30283518674
497,248.74935612040815,1.4229929118608162,-7.464139466571429,6.334896922224489
498,249.24564900000001,1.1044423003988,-6.83226922336,6.67102153928
499,249.74695467599997,0.39605240474700004,-7.40376878366,6.50019078368
500,250.24826032,1.4150284332615,-7.14632514044,6.43545639956
501,250.74956621599998,1.2870056579281999,-6.8444808289,6.20270540766
502,251.25087236,0.21309686282034002,-7.62301485896,7.0582183593800005
503,251.75217831199998,1.5835240448042,-6.934907785,6.52903580014
504,252.25348402,1.4500885254031999,-6.7233916351400005,6.18149750984
505,252.74977713061224,0.06789452686097959,-7.545732038918367,7.171504127346938
506,253.24607061999998,1.662745303304,-6.47506702884,6.28524676212
507,253.74737675,1.4646023437792,-6.99993256534,6.370368749960001
508,254.24868242,0.1036474639858,-7.4684283233999995,7.182010931280001
509,254.74998881,1.321628659058,-6.793463919120001,6.35394490354
510,255.25129564,1.3688943695207998,-7.22461832888,6.2844055115
511,255.752602004,0.14804513855546003,-7.4723741181,7.022496643099999
512,256.25390826,1.2798235931682,-6.82301546632,6.16986370238
513,256.75020176530614,1.4579131519442856,-7.070696411040816,6.244017539571429
514,257.24649561999996,0.1318248687838,-7.4544623658,6.91943895264
515,257.74780224,1.3769685791052,-6.81472271116,6.435064215080001
516,258.24910914,1.2535741790739998,-7.024789874340001,6.20425618278
517,258.75041588,0.12710368653678,-7.49321976928,7.0207392974200005
518,259.25172216,1.1858579955678001,-6.8634853088600005,6.3160467131999996
519,259.75302902,1.410022842429,-7.10969032292,6.31058606874
520,260.254336,0.36131863405349995,-7.369543954419999,7.13443087466
521,260.7506299530612,1.3417638692840816,-6.871060535612245,6.313228716183673
522,261.2469243,1.3333492858908,-6.92540554506,6.166229260300001
523,261.74823144,-0.01563947753479999,-7.67450478516,7.06392449336
524,262.24953866,1.4947376770486,-6.77424089352,6.41112000728
525,262.75084595,1.2319052399024,-6.93424316706,6.2826212218399995
526,263.25215305999996,-0.025222549431199993,-7.63240932308,6.876457333299999
527,263.75346053,1.3775643402588,-6.93033629152,6.582082488979999
528,264.2497552285714,0.9709451947585714,-6.834166848285714,6.07067800089796
529,264.7460497,0.19963984680372002,-7.5667348937400005,6.91192757264
530,265.24735734,1.419716683966,-7.09325150762,6.30507153626
531,265.748664984,0.9297735260526,-6.98772994074,6.20572013858
532,266.24997206,-0.1298579590228,-7.74833724978,6.67788925778
533,266.75127989199996,1.209975842301228,-7.3230326750999994,6.21602471012
534,267.25258808,0.8130462615818,-6.9448141846,6.51089652092
535,267.75389599000005,0.134390533485,-7.3713941070399995,6.48645534666
536,268.2501907877551,1.5160198694161222,-7.504081916040817,6.183647162020407
537,268.746485728,0.5860762481706999,-6.87923256228,6.7673522186
538,269.24779438,0.591563836656,-7.09386523134,6.293958645599999
539,269.749102512,1.3785552795426,-7.53277651068,6.24352851564
540,270.25041058,0.7534312317184001,-7.02798722536,7.029582907080001
541,270.751718736,0.6085565002214,-7.0631940124599994,6.16584605716
542,271.25302662,1.4964860412813998,-7.505108047579999,6.271756814520001
543,271.754334816,0.7762318176418,-7.0197393768200005,6.99480422966
544,272.2506302081633,0.7087608181446367,-6.842130899306122,6.299298500489796
545,272.746925492,1.4056609131039999,-7.5221845367,6.2439925507
546,273.2482341,0.8352241424668,-7.041111932400001,6.8765351715
547,273.749542484,0.6635820739448001,-7.054048031600001,6.27424164732
548,274.25085036,1.5934514007856,-7.43585007022,6.260931326280001
549,274.752158976,1.1150642120786,-6.8204947083,6.80734605098
550,275.2534682,0.6401138763056999,-7.1395711852199994,6.61163104246
551,275.7497638061225,1.5978934899383672,-7.381007238938776,6.37762541477551
552,276.246059,1.11602820738452,-6.7191644256,6.5123934082
553,276.74736788,0.42128094172044,-7.32458644408,6.48531172484
554,277.2486768,1.440906619268,-7.3146980071600005,6.4661216309
555,277.749985834,1.294145809904,-6.864952258260001,6.435109121739999
556,278.2512949,0.29769494018382003,-7.55353534244,6.78907504584
557,278.752604146,1.4812147979732,-7.0040819366200004,6.4760459930000005
558,279.25391362,1.1719878387324,-6.82838929124,6.178602529879999
559,279.7502099591837,0.12945324956857143,-7.54767799222449,6.870168513061224
560,280.24650694,1.44388841864346,-6.83229017944,6.6103137817599995
561,280.74781652999997,1.3200030395104199,-6.84476224364,6.18357518916
562,281.24912584000003,0.215461944597,-7.68904554758,7.18069067688
563,281.75043560800003,1.445238610846042,-6.65539403686,6.47236065672
564,282.2517454,1.343860427818,-6.97741040044,6.22783215628
565,282.753055394,0.1564217193264,-7.52397780756,6.983808096300001
566,283.24935234285715,1.506949954942857,-6.741387335326531,6.36209139144898
567,283.745649468,1.376600344858,-6.965444284059999,6.24509725336
568,284.24696004000003,0.2277783325202,-7.620688696319999,6.83134115294
569,284.74827045999996,1.5004947052363802,-6.8590455414600005,6.37989194644
570,285.2495814,1.345042968778,-7.22178621832,6.3350092804199996
571,285.75089194,0.10309960324760001,-7.52488791504,6.76586131892
572,286.25220254,1.5235377868886,-6.77881238712,6.52238662724
573,286.753513178,1.45939317625254,-6.9259084992,6.2263831696
574,287.2498102408163,0.0708760818112245,-7.4724059497959185,7.024946650306122
575,287.746108068,1.6056420501567998,-6.8763705138599995,6.50403479004
576,288.24741964000003,1.2561338562648,-6.80975304572,6.10063865664
577,288.748730668,0.2505429931666,-7.65491352538,7.197488745099999
578,289.25004196000003,1.49395031436092,-6.786021395940001,6.43124116512
579,289.751353088,1.206925186208,-6.93829374388,6.23387059934
580,290.25266358,0.09012458496939998,-7.53919216904,7.000791778620001
581,290.753974962,1.4822745941034001,-6.90506584168,6.449820529139999
582,291.2502730612245,1.3548753793265307,-6.8422225454081635,6.146802352571429
583,291.746571544,0.111086993414,-7.8608911926,6.767891098
584,292.24788337999996,1.3152968261859999,-6.9332821656,6.3407962463
585,292.749195136,1.2955648589809998,-7.17491568606,6.30279926146
586,293.25050738000004,0.06326743469639999,-7.416213903819999,6.81227380372
587,293.751819296,1.091218798848,-6.93330611568,6.31046931156
588,294.25313174,1.1320149627862,-7.2183613402799995,6.27568165286
589,294.7494306673469,0.19289377329014287,-7.645201721265305,6.665654007306122
590,295.24572944,1.128185925287,-7.322466851960001,5.904004559400001
591,295.747041728,1.300729119888,-7.54526054978,6.01997140502
592,296.24835438,0.35553765564927997,-7.526280020100001,6.8682274475
593,296.749666676,1.0034383392378,-6.84139125364,6.106856726119999
594,297.25097854,1.3838333038332002,-7.52998930652,6.25001602478
595,297.752291084,0.5259133575588,-7.2503019196,6.798628179920001
596,298.25360414,1.06777455146032,-7.02885541996,6.1254510589
597,298.74990372653065,1.4681011495867349,-7.342989358612245,6.2295618859183675
598,299.24620286000004,0.39713315734860005,-7.2305070831,6.9785959350799995
599,299.747515738,0.9429191894091999,-6.960082434119999,6.16360671392
600,300.24882952,1.5037968383482,-7.5609060150000005,6.51496805424
601,300.75014252,0.6410419463664,-7.2464878509799995,6.67853291924
602,301.2514546,0.5106840271576,-6.95006526474,5.995419460959999
603,301.752767728,1.47572421571056,-7.610821215900001,6.122807556180001
604,302.25408112,0.1493803619738,-7.8863801878599995,6.682014678860001
605,302.75038128367345,1.0609569937985714,-7.482517575734694,6.588261883755102
606,303.24668188,1.30109735406132,-6.93724592284,5.87197716064
607,303.747995348,-0.0416763336102,-7.9012382905,6.73290285646
608,304.24930832,1.3006063751224202,-7.494848382600001,5.980432626340001
609,304.75062196,0.5721372344687999,-6.97614403382,6.3284020202199995
610,305.25193574,0.5765949646248,-7.64845894778,6.417059655739999
611,305.75324957,-0.3511098632892,-7.29195430288,6.3908341919
612,306.24955077959186,-0.3217360484832449,-7.103933416959183,6.557835360163264
613,306.7458516,-0.1205982147274,-6.78724884344,7.41509722572
614,307.24716578,-0.6062033935794,-7.439113284359999,6.624644979859999
615,307.74847978,0.50127459414488,-7.0292865236,6.423508245860001
616,308.24979376,0.3178999236904,-7.24223968514,6.763119021600001
617,308.75110788999996,0.3075175140726,-7.3485126892,6.530646450860001
618,309.2524216,0.8619705230729999,-7.294328366119999,6.45461356198
619,309.753735858,0.8711464416776,-6.70648279712,6.23645123288
620,310.25003699387753,-0.06622962171982247,-7.473612624367346,6.865292937612245
621,310.74633828000003,0.42696911313440006,-7.13276932988,6.24899814148
622,311.24765344,1.0907038696240001,-7.4202046051,6.41492509464
623,311.74896804,-0.6990822509606,-7.23976083982,6.799086227499999
624,312.25028232,-0.628423187254,-7.56023241578,6.13721060482
625,312.75159702,-0.6786168091152,-7.80773672766,6.241672375499999
626,313.2529119,-0.733381924441,-7.34862645254,6.39172334292
627,313.75422682,-0.22200932921160002,-8.2696851011694,7.906435483180001
628,314.2505284408163,-0.35502193216673467,-6.243559308504082,5.852413517232857
629,314.74683047999997,1.1300510467264,-7.74402322078,6.2262334807399995
630,315.24814632,-0.4701303588967,-7.55974143676,6.42300229792
631,315.74946172,1.338564440874,-7.20989794016,5.74143662104
632,316.2507768,-0.8893785278574,-7.355467227079999,6.97124023122
633,316.7520925,-0.7302743865636,-8.28958172602,5.504661996459999
634,317.25340872,-0.766588870238,-8.447434469600001,4.5075345335999994
635,317.7497115530612,-0.8825188741773469,-8.71897390255102,4.371145869653061
636,318.24601391199997,-0.7500213225784801,-8.69087622976,4.58151369328
637,318.74733005999997,-1.194261520402,-8.57994790632,4.73798031922
638,319.24864694,-0.6336742675638,-8.6364015105,4.63962584842
639,319.7499634,-1.072762179596,-8.07064101564,5.04006712648
640,320.25127938,-1.87986879276,-6.8549919708200004,7.311584481800001
641,320.75259600000004,-3.28064685972,-4.7556525696,7.43567942506
642,321.25391246,-2.095504376228,-6.60543991698,7.1830767152199995
643,321.7502159734694,-0.8793815207816327,-8.69630980832653,4.59132270344898
644,322.24652025,0.34673296507,-8.76565772096,3.15740514222
645,322.74783724,1.0373578033506,-9.68301905854,3.1968451263600004
646,323.249154772,-1.154914343274,-9.64618665126,3.5788657105980004
647,323.75047190000004,-2.0479752136096,-9.11894705208,2.806774282898
648,324.251788024,-1.3095966796968,-9.50293155158,1.9504709746994002
649,324.75310536,-2.929381320241,-9.028445251519999,2.825446453858
650,325.2494100122449,-1.6361588147881634,-8.69084464257143,2.470743694703469
651,325.7457143,-2.779147732522,-8.90260493782,2.75374256286
652,326.24703237,-2.786105264254958,-8.84418442424,2.4418152191526
653,326.74835002,-2.852845477282,-9.277063247400001,2.72495442806
654,327.249667248,-3.4991744293199996,-9.0783844027,2.9593819336
655,327.75098491999995,-3.2625794310800003,-9.1362271179,2.6783233978166
656,328.25230552200003,-3.8303816803400004,-8.9222231414,2.5923781219106004
657,328.7536234,-3.66953216856,-9.2014854125,2.7596133544640002
658,329.24992513469385,-4.195707634122449,-7.508019645755102,3.3675624240816324
659,329.74622984,-5.19130662228,-7.307195608560001,4.2804327941
660,330.24754741600003,-4.67948196714,-6.95731918022,5.21132000432
661,330.7488654,-3.610237472572,-7.13540684518,5.378154071080001
662,331.250184302,-0.978134957922,-7.9974881378600005,5.68098632818
663,331.75150242,0.4559608246074,-7.069486926260001,6.8160309906
664,332.252819952,0.311939318816,-6.58447451472,7.461776156659999
665,332.7541381,-2.5490043182799997,-6.44274324646,7.112456570419999
666,333.25044372040816,-2.9149006777265303,-8.75234837732653,3.135569345918367
667,333.74674872,-2.21793777465468,-9.55626564298,1.63157711796
668,334.24806685999994,-3.2328512512020002,-8.11924194942,2.9764973419799996
669,334.74938504,-3.608084948706,-9.0713789704,2.8885761749519996
670,335.250702644,-2.6960136108393997,-9.16790125106,3.0698731658679996
671,335.75202083999994,-2.133740863022,-9.32122142006,3.2638308288860003
672,336.25333894199997,-2.0040535492128,-9.10495714418,3.52779790646
673,336.74964393265304,-5.7094424592857145,-7.644682392653061,3.4630180046748977
674,337.24594961199995,-6.58862089244,-2.227853155566,5.253424447566
675,337.74726772,-3.1403166778153597,4.31522943424,7.418531084920001
676,338.24858578,-2.7849676299966,5.1875434479199996,8.11583802804
677,338.58446888235295,-1.6658857727058825,5.611750892235294,6.612745783235294
