Time_interval,Time,Acceleration_x,Acceleration_y,Acceleration_z
0,0.2500510916963,-0.5663050327346,-0.270304806889,0.10342555814672
1,0.7513652917,0.33281677658304,-0.41824945539344,-0.5623067611157
2,1.25267973104,0.028972465395700003,0.5609810114062,-0.5374366780258
3,1.75399436,-0.5796404741546,-0.47726654710509997,-0.056952715967999994
4,2.250295982142857,-0.07799076790528571,-0.2230351079982449,-0.1854798212477347
5,2.746597855,-0.18932032687482,0.026734148,-0.903202531188
6,3.24791230346,-1.3846730008124002,-1.8893760192351998,1.664362460404
7,3.7447439246530614,-0.9030697785877551,-0.6699172096710204,-0.017601424810204075
8,4.245706632,-0.43421934697540004,-0.11907628538960001,0.61318915429552
9,4.74701035848,0.0705979276794,0.3420010393925,-0.2238681731398
10,5.248313695,-0.18802371807180002,-0.10878386288002,-0.05676483299578
11,5.74961439852,0.54536819994,1.167030040622,-0.3793705975508
12,6.250915327,-0.1851034563448,-0.18141212029296,-0.1948336309198
13,6.75221711014,-0.08158980190519999,-0.2924466804448,0.5086545770886
14,7.2535189,-0.2670824203654,-0.09999456261074,0.1161523333696
15,7.749807350530611,-0.677098206737551,-1.1032054176638777,-0.05473340580008163
16,8.246095812,-0.14178118508436,0.3222200808592,0.2578712049072
17,8.74739828848,0.46500017889920003,1.2881228399343998,-0.4012891699414
18,9.248700509999999,0.6545628729894,1.2642036100308,-2.1488690570322
19,9.75000181,-0.23922715330668,-0.2774943111576,0.794330982586
20,10.251303190000002,0.1863317676291,0.17930809980380003,0.46416606933869603
21,10.7526054628,-0.1693321058028,1.1171283112576,-0.6811093497480001
22,11.253907739999999,0.3705172072154,-0.31337305569519996,-0.015343108214000001
23,11.750196427346939,-0.08306006724489798,0.3140758718846939,-1.0031139059746939
24,12.2464851,0.148469315255,0.26414192802324005,-0.6473672063574201
25,12.747786915199999,0.26556678813901,0.1166994480788,-1.4915900605499999
26,13.24908864,-0.028091240142878,-0.03189107161172,0.00199487832328
27,13.7503905176,-0.032441169311402,-0.016013334879408,-0.054587671713526006
28,14.251692310000001,0.06649302898746,-0.03426247932062,0.06337788599504
29,14.75299399,0.017555055951059998,-0.034074297285972,0.06232690330106
30,15.25429562,0.016793501240725997,0.051867226098880004,0.0013474114762079992
31,15.750584303265306,-0.015752468476955103,0.03108795481508163,0.043988765569163264
32,16.24687302,0.002732703078558,-0.0487527734580092,-0.0099570005207
33,16.7481746968,-0.03886522886316,-0.04352122789124,0.0006677332238900001
34,17.24947614,0.023382399827494,0.021061573400625998,-0.019221776307464
35,17.7507780376,-0.015497826961906,-0.0032358928303296004,0.00031414091573600013
36,18.2520796,-0.01419159800744,-0.00199152525484,-0.0094995290929024
37,18.7533808896,0.004014115984845999,-0.012296058181650001,0.00451498817622
38,19.2496689022449,0.05695770954591837,-0.0028627531865102035,-0.032110815298447344
39,19.7459576934,-0.03054751178218,0.02655368347664,-0.06303266861714
40,20.2472594,-0.055828099028812,0.01286273010091,0.018844902859136002
41,20.748560081599997,-0.04618584206366,-0.0090739681742,0.03718609259188
42,21.24986082,0.061058108042812,-0.015159574979606,-0.013438217006660001
43,21.7511626534,0.007909585004356,0.01870150955406,-0.024985721251202003
44,22.25246431,0.0022144766712212,-0.010841356245688001,0.0156225874711044
45,22.7537648618,-0.012268498148756399,0.010372997214997199,0.009366629314802
46,23.250052420000003,-0.004888342759669388,-0.004483609935446939,-0.01316551856032653
47,23.7463403784,0.0006334475615392,0.010501478696496001,-0.009439108772032
48,24.24764114,-0.005918767461362,0.0016232122574144,-0.0059703104033124
49,24.7489417698,-0.00485976561914,-0.011374320713501999,-0.0005323310286799999
50,25.25024225,-0.01923321449182,0.002946454276902,0.018054471095062002
51,25.7515431602,-0.0020145281593019998,-0.0111773610303816,-0.0076756672725236
52,26.252843379999998,0.001224762825284,0.0005190689584230001,0.0049566701357896
53,26.7541440864,-0.003455295739872,-0.003563779629912,-0.0038781627799559996
54,27.25043154,0.005309296619587347,0.002128195549687755,0.010911555756448978
55,27.7467188468,0.0022354760022559998,0.0032794854796310002,-0.0165789444179748
56,28.24801913,0.012732045911478,0.0007386694571780001,0.005133284891692001
57,28.7493193708,-0.012789698251763,0.000550508657654,-0.004962267824239999
58,29.250619670000003,-0.003046707715654,-0.00034640767632019995,0.0018549440988480002
59,29.751919670000003,0.004392100889183999,-0.0022253441905079998,0.006894685031442
60,30.25321911,0.0049551003425433995,0.0009947451296992,-0.00381670535639
61,30.749505669999998,-0.002383087790280612,-0.005662758036508163,0.0024441146170183672
62,31.24579267,-0.012235466260215998,-0.0019273147177512001,0.005344417784024
63,31.747091660000002,-0.0002493947932159999,-0.0018500611091982,0.005316956958259999
64,32.24839136,0.055070641406878,-0.04048279412007,-0.0604653721482
65,32.7496903316,-0.08596160239101999,0.027391801843600003,0.14359676166031998
66,33.250989669999996,-0.01065796161212,-0.0274256514092,-0.0195638162722
67,33.752289167600004,0.0050107819797,-0.01080726177474,0.012049432840106001
68,34.25358859,0.03692256728335,0.1374861148597,0.09164486724400399
69,34.74987443612245,0.33318230094591833,0.45086521155955506,-0.19092631182040817
70,35.24616041,-0.2640280879317,-0.698361162476,-0.68790898422194
71,35.7474599676,0.46213169648754,-0.234297340504,1.6085681547402002
72,36.24875953,1.936540290994,-0.4893267175532,1.445587092237
73,36.7500583824,0.18472458957020002,1.449567854737,-0.34240454479599997
74,37.25135716,-0.4927816227108,-0.9967739167361,0.3840543796522
75,37.75265568,0.5240119012134801,-0.99155016919644,2.5043262193755997
76,38.25395422,0.4935002120622,0.2319416694488,-0.2681257898026
77,38.75024001020408,0.23513159018367347,0.003005022096387757,0.21886376164469387
78,39.2465258,-0.307044895288,-0.18705656943378,-0.10902552829704
79,39.747825055,-0.29462878133464,0.010029497836620011,-0.09405957570342
80,40.24912421,-0.12104975089314002,-0.04869200825112,0.1009493904586
81,40.750422640000004,0.18547869412200002,0.014197476952259997,0.0001358428097599995
82,41.25172121,-0.060562117550199995,0.3441023155816658,0.1161713488114
83,41.753019789999996,0.30949972222326,1.7679093572758,-2.676587637086
84,42.25431845,-0.3594486892602,0.7300860236706199,0.38888375054679997
85,42.75060439530613,0.6569395425988693,0.3817119748262653,-2.196802302429184
86,43.24689039,0.394893427348,-0.23739590997225998,-0.074621515087
87,43.748189725,0.496689444186,0.07743332343446001,-0.32899757564
88,44.249489059999995,0.05782451800800001,0.460159592624,0.07493326344544
89,44.750787885,-0.202513056923056,-0.41578012581060003,0.10677071933188
90,45.25208673,-0.20495132347838,-0.33179196746266,0.20137649849494
91,45.753386115000005,-0.17096442348722,0.48750751458560004,-0.04647857475518001
92,46.24967247959184,0.1978520954689796,-0.05235205449734694,-0.4151972930574286
93,46.7459588024,-0.054378656301,0.2368727853124,0.37968034939760004
94,47.24725845,-0.056199287548220005,0.1255811593713,-0.531245400042
95,47.748557309999995,0.1525566114901,0.2663120234041,0.19666641118
96,48.24985609,0.34577805102594,-0.7655062279844,-0.16265577765854
97,48.751155255,0.1005866797662,0.6848893737634001,0.0500311883624
98,49.25245456,0.0175125051702,-0.35220941922640003,0.1572458631916
99,49.753753905,0.0261609115812,-0.31264996314,-0.4410726703496
100,50.25004025938775,0.11038844538224489,0.4948713979657143,0.16672185156244895
101,50.7463259708,0.05775795845377,0.19595335155660001,0.2018771617706
102,51.24762458,-0.006321068023660003,-0.3927890065914,-0.0505719954235
103,51.748923780000005,0.0438057072859,0.009735803083599996,-0.14512543669223998
104,52.250223,-0.0950146144302,0.1003365863144,0.17791563481259998
105,52.75152204,0.016849504892779997,-0.10946843849119998,-0.28957101132186003
106,53.252821110000006,0.10085334194866,0.19441334697480003,0.3160640918223056
107,53.754120050000004,-0.01926405405332,-0.40014048467796004,-0.32728471994720004
108,54.25040599489796,0.055167616020612244,0.6200964136408164,0.15836855624346938
109,54.746691631599994,0.11612603862349999,-0.8134675874472,-0.13956005470496
110,55.24799027,0.051093906993432005,0.7689065777702,0.10030125944410001
111,55.74928928839999,0.004361911111220001,-0.6465717245528001,-0.19151055972765998
112,56.25058835,0.011788019069719997,0.5315357013726,0.023934522025799997
113,56.7518874116,0.10306949663320002,-0.01950243136640001,0.33362999137300003
114,57.25318653,-0.10054057933958001,-0.6235699298162,-0.3198813251846
115,57.74947219204081,0.03103877135979592,0.7410777878414285,0.24483697727938775
116,58.24575787,0.08068773471782001,-0.424671032918,-0.152469236867
117,58.747056885,-0.08358536290088,0.034732841363200005,-0.1243428250398
118,59.24835588,0.16610042485228,0.48116983476180003,0.26294727619474
119,59.7496563176,-0.1207309941548,-0.7252130847838001,-0.13591536929662001
120,60.25095677,0.089432636644,0.175864549141,-0.0459886353788
121,60.7522540116,0.0412007732692,0.409824480442,0.105535903255088
122,61.25355128,-0.05354274412232,-0.593312955827,-0.1958431006588
123,61.74983669714286,0.04607115541530612,0.32890695817285714,0.009297730299836732
124,62.24612228,-0.034596142139999994,0.24681968504899998,0.0457539340572
125,62.747420598400005,-0.0679731717742,-0.530902007474,-0.25929693548872
126,63.24871908,0.0738750122468,0.5660075105776,0.100206308291856
127,63.7500175702,0.0797113797676,0.272200738486,0.229084157454
128,64.25131599000001,0.023539899565718,-0.7325396667917999,-0.1401369866173
129,64.7526139064,0.0965194528988,0.46269884872920003,0.1389400422524
130,65.25391169000001,-0.042774525398500005,0.007426240203400005,0.1376377546742
131,65.75019667612246,0.02751447260040817,-0.6134285378779591,-0.30565137667285713
132,66.24648164999999,0.09999388832270001,0.6746525350292001,0.21696120907266
133,66.74778078499999,-0.0256097308405,-0.2401961816348,0.08306007579
134,67.24908008,-0.1358465612378,-0.47342310742094,-0.2856853483634
135,67.75037706500001,-0.10128441564960002,0.6472045178374001,0.0953102983472
136,68.25167383,-0.04353287428980001,-0.0712254029548,0.0605744849236
137,68.75297219480001,0.02537291618644,-0.497052424675,-0.1951386501469
138,69.25427061,0.12625108584820002,0.5207879739082,0.0771473938614
139,69.75055520142857,0.1240634742532653,-0.1381718318179592,0.07513842513938775
140,70.2468397,0.0534048164284,-0.32218134298470197,-0.21321323174460002
141,70.7481375604,0.072535070176,0.3897161737084,0.3164819661468
142,71.24943539,-0.08953295637304,-0.003161374863800002,0.058766569329800004
143,71.75073320999999,-0.0014615737796000003,-0.5987819870932,-0.300669501214294
144,72.25203103,0.061527023678640005,0.5329861739884,0.006901334117400002
145,72.7533291364,0.11140438761169999,0.1983740548808,0.16285363458
146,73.24961431367348,-0.04746628359163265,-0.64698682354,-0.18466664044832654
147,73.74589899280001,-0.17816930966948,0.3903208587438,0.1379868414298
148,74.24719658,0.1422937466592,0.2781684577938,0.029101952781199997
149,74.7484939376,0.05865465684242801,-0.4106655546954,-0.11183069467380001
150,75.2497913,0.0587788804668,-0.058852287853199986,-0.15225194007239998
151,75.7510889424,0.1547947073756,0.6329194482908,0.2122775460264
152,76.25238680000001,-0.08095768120284001,-0.2669746354596,0.11873744135636001
153,76.7536839772,0.0428200181546,-0.5624230924670001,-0.30392403192992
154,77.24996830346939,0.10859907276208164,0.6344379470122449,0.16136700028959186
155,77.74625274,0.024372356208416,0.0064348098634000065,0.1326150362214
156,78.24755018,-0.00045138429366000017,-0.6934192790322,-0.27551175195062
157,78.7488473304,0.023345259404600006,0.456952290359,0.0882087653084
158,79.2501444,0.06835183334812,0.3008284531176,0.16998383085462
159,79.7514415224,0.021241544224304004,-0.6314341600626,-0.1418666084398
160,80.25273864,0.027385907252000005,0.15001191045999998,0.0075187541272400005
161,80.75403567000001,0.1140579255618,0.432069215487,0.21871039734136002
162,81.25031967857143,-0.07875002774569388,-0.5783071823822449,-0.12297236668285715
163,81.7466041764,-0.006409628873900001,-0.030169182115799994,-0.1305892463006
164,82.24790173,0.18312322074130002,0.5398666958922,0.2556882816968
165,82.74919874359999,-0.0712816682807,-0.42989138503200003,-0.07738882892139999
166,83.25049577,-0.059564500750696,-0.2219777056332,-0.1415902467245
167,83.75179230719999,0.160778241044858,0.6144270519430001,0.17900344677940003
168,84.2530887,-0.0639221629981,-0.311915677854,0.00014218654719999613
169,84.74937236,0.017938531960102037,-0.2548429006416327,-0.15988702707714283
170,85.24565593999999,0.12057053225119999,0.559770028146,0.2278170087186
171,85.746952805,0.000458491927739999,-0.44863184273850004,-0.1267701660092
172,86.24824975,0.011637892722400001,-0.12390629964579998,-0.1665784923614
173,86.74954651,0.07464618410032,0.5541281065704,0.32580012583733997
174,87.25084321,-0.2225386309718,-0.4432290046876,-0.1244824423625
175,87.7521398846,0.20010668894839997,0.075446260825,-0.18343914330146
176,88.25343658,0.1022161959852,0.34622986122,0.3379768908759
177,88.74972040040817,-0.04367280818150204,-0.7544089134230613,-0.31952693342310207
178,89.24600453,0.12527475400396,0.6648227089658001,0.1545621483024
179,89.747300865,0.03812319523204,-0.2913055656654,0.02227646653142
180,90.24859724,-0.12522770855612,-0.10066704103880002,-0.2617364152228
181,90.74989364,0.10388550141939999,0.4573526741442,0.2037752188924
182,91.25119014,-0.20718349977750003,-0.6888639269008,-0.41170092104239997
183,91.75248666499999,0.003666100279400001,0.6621358274436,-0.16845745088800002
184,92.25378337000001,-0.2714029746546,0.09174025908280001,-0.145140124072794
185,92.75006643612245,-0.03407815533095306,0.24799069700014287,-0.2509067501
186,93.24634945,-0.057468703159399996,0.24196262168160002,-0.0979157375797766
187,93.74764587,-0.07113280631088,0.31332358881739997,-0.08631692526814
188,94.24894245,0.0682384387926,0.28131422191559996,0.06852381965992001
189,94.750239074,0.15937180639924,-0.030227738440179997,0.1940376948714
190,95.25153596,0.0121387676291,-0.137609157432872,0.235191140773
191,95.752832496,0.11244470499546001,-0.052501132136440004,0.21895757675199998
192,96.25412919,0.0075464627718,-0.3787276048978,0.3121712194314
193,96.75041302591836,-0.046217567671020414,-0.10219011861577551,0.12278732656530612
194,97.24669675999999,0.05606031566632,-0.18231263261466002,0.386654306354
195,97.74799355200001,-0.05790316773538,-0.5313590809662,0.444836652278
196,98.24929046999999,-0.05536996409734,-0.31958205416700003,0.2337616699964
197,98.75058659,-0.0525045332377,-0.3813302031924,0.14162858873006
198,99.25188265999999,0.008999849949922398,-0.28060675031266,-0.059665052640076
199,99.75317912,0.015039827635000003,-0.02326345993188,-0.01743784135072
200,100.24946280816326,-0.0032432177512530616,-0.0015496067894285725,0.059176663190285715
201,100.745746496,-0.007746856096659992,-0.06358290914392001,0.08192591659106001
202,101.24704322,-0.0105812831670422,-0.015847217001844,0.03110253289868
203,101.748339942,-0.002043283247279999,-0.062557239629,0.05154210534738
204,102.24963666,-0.001045980341794,-0.07031754568113,0.038178236954166
205,102.75093360000001,-0.0023746373133602004,-0.09182126875938999,0.002889526472540002
206,103.25223068,-0.04116794943854,-0.027341644166719997,-0.06950034861706
207,103.75352766,-0.03459380009884,0.14368284938878,-0.107877303531
208,104.24981173469388,0.08023964830616326,0.13693595624575305,0.0847510326462449
209,104.74609576200001,-0.014770389180959758,-0.1905136131482,0.12316132012344
210,105.24739276,-0.14992284089212,-0.19804623319224,-0.23122659039416
211,105.7486899,-0.06248915041676001,0.21108158792960002,-0.006508457692999998
212,106.24998697999999,0.0706119330586,-0.12361330775439999,0.030715124904000003
213,106.751283912,0.0987170035328,0.416265667734,0.1709364480496
214,107.25258078,0.07942198935154,0.2412111407656,0.15969160970239998
215,107.75387826800001,0.026073547493400004,-0.2796437315382,-0.048630372431999996
216,108.25016292040817,-0.057486076706408165,-0.5662795546267346,-0.2994948725197755
217,108.74644708800001,0.07562085949126,0.4287984604764,0.1462882643774
218,109.24774422,0.058653697143879996,0.36539404959000005,0.1983366195824
219,109.74904163400001,-0.007549082207607999,-0.6627591535478,-0.2196257953306
220,110.25033922,0.027303418106400003,0.308815931341,0.02519384556619999
221,110.75163654600001,0.022585395195498,0.27966575652000003,0.23976666022
222,111.25293364,0.024688748795739998,-0.7000519676848,-0.26084534398538
223,111.75423116,-0.004332386776,0.3157939178098,-0.03495283842579999
224,112.25051560204082,0.08811275503522449,0.4457381753320408,0.15871986624897957
225,112.746800264,-0.1141410815639,-0.48097066181388004,-0.087840491601168
226,113.24809800000001,0.03891622685840001,0.10453466044200001,0.030261352844060004
227,113.7493954,0.1374847089522,0.34133490133759997,0.15042392364114002
228,114.25069251999999,-0.014299189078400004,-0.189285578438,0.061359435387400005
229,114.75199035199999,0.01673900159068,-0.55900208426388,-0.30352388403012
230,115.25328802,-0.05811795435940001,0.20097293330479998,-0.023322003495415994
231,115.74957277142857,0.1636025746697959,0.6029939849463265,0.13178662104653063
232,116.24585744,0.0742637171352,-0.152549500782,0.11711683753848
233,116.74715496799999,-0.0286838836698,-0.7167533993662001,-0.232777847310588
234,117.24845254,0.0267272074516,0.31105689864319996,0.059755386933999996
235,117.74975009600001,0.1259695264728,0.4897001646292,0.19252408988320002
236,118.25104784,0.09582464643010001,-0.171086734206,0.285168632968
237,118.752345572,0.0964111245394,-0.63644389878614,-0.21054215192800002
238,119.25364327999999,-0.149651438297,-0.21301744102040002,0.2878243919796
239,119.74992794285716,0.21527380531187756,0.33373323494306123,0.1339666109697959
240,120.24621256,-0.008349058342179994,-0.12812968345957998,0.1769288343272
241,120.747509944,0.09793226640580001,-0.8702532000827801,-0.18628863503013998
242,121.24880730000001,-0.120073242171586,0.3026559227688,0.13325098753321998
243,121.75010501599999,0.0638182441364,0.3808511825242,0.22052582412479999
244,122.25140268,0.19455353308,-0.68946672723378,-0.1625142624938
245,122.752700616,-0.05778457248428001,-0.0758484626186,-0.17037894706648
246,123.25399868000001,0.1673560418416,0.6666691595856,0.13332212379106
247,123.75028331020408,0.0900181989534694,-0.551664677832653,0.01517169007428571
248,124.24656798,-0.0878681399673,-0.355619884538,-0.198183089349
249,124.74786549599999,0.057897506954000005,0.5705588037042,0.11498451063140001
250,125.2491627,0.04698644306832,0.2114029872,0.1201818249714
251,125.750460542,0.12402824025639,-0.2906115610434,-0.20244740730462
252,126.2517585,-0.06176673627280001,-0.4985309680102,0.008067243356359997
253,126.753055924,-0.014759997911919998,0.7375889111889999,0.037693215982200004
254,127.25435324,0.0295731415392,-0.23897753969100002,-0.0784856247488
255,127.75063817142856,-0.028556296980204083,-0.11060002977816327,-0.03762635234489796
256,128.24692328,0.0839439989612,0.42608414291400004,0.223737446447632
257,128.74822079199998,-0.06238362014658,-0.665399195346,-0.3199459740124
258,129.24951844,0.09728635933214001,0.5415459717012,0.0820372520012
259,129.750816098,0.0560489692926,0.1283291924288,0.23416560330023997
260,130.25211358,-0.008311436029600001,-0.7872849108764,-0.24071309399358
261,130.753411436,0.0773560238272,0.6567325461694,0.11961586475920001
262,131.2496965,-0.04330538236475511,-0.020809018362653076,0.1558292894855102
263,131.745981356,-0.015302335027779999,-0.6049735142706,-0.3189936252588
264,132.24727918,0.1645630185404,0.5978069218322,0.184113593712
265,132.74857675200002,-0.13159075105402,0.008881709150000012,0.0828813630338
266,133.24987422,-0.0012237821869999976,-0.5644951599038,-0.2632750089418
267,133.75117188800002,0.1195361602332,0.511387530350336,0.1451528113352
268,134.2524697,0.016849530642800006,0.14776793334799998,0.168583790044
269,134.75376734600002,4.880081843999767e-05,-0.7208521847196,-0.2831851504016
270,135.25005184693876,-0.022173585437122452,0.5916246742142857,0.06718388093795918
271,135.746336476,0.1198324314488,0.20150988741999998,0.22450332011278
272,136.24763398,-0.003932735252400005,-0.6118178982362,-0.23422494843739997
273,136.74893147999998,-0.042253170309800005,0.11974214729419998,-0.0471779801054
274,137.25022914,0.15094657439734,0.586264523993,0.18337962061472
275,137.751526636,-0.021188033856799997,-0.35777012158239996,-0.002915873396000004
276,138.25282438,-0.0079209186154,-0.44619670611000006,-0.266687465161
277,138.754121804,0.0661345176376,0.5774812005150001,0.1487476782958
278,139.25040639183672,-0.019366613378163266,0.14463732016938777,0.13810925113408162
279,139.746690804,0.002206815108199999,-0.498057091614,-0.15860997952194
280,140.24798822,0.11043149893326801,-0.044785717873800014,-0.0279367062397
281,140.74928536,0.07608567892755999,0.5290192783162,0.19575631803503998
282,141.25058224,-0.1153052669522,-0.142365573218,0.06366892747939999
283,141.751879408,0.070149591883,-0.626969176665,-0.2732200890784
284,142.25317646,0.09537769941360001,0.45604154418032006,0.046656784271340006
285,142.7494606346939,0.06184774034540816,0.353118779382449,0.16635807143734693
286,143.24574484000001,-0.03056936440784,-0.4142605395516,-0.0944764656222
287,143.74704187999998,0.05907419461579999,-0.2819835492744,-0.11327514062978
288,144.2483388,0.006701986246080005,0.6062461495504,0.1750222502538
289,144.74963586,0.048771189533279996,-0.09040083322200002,0.08337289609660001
290,145.25093292,0.0216290485598,-0.55716578963424,-0.24519840911506002
291,145.752229928,0.0283281846328,0.3822755351754,0.08716183047316
292,146.25352686,0.03913952675674,0.39983414735780004,0.12127059553479999
293,146.7498108632653,-0.04113643798755102,-0.5587142894348571,-0.09033865556634695
294,147.24609482,0.0217729369534,-0.028773921419000023,-0.0723046270632
295,147.74739202,0.15497343266997998,0.5124112942037999,0.2047084228306
296,148.24868954,-0.083140994351056,-0.33635072190140003,0.0297186595194
297,148.74998632,-0.025569095496,-0.46486664980080605,-0.2901650202328
298,149.25128286,0.0800816002126,0.6708889440794,0.10426181919263999
299,149.75258006,-0.05247024444624,0.03793840231,0.130204266340972
300,150.25387754,0.044469750220220004,-0.5571935210542001,-0.3021513816714
301,150.75016125918367,0.014994712866040814,0.4003324718640816,0.19852649452159182
302,151.24644464,-0.0678197924056,0.0727949967618,-0.0015408165720000066
303,151.747741612,-0.14923050189624,-0.6191784966043999,-0.34930650271179997
304,152.24903876,-0.08157366232338,0.7634288790356,-0.2861009337842
305,152.75033564,0.1294665066778,0.88386224413,0.211904760894
306,153.25163264,0.1481804985526,-0.7153313148683399,0.12454782075880001
307,153.75292937,0.034147987285,-0.07446917913227999,0.26489080962556
308,154.25422588,0.09845536500180002,0.16454141937279998,0.22764614626299998
309,154.7505096653061,-0.17737760755857143,-0.6151374690712245,-0.05312368137285715
310,155.24679328,0.03632768332846001,0.03550313960260001,-0.166120694574
311,155.74809045199999,0.083746712219,0.41334361019379995,0.2344306097492
312,156.24938803999999,-0.0506851406102,-0.3018346555632,-0.03167104233000001
313,156.750684996,-0.07215391416644,-0.3775335035056,-0.30080226847446
314,157.25198204,0.11489264242219999,0.601673220097,0.0589233155506
315,157.753278828,-0.17592250068839999,-0.031271864228000004,-0.0576728041526
316,158.24956249795918,-0.02106170990157551,-0.363544384217551,-0.5194860997188367
317,158.74584653600002,0.060419107397180004,0.7233216819696,0.04563648707944
318,159.24714364,0.004920062888934,0.45047927364740004,0.129273260592
319,159.748440592,0.0486211764436,-0.5826803494014,-0.2138285127978
320,160.24973749999998,-0.004872149081599999,0.25094605978615997,-0.03157723964044
321,160.751034492,0.12525953313796,0.4656603747162,0.1517805527102
322,161.2523314,-0.0360150849508,-0.3252300846,-0.16528833135620002
323,161.75362842,-0.0732409217252,-0.24491246147600002,-0.1515578362274
324,162.2499124979592,0.2045636914924694,0.6869933997408163,0.1095192047742857
325,162.746196528,-0.016873975663839996,-0.08500366757999998,0.0599585956558
326,163.2474934,-0.0194699692557,-0.6055640759054,-0.281178208366
327,163.74879053200002,0.0785246550668,0.45307449656318,0.060037124458799995
328,164.25008775999999,0.09924055490018001,0.41697977909739997,0.18948270191140001
329,164.75138468400002,-0.06627792540926,-0.45730017297719994,-0.13645597747648
330,165.25268128,-0.0051298199379399955,-0.315918493252,-0.09803473823480001
331,165.753978628,0.10508741598646001,0.5792442287728,0.1452508649576
332,166.25026325510203,-0.008483661880612246,-0.0183973766510204,0.12591818993536733
333,166.746547296,-0.039932116833,-0.5798827408664,-0.2513035253134
334,167.24784412,0.06508201873296,0.36748095510300005,-0.0254583661276
335,167.7491415,0.10730842419022,0.44288257607,0.1642418027268
336,168.25043938,-0.06224435011144,-0.2993640883916,0.075054896803
337,168.75173636399998,0.04512427118567999,-0.528299239409,-0.23067080839860002
338,169.25303314,0.053865408719119996,0.49873651505868005,0.1243799756462
339,169.75433041200003,0.08429509929674,0.2157994063424,0.15694878802954
340,170.25061472040818,-0.04689839235067347,-0.5645724782271428,-0.2604754922940816
341,170.746899052,0.0186716798906,0.08917549065640001,-0.0268829715976
342,171.24819642,0.1549797128138,0.5538519339744,0.18427653461959997
343,171.74949357000003,-0.0547746863252,-0.20711313662240002,0.08635187564966
344,172.25079046,-0.011629251073920002,-0.54304577673414,-0.222013639662
345,172.75208793599998,0.058689054851,0.2736504950028,0.03482761256120001
346,173.25338576,0.12852816108517,0.4692367368132,0.1356012444676
347,173.74967008163267,-0.022958884399102042,-0.4329413451653061,-0.03056174683081632
348,174.24595452000003,-0.014404744951440002,-0.38646499447764,-0.1871979357654
349,174.74725196,0.0526825873342,0.4883436168984,0.14574006332704
350,175.2485494,0.0266154090664,0.23907330011199998,0.0897694368282
351,175.749846916,-0.07909786878018,-0.5346896092273999,-0.12153616614500001
352,176.25114438,0.07652950996412,0.034143376169999996,-0.111936252877814
353,176.75244195399998,0.15447809871502,0.54102433718358,0.17359324013112
354,177.25373958,-0.018684476971504004,-0.263895672574,0.0792269789464
355,177.75002423265303,-0.056897293105918366,-0.5810324991585878,-0.3275945836107551
356,178.24630865999998,0.05984157409128,0.5027275266166,0.036403429339
357,178.74760648,0.15052578692886,0.3756378388628,0.22409747890174
358,179.24890434,-0.035481329235022,-0.5701987528368,-0.13248182677634
359,179.75020226,0.0006060854020200024,-0.1314994508874,-0.1128255962496
360,180.25150026,0.12046753426500001,0.58811675347486,0.21128730174998
361,180.752798288,-0.03560532018164,-0.09948917323479999,0.10435202237220001
362,181.2540965,0.001021823978179999,-0.6174271855108,-0.19782491405
363,181.75038148571429,0.06510893110391837,0.30301604651938774,-0.030730570434285717
364,182.24666625999998,0.0877956745769,0.42820371531072,0.18135245019884
365,182.747964552,-0.062054797610859996,-0.38088631892400004,-0.002096374255799991
366,183.24926299999998,-0.019570898044560005,-0.3969299809416,-0.2514419740816
367,183.750561548,0.0572407274294,0.5617001040549,0.10106921944399999
368,184.25186046,0.03683946449246,0.1800971299762,0.1835388145552
369,184.753158856,-0.0020441347382000002,-0.5515346874629801,-0.1406659372854
370,185.24944436938776,0.02990043600408163,0.12239589110614287,-0.058688843532653065
371,185.745730044,0.1395223394131,0.4487430136026,0.1844610238828
372,186.24702876,-0.013398348168428,-0.38288295745,-0.011972290288826005
373,186.74832744799997,-0.0384431558812,-0.40552217757290004,-0.2831420042324
374,187.24962582,0.09385487339779999,0.5785262351686,0.11890953912980001
375,187.75092468,0.030429497615120003,0.13902941772072,0.15116988952142
376,188.2522236,-0.004205829993799997,-0.7040033913925999,-0.226231496408
377,188.753522632,0.07519028006978799,0.4071236664582,-0.027057280948000004
378,189.24980886122447,0.09091939609714286,0.4094410565020408,0.23986770265408164
379,189.746095024,-0.0660252650801,-0.5611616599962,-0.116515229496
380,190.24739436,0.016544265511159995,-0.020444631562799995,-0.04173941171981999
381,190.748693548,0.14353655885446,0.5179376208348,0.17337770648519998
382,191.2499924,-0.025170774033779996,-0.449268202178,-0.05500916422634
383,191.75129148200003,-0.0696551333482,-0.23912056309494,-0.22751347075880002
384,192.25259119999998,0.12988941022383002,0.6019818272086,0.199884417583
385,192.75389045600002,-0.00013576634399999898,-0.2008200587056,0.025515278946600006
386,193.25017670816328,-0.10141130749516326,-0.5015243907485715,-0.21669541010755103
387,193.74646342,0.10405694377890001,0.6778016366374,0.1493441152196
388,194.24776348,0.02466429289796,0.0022229738477999874,0.1218904535504
389,194.74906278999998,-0.054707144125399995,-0.6259386089284,-0.2583744062126
390,195.2503624,0.12831935414499399,0.45130438680479995,0.1001585420602
391,195.75166174400002,0.0520011336376,0.2536933383764,0.1751181569106
392,196.25296160000002,-0.10611537597221501,-0.6668312109218,-0.20976402545556
393,196.754261578,0.022090045956099997,0.20136560926956001,0.12659468683609998
394,197.2505485,0.039678799448571424,0.38588187884285713,0.10187469247714286
395,197.74683558,-0.0661002044766,-0.629497102553,-0.29838353449962
396,198.24813524,-0.007044601587800004,0.24592581627434001,-0.0725147859768
397,198.7494349,-0.0224344224293,0.478157240162,0.06365448843308
398,199.25073506,-0.1195796360972,-0.4954517444996,-0.303811899374
399,199.75203580000002,-0.14069195835280002,0.4229747509936,-0.4148297563594
400,200.25333569999998,0.1129118869088,0.962734288542,-0.0108599816568
401,200.74962265918367,-0.08747343958936735,-0.2401666980244898,-0.20297610344646938
402,201.2459095,-0.013696322064799999,0.2591645582436,0.1272811717178
403,201.74720942,0.2372891095966,0.335015278888,0.25910624008432
404,202.24850986,-0.030935534500000004,-0.628952411712,-0.2358231750908
405,202.74980997999998,-0.077336660346976,-0.0018902043380000012,-0.078969635589
406,203.25111076000002,0.12673536761468798,0.576428929374622,0.217187397538
407,203.75241129999998,-0.1682683329258,-0.5178778701416,-0.1306610899378
408,204.25371174,0.04396241853080401,0.06187531156260001,-0.13106729652978
409,204.74999939183675,0.17246859683897958,0.5268940293112245,0.20661179863193876
410,205.24628752,-0.0832925818062,-0.5926791957398,-0.0479929273394
411,205.747588058,-0.0302049934302,0.0803402182796,-0.10677821541600001
412,206.2488889,0.13533729024128,0.454340359188,0.18365643199352
413,206.75018985999998,-0.21050420627474,-0.5719221769832,-0.1330402187998
414,207.25149087999998,0.1020665521522,0.20667561803250004,0.018251775493220004
415,207.75279156,0.09952682342074,0.31174698058199996,0.16314360200934
416,208.25409178,-0.085047808871718,-0.5888782893469999,-0.31432658387364
417,208.7503797265306,0.03902115231614285,0.32405446573510205,0.0011550276411428544
418,209.24666784000001,0.10643025850200001,0.297634190473,0.1932697021218
419,209.74796895,-0.11125244366642001,-0.7329590858432,-0.018289177566340003
420,210.24927042,0.0883787172278,0.37463622423399995,0.013451142044620003
421,210.75057144599998,0.037326052638320006,0.10786493827999998,0.006407938870680001
422,211.25187234,-0.1194626612402,-0.5753197870388,-0.17168240332133997
423,211.75317353999998,0.13961360860792,0.5829134526396,0.15927338994839998
424,212.24946158571427,0.10103554437446939,0.03706931316183674,0.08129362434148163
425,212.745749836,0.014179664644060001,-0.6561300534612,-0.27608403602980003
426,213.24705128000002,0.011375616798411998,0.6904465513028001,0.27427906740526004
427,213.748352858,0.03978734997964,-0.0636038870924,0.1407939653454
428,214.24965424,0.057527182100400004,-0.6137383561772,-0.12106213568966
429,214.750955994,0.07965681729704,0.506479555842,0.33231789681964
430,215.25225773999998,0.09580687963956,-0.0777190506468,0.42037162752266
431,215.75355942,-0.05697459757280001,-0.877874437297,0.08914704764986
432,216.24984814489795,0.06949505160306123,0.18027513867183675,0.2820661193952449
433,216.74613680800002,0.07960861875996,-0.10935301177170398,0.2879558505502
434,217.24743827999998,-0.039112551993599996,-0.979230388566,-0.22096628453846
435,217.748740102,-0.09667761386818001,0.4577421354366,0.017146641760399994
436,218.25004192,0.016557856739719996,0.35582509844,0.0493146517832
437,218.75134389800002,-0.11185937851439999,-0.4957478475562,-0.173287718443
438,219.25264596,-0.041774816308838,0.1493096468814,-0.0406585448192
439,219.753948026,0.15799682677908,0.574132888038,0.1857459921313
440,220.2502368734694,0.006701808862734692,-0.8506561217836734,-0.13888945837081634
441,220.74652613199999,-0.0686644442408,0.45279005975000003,0.057737499025800006
442,221.24782894,-0.001113733961740002,-0.025580300967200004,0.0644491198062
443,221.749131148,-0.28206819414524,-0.5160510256072,-0.6006496708122
444,222.2504334,-0.17944680019804,0.6065946361748,-0.158179475478
445,222.751735736,-0.25555667946174,0.8888328702,-0.2234615612314
446,223.25303832,0.0011295655015799988,0.17136638969899998,-0.171294587369
447,223.75434075,0.0369629629298,0.08184567473110597,-0.0775953167602
448,224.25062980816327,0.3244837770458979,0.7404629275665306,0.22624176776004082
449,224.746919444,-0.02985223329306,-0.4162537713306,0.1400622072444
450,225.24822242,-0.035834305152914,-0.49005964095259996,-0.22497392431440003
451,225.74952505599998,0.09659549070720001,0.63044587315528,0.126442804228
452,226.2508279,-0.0555294783842,-0.141115108584624,0.1298107200842
453,226.752130712,0.0697021846068,-0.498468759331,-0.3048098704208
454,227.25343366,0.037284509056700006,0.45794774984779996,0.1411829094208
455,227.7497234734694,0.09254711725489796,0.18169200145510206,0.20026296157061224
456,228.24601328,0.0018564615416599966,-0.8401294250268001,-0.15884521800664
457,228.74731622399997,-0.004012603214229996,0.41067443565440004,-0.023338996627000008
458,229.24861898,0.0810593642324,0.45549387870060004,0.1124247667644
459,229.749922172,-0.02742416354352,-0.71343254125,-0.1071505125262
460,230.25122552000002,0.01458962981434,0.2188997725298,-0.0843968096744
461,230.75252885199998,0.16445895376,0.470505275694,0.20016435101233998
462,231.25383232000001,-0.0396929031141222,-0.5033409358424,-0.0765961062112
463,231.75012265918366,0.03130979842967347,-0.13615462051734695,-0.12865878368408165
464,232.24641297999997,0.10852402657360001,0.53045779251062,0.21955728333779997
465,232.747716438,-0.0506060095482,-0.23876388715799998,-0.0828073985102
466,233.24901979999999,-0.040320341302180006,-0.5011137988496001,-0.1592689911676
467,233.750323446,0.081448866424372,0.71306768151914,0.1107805883148
468,234.25162716,-0.07650352041562,0.0018345990901999932,0.1435588967124
469,234.75293111399998,0.06459633849140001,-0.6590540040454,-0.2135361041194
470,235.25423510000002,0.08171709035059999,0.5208851759942,0.10557733751580001
471,235.75052594693878,-0.014388727268142857,0.19451266249265306,0.10261865736265305
472,236.24681668000002,-0.04277226673763799,-0.6069229196604,-0.2613969764526
473,236.74812050600002,0.1721068535214,0.48440189885,0.0827934446936
474,237.24942427999997,0.058216071942800006,0.1321613948244,0.22852780338630002
475,237.75072818,-0.05278042747376,-0.8039115969244,-0.25071659417676
476,238.2520322,0.06953383081146,0.51893079921816,-0.05958623777868
477,238.75333633,0.12171880878116,0.301149859322,0.25799813599932003
478,239.24962785714285,-0.06883172496330613,-0.7567925932010203,-0.2701266699192714
479,239.745919008,-0.004189029222000003,0.3255894711954,-0.007539566346599997
480,240.24722318,0.13854038530074,0.49517569397739997,0.20254555745468
481,240.74852759599997,-0.04344017623399999,-0.613406418645,-0.112806958558
482,241.24983186,-0.0002675567758299985,-0.044215867120800015,-0.07656358387492
483,241.75113644599998,0.138857355809,0.6067814835822,0.17106120973959998
484,242.25244095999997,-0.0630190326906,-0.292343510367,0.010097442194599997
485,242.75374567999998,-0.0154177289444,-0.46846058282119996,-0.24924088688510002
486,243.25003749795917,0.09816467154837552,0.6407842470014286,0.15076566674040817
487,243.74632924000002,-0.026780151687502203,-0.04007840794640002,0.11440100360374
488,244.24763378,0.044303926194000004,-0.6565987666312,-0.28980166068392
489,244.748938908,0.009969604388999999,0.4498689326158,0.1260178149869
490,245.2502448,0.079252337378028,0.2941713223174,0.1676919320992
491,245.751549896,-0.06072390023942,-0.50886216232694,-0.1538955760032
492,246.25285456,0.0057305513758,-0.128803098894,-0.09158388973038001
493,246.754159864,0.14041518408828002,0.5977587290817801,0.19483625935838
494,247.25045193877554,0.009539219872448983,-0.2527521708193061,-0.007121164350204075
495,247.746744472,-0.0725936746964,-0.46229367827620005,-0.18313380521066003
496,248.24805049999998,0.13539862957663998,0.5971036393816,0.13854096822919998
497,248.749356136,0.011447364509000003,0.05642406841180001,0.10346126835984
498,249.25066203999998,-0.0993888331198,-0.6324057451924,-0.21030121057662002
499,249.751967776,0.1257632340858,0.30632556720914,0.06634119217420001
500,250.25327338,0.07961110632426,0.3877212634052,0.12429325523716
501,250.7495662,-0.10802884535991837,-0.5649917265526531,-0.19277170631624488
502,251.24585932000002,0.044450947645599995,0.06193502068508,-0.013195452451000001
503,251.74716526,0.162116462157,0.5201565640612,0.17056455683142002
504,252.24847094,-0.04837317614606,-0.4473719697044,-0.11714808680479999
505,252.749777088,-0.013954684480999997,-0.18742254794379998,-0.07255450232128
506,253.25108366,0.14184852095302,0.639735087035482,0.168278743649
507,253.752389796,-0.024395855681402002,-0.4144523010668,-0.0555977030126
508,254.25369544,-0.05588327648028,-0.1950649382818,-0.124135500562
509,254.74998877959186,0.1771031618182449,0.5998442241322449,0.23282743518571428
510,255.2462826,-0.06638534733892,-0.42365214404600005,-0.014194518971920003
511,255.74758895,-0.0623301472888,-0.2816343164924,-0.156616298277596
512,256.24889518,0.17278483202191602,0.64067880029638,0.17886548414122
513,256.75020174,-0.018896562307,-0.3915609041186,-0.0667462644054
514,257.2515087,-0.047075129148760005,-0.2306218596818,-0.17751436658
515,257.75281532,0.19669353148198598,0.6611209265042,0.25176407219700997
516,258.2541222,-0.11183002425424,-0.42131106251725997,-0.06241074323839999
517,258.7504158755102,-0.04049911593259184,-0.24254049092571428,-0.1539208858232653
518,259.24670908,0.17427895866676,0.6521712465077999,0.19419015543832
519,259.74801596000003,0.006999346725399999,-0.46494643872959995,-0.0799321650052
520,260.2493229,-0.10468864526860001,-0.18342533464660002,-0.14612421210888
521,260.75062997000003,0.20369643382636,0.5881285058894,0.2346245900578
522,261.2519373,-0.04004440367686,-0.4712433099178,-0.1350799168656
523,261.75324445999996,-0.041023140027,-0.10389909247871999,-0.09205383786619199
524,262.24953865714286,0.1770672191091837,0.6169336601277551,0.17781339372689794
525,262.745832916,-0.088688084297422,-0.5231651441303999,-0.1126244951072
526,263.24713995999997,-0.027328556813999996,0.11248223661920001,-0.0858810158852
527,263.748447444,0.21563685849088,0.4470294175242,0.28775293234186
528,264.24975522,-0.1320362294436,-0.645985643748,-0.2264498899098
529,264.75106278,-0.019628669307400003,0.20113635696319998,-0.0395061513776
530,265.2523704,0.11026970487254001,0.307229389142,0.2574939299048
531,265.75367805,-0.08336452811699999,-0.6387495834386,-0.16295863952640002
532,266.2499720795918,0.03391741054944898,0.4210652830834694,-0.1469837986697959
533,266.746266812,0.105130355356062,0.352108551696,0.2253645668951
534,267.247575,-0.047536080068040006,-0.835259636764,-0.19175701057932
535,267.748882912,0.139224407396,0.6223456756897999,-0.0368749469546
536,268.25019078,0.0692762041814,0.04798742325399998,0.28103692685568
537,268.751498828,-0.0981996104177,-0.6966887103825,-0.33221801385986
538,269.25280746,0.14066047066999998,0.6854075583932,0.1194388204106
539,269.75411561199996,0.027719419928219996,-0.051160420767999995,0.05223942227282
540,270.2504105938775,-0.0944725462465102,-0.5914663731508164,-0.2646287309985714
541,270.746705656,0.15880761094716,0.7345684849844,0.15808990473552
542,271.24801354,-0.007536775566040003,-0.152508405154,0.1463141372344
543,271.749321776,-0.0695917923221,-0.5928927687984,-0.26919751163600003
544,272.2506303,0.234749306141182,0.6595700241497999,0.14431788608524
545,272.751938616,-0.0875489054598,-0.1582294796214,0.21033311152832
546,273.25324716,-0.010425048889899997,-0.5784834032226001,-0.3598953529122
547,273.7495425081633,0.1284599564311245,0.5934995230696123,0.1818881692457143
548,274.24583726000003,-0.052177681457120005,0.014111869675999995,0.1384858361072
549,274.747145842,-0.029090990804799998,-0.6908515139262,-0.31413911934134
550,275.2484551,0.1227355394528,0.595008204251,0.0407094094206
551,275.74976381,0.0315891035048,0.209232065152,0.161684248305728
552,276.25107208000003,-0.021980712417600003,-0.6934292441828,-0.227339786442564
553,276.75238092,0.04934322594480799,0.4981347814676,0.0371116270073
554,277.2536899,0.06836096578496,0.21502818964082,0.1665768950112
555,277.7499858612245,-0.03569466542436735,-0.642056032141796,-0.15188853507714287
556,278.24628182,0.03724444218095999,0.23204467677305998,0.016135634288620002
557,278.747591026,0.12117641694062399,0.42730531448180004,0.19909873276620002
558,279.2489005,-0.09294006762045999,-0.5917501555696,-0.19092988025272
559,279.75020999000003,0.046828742034159994,0.1579218381844,-0.07596764881620001
560,280.25152002,0.2048043937766,0.4439171786114,0.23383217852278002
561,280.75282961,-0.0651246443036,-0.47423688099739997,-0.080693068804
562,281.2541389,-0.019145185051600004,-0.1880878595206,-0.110141619251136
563,281.7504356959184,0.10662351932830613,0.6365497230289796,0.1982976621289796
564,282.2467322,-0.07118936199002,-0.5124065858,-0.10232003433239999
565,282.748042254,0.010940470841800004,-0.016333467209400005,-0.2093724006388
566,283.24935234000003,0.154160200234895,0.5577545253852,0.29263292052400003
567,283.750662592,-0.0259578589914,-0.5437054640192001,-0.124239419357
568,284.25197316000003,-0.03347814292986,-0.029025804706199993,-0.0788460296394
569,284.75328357,0.17385641498798,0.5319644317302,0.207319793329
570,285.24958138979594,-0.10950301791879592,-0.6536221956857143,-0.0977396670835102
571,285.74587884,0.024687154009439997,0.09866114063220001,-0.1536061166206
572,286.24718948000003,0.15746341822514,0.5353557953274,0.16135909582059998
573,286.748500092,-0.0320638131942,-0.5431067297226,-0.08822989664922
574,287.24981026,-0.0084307049064,-0.003387614966200001,-0.06315236389226
575,287.751121168,0.11536532194195999,0.506670119294,0.18793972768038
576,288.25243278,-0.0737634623728,-0.5043731321928,-0.1581762810094
577,288.753743752,0.052541654636599995,0.01088295810943999,-0.06250156693376
578,289.25004195714286,0.09216411095636734,0.5394631641618367,0.23327609577489797
579,289.746339968,-0.041642875969399994,-0.5166084697668399,-0.153323157279
580,290.2476505,-0.013665923975839997,-0.003988858139000011,-0.06538228463962
581,290.748961848,0.17602612059484,0.557710943712,0.17036388111280001
582,291.25027306,-0.0619410787082,-0.5483915743162,-0.03306709022284
583,291.751584644,-0.058115996286780006,-0.0838996305093,-0.005852629100279996
584,292.25289648,0.1782382303468,0.5538334547476,0.0899811013778
585,292.754208276,0.009067069580199998,-0.4600480702832,-0.020651712642200004
586,293.25050735714285,-0.10714825288410204,-0.13920112032510204,-0.16385410462469388
587,293.746806196,0.1682084319518,0.5678078213728,0.1930645188686
588,294.24811858,-0.0886296943172,-0.3728361028464,-0.1640465919411
589,294.749430704,-0.10823640976113999,-0.1243522132072,-0.05228260509008
590,295.25074254,0.13634801507234,0.5838889806222,0.17037366595046
591,295.752054816,0.049242928484800004,-0.4061252374958,0.07497073892679999
592,296.25336749999997,-0.003185300572399999,-0.405710492962,-0.19849755920860002
593,296.74966676530613,0.15032243070663265,0.6166292256593878,0.13319442370024492
594,297.24596529999997,-0.10815566999184,-0.2609412501592,0.007341646737199996
595,297.747277812,-0.0021789426933999994,-0.3941524688488,-0.15764624761840001
596,298.24859104,0.20807065008346,0.6567135909140001,0.13476228928262
597,298.74990373,-0.07578400142819999,-0.2623800907058,0.0517136805498
598,299.251216,-0.02910288975801,-0.4171128707952,-0.2455038303542
599,299.75252885599997,0.11017692781600001,0.6414297325242001,0.1228358140542
600,300.25384266000003,-0.009921843615400001,-0.0889297001702,0.06843166094042
601,300.75014248367347,-0.10553096142653062,-0.5845112286216326,-0.07810260031634694
602,301.24644145999997,0.15886969825984,0.76839420204006,-0.001117004729519999
603,301.747754584,-0.065475420761318,-0.291560450524,0.06543391212739999
604,302.249068,-0.20489737938842,-0.414447607662,-0.38487765628726
605,302.750381308,-0.05116184597538,0.9082915763722,-0.13499347364628
606,303.25169502,-0.12938787320439998,-0.1185950171294,-0.29749535585774
607,303.75300848800003,0.057563250607998,0.48565281208137995,-0.10063639404326001
608,304.25432145999997,0.194365770518,0.4175446862829,0.29102069329193997
609,304.75062199387753,0.00615594017163265,-0.7377041729283674,0.018104312198142854
610,305.24692262,0.04130984157854,0.63886632462386,0.20232644581656
611,305.74823643,0.0447792557852,-0.17714481910826,0.2782753627
612,306.24955078,-0.036217515263999196,-0.296926242414,0.17288387758814
613,306.750864724,0.109863954487,0.04983979579214,-0.0585214770525
614,307.25217892,-0.17754739916719997,-0.16415154151502,0.2353078760952
615,307.753492918,-0.09854620607804,-0.3598254554834,0.06577089853740001
616,308.249793777551,0.019202928079265304,-0.5478520712512245,-0.34214144554346937
617,308.74609477999996,0.0607612036576,0.4399651562448,0.1214242464892
618,309.24740848,0.069539120374392,0.307205154268,0.115565176946
619,309.7487227,-0.010901072540480004,-0.3647599903782,-0.018225116199
620,310.250037,-0.0855640025899,-0.4438954663763999,-0.1996786286676
621,310.75135143200004,0.01623029358506,0.5704997517202,0.07688036948384
622,311.2526666,0.009581524585400004,0.09560902899359998,0.09022137956934
623,311.753981172,-0.044498148010380004,0.13330967333226001,0.020349309967278
624,312.2502823163265,-0.05829064487034694,-0.0673597861255102,0.004133521009024489
625,312.74658386,-0.18823929063801997,-0.22190591923959999,-0.157608964284
626,313.24789876,-0.093526534295722,0.61524476081,-0.6280132341360001
627,313.74921366,-0.098523573702,0.6505518803078,-0.340444483164
628,314.25052848,0.08841013874808,0.32655782163456004,-0.1203410962768
629,314.75184362,0.0469014771264,-0.03608130234920001,-0.294559574644
630,315.25315946,0.0018344719926000012,0.38562273182219997,-0.10580621172154
631,315.749461755102,0.07847622328973469,0.1017342966734694,0.0696576636077551
632,316.24576363,-0.1491945905302,0.501647101782,-0.036324526443604
633,316.74707934,-0.2625265293496,0.2657504268016,-0.021202334858618
634,317.24839556,-0.0957421304237,-0.28178449932506,0.024168359435602
635,317.74971153999996,0.001891326355480001,0.053845926803040005,0.02586386478907
636,318.251027,0.009985397989279998,-0.159045141106122,-0.0969459322678
637,318.75234322,-0.06224024379772,0.15151325241196,-0.11433298978298
638,319.25366012,0.06917319370028001,0.25970518418332,-0.114322810862
639,319.7499633693878,0.3349059034995918,0.3070788781076694,-0.09603915443265307
640,320.246266348,0.6644757640400001,0.484945549958,-0.01766139169862
641,320.7475827,0.2092280964002,0.46389023874726,-0.29587421321213997
642,321.24889914,-0.6289564913528001,-0.41813447651499996,-0.3721772641736
643,321.75021605999996,-0.803726932412,-0.77768487012,0.140113534550038
644,322.2515334,0.0883123016016,0.4162302388256,-0.21421644137592
645,322.75285042,-0.0220720757542,-0.023887475543652,0.25923465607539997
646,323.25416789999997,0.04316784171502,0.06541593313840001,0.047172997705200004
647,323.7504719346939,-0.0955329620412245,-0.0462406551332653,0.2836307945677551
648,324.246774844,0.101506631903012,0.13048076066103997,0.0024532502576280007
649,324.74809218,-0.15662745278600002,-0.37371178470754,0.17127341857798
650,325.24940997199997,0.13340545376838,0.362219194505764,-0.02020886881844
651,325.75072752,-0.040169702598766,-0.13605927581182,-0.1065206054818
652,326.25204557,0.085622701887,0.587325356292,0.0232138643562
653,326.75336319999997,0.08791214704684,0.1551695940271,-0.195739564455042
654,327.24966726326534,0.23960792182040816,1.019291530872449,-0.09638249225865306
655,327.74597176000003,0.3712279245136,0.82428718217172,-0.16642235329326
656,328.247292362,0.0635303352412,0.7263219153539999,-0.08344303258758
657,328.74861022,0.25458725226388,0.7498483065824,0.070748753850516
658,329.24992513999996,0.3649061469784,-0.005885851829659998,0.1509432714018
659,329.75124300000004,0.2587369298914,-0.05861368507462,0.04939520186384
660,330.252560588,0.37924072509606,0.3023549459548,-0.25890349112204
661,330.7538786,-0.018487063556399997,-0.3354665085072,-0.4236384165274
662,331.2501843510204,0.25318608934693876,-0.424872749617551,-0.29930832176122446
663,331.74648924,0.232037965202,0.02461570201292,-0.14634434438372002
664,332.247806784,-0.0744606830926,0.3526594775134,-0.15019244513882002
665,332.7491249,-0.45002393291,1.90123005628,-0.67889327526
666,333.250443712,0.1934908559934,1.4886575627179999,-0.6010394243866
667,333.75176189999996,0.29821652999498,0.9469895374854,-0.299703459081
668,334.25308008,0.2121630652272,0.4170327451128,-0.087612370187872
669,334.74938502040817,0.13214225299361224,0.5177514917493877,-0.18244082785011223
670,335.245689464,0.24646726403888,0.2581349856252,-0.14317633738482
671,335.74700764,-0.010634252579119995,0.2709809892403,-0.179167219435
672,336.24832576399996,-0.007635230322799993,-0.6956193124108,0.9826459101086
673,336.74964398,-0.100905075519,0.25530008062024,0.7791180014368
674,337.250962792,-0.22802944382000004,-1.17212143637154,2.99299625735512
675,337.75228088000006,-0.21198417577013998,-0.08143973858800001,1.528655056028
676,338.25359894,-0.122780369117,0.48199713209166,0.37890754328652
677,338.58948211764704,-0.023336367876470587,-0.22634378787470588,0.11004909643141177
