Time (s),Accelerometer_X,Accelerometer_Y,Accelerometer_Z
10.2519861726,-3.0870277833976973,7.372422278810146,-5.637361291026471
10.7533600942,-3.4537693640135942,6.066464103096705,-6.871223010421463
11.249717874897959,-3.9805821424133594,6.3592012654793155,-6.516919676951282
11.74607304,-2.9295780936183498,7.450699049220242,-5.367990635638546
12.24744392,-3.1323435193475215,6.27516487613278,-7.05079087864514
12.748816934399999,-3.1577456864100917,6.895861653551736,-6.676476857107884
13.250187174,-2.837996911308224,7.469012953982798,-5.321143117329858
13.75155453,-2.932911899104186,6.331152858163587,-7.208826708475978
14.252924190000002,-3.5583067782428106,6.7247107261409305,-6.530452908239524
14.7542934042,-3.091846592081185,7.273483225596413,-5.394945927148001
15.250648777755101,-3.0975021977046193,6.03249355657661,-7.294433686100785
15.7470037224,-3.932011684277216,6.547173992746823,-6.192674807059457
16.24837214,-3.571211741691993,7.176233803279027,-5.751092019399772
16.74974099,-2.906792701648597,6.282318452541514,-6.97281272395064
17.25110891,-3.9172130033131953,6.467699127382944,-5.862772315694537
17.75247651,-3.514847366150595,7.084422422062761,-6.5772421824906875
18.25384381,-3.1176766255373787,6.510579488673515,-6.5352977965709655
18.75019870102041,-3.7826861123693365,6.715471799293463,-5.853895641643064
19.2465517142,-3.882695953640395,6.912524609671348,-6.168667105821461
19.7479189542,-3.2016936586579146,6.568735434233672,-6.695996804427052
20.24928505,-3.86668437228696,6.335689672870371,-6.055347391431622
20.75064856,-2.901228144616904,6.882480477221435,-6.734137609258218
21.2520140542,-3.204514607768495,6.328199149314907,-6.864414197533838
21.753379026799998,-3.34395743881141,6.486461569786435,-5.88899379351923
22.24973033591837,-2.6226285715461977,6.960659993664365,-6.88472266344558
22.7460815658,-3.004558912903879,6.568501953825596,-6.783003937146365
23.247445990000003,-3.4759542979785683,6.555096678945358,-5.983480132475311
23.7488103122,-2.7452820630143258,6.408554283005624,-7.002126908781829
24.2501741746,-2.9536428598746176,6.59040704649055,-7.013742298332171
24.751536819,-4.341820484716669,5.98972184419314,-5.563141066619745
25.25290016,-4.36351330878768,5.877179612262958,-6.8588998523591185
25.7542637054,-2.871609386298422,6.362131284399359,-7.146030867729682
26.250613068571425,-4.09466662074578,6.28530921698263,-5.779123417561825
26.746962114600002,-3.3499669779225623,6.633045059007087,-6.609310513596107
27.2483245754,-3.3346186013422776,5.914780813355734,-7.281458866709263
27.749686838,-3.735965722269773,6.30953601320153,-5.94356880854583
28.25104888,-3.113058687183783,7.070944590487596,-6.498284116800756
28.752410084799997,-3.4113661324008393,5.89902483382191,-6.830648891041503
29.2537716754,-3.36886650399947,6.053121649550886,-6.555878709347759
29.75012028306122,-3.3871297504517996,7.621082783824552,-5.837346758680589
30.24646781,-3.4551919093846886,5.46262436801447,-7.192968240890624
30.747831633199997,-3.5218769352035126,5.988592000273985,-7.0470183978277525
31.249192509999997,-3.507535886097537,7.790397807889029,-5.071034212655854
31.750549686200003,-3.396677163131376,5.418652063018654,-7.383138346433217
32.2519099038,-3.4091471004949687,6.184715590462926,-7.132877487215971
32.7532704848,-3.394978188300949,7.422661017254502,-5.411443028012581
33.24961684693877,-3.4131425237438924,5.539153745635084,-7.29905663128335
33.7459629632,-3.658022206463174,6.312441635683232,-6.900331263880652
34.24732252,-3.3431762800222278,6.878138723536914,-5.5262999994618385
34.7486824168,-4.062709031771623,6.438787904741116,-6.554183986771774
35.25004166,-2.7184755279407087,6.0745027750656275,-6.994528959173758
35.751400079999996,-3.2020401260222173,6.589748872890684,-6.545947771562551
36.2527588,-3.911179460973601,6.806175254540936,-5.86302752936805
36.7541168784,-3.061941067307081,5.950184246061793,-6.831942416505629
37.250461509387755,-3.2354762103468033,6.87427648985702,-6.772564873530488
37.7468067074,-4.101352076419466,6.835752270579254,-5.297424996233453
38.24816463,-3.1492173277580857,6.206831636752311,-7.033961417611521
38.7495216848,-3.6777128392752503,6.552088748995653,-6.6334432521721025
39.25087913,-4.530432928853718,6.252700223849385,-5.665967898290968
39.7522364468,-3.1803886289563947,6.447883665399783,-6.775616892507349
40.25359351,-3.736353625625178,6.010083195793512,-6.995102726873435
40.749937180204086,-3.6917631568453846,6.394636703087683,-5.846377653560648
41.2462803444,-3.5510734794016208,7.331202208555667,-6.304711499915765
41.747636140000004,-3.8577914965194093,5.321608469273674,-6.892392960120328
42.24899251,-4.005636091127787,5.935348006984429,-6.470989454793307
42.7503486924,-3.9709589674305388,7.257805252041707,-6.067199375468983
43.25170469,-3.700757736920315,5.019997978185071,-7.241993666025938
43.753060725,-3.5348319277252798,5.955881477709729,-6.520105483958806
44.24940285714286,-4.063677709087781,7.350810501039423,-5.971220816118627
44.74574524,-3.64600499956962,5.383743037074667,-7.097668526888087
45.247100579999994,-3.7696379089861924,5.967550365841264,-6.884393466946128
45.7484555026,-4.047499099109666,7.189080284335916,-5.561829276306324
46.24981041,-3.784932849331405,5.361120925447002,-7.091864633990947
46.751165347400004,-3.8661137482909584,6.010232349578408,-6.750996383826257
47.25251994,-3.7398498488780554,7.422628893439071,-5.5086547933131635
47.7538741226,-3.7762690608064258,5.333616170339569,-7.218259983775041
48.25021486142857,-3.494846234768211,6.195728700425949,-6.6873617291497345
48.746554927999995,-3.691654149389981,7.631489665413957,-5.473883993313445
49.247908674600005,-3.529155706098822,5.128357305750148,-7.464448753926422
49.7492629244,-3.6403717349523554,6.228487213314045,-6.977789426538814
50.2506164444,-3.984936369979295,7.189273353943031,-5.277192955360577
50.751968977,-3.6667953046027693,5.7760678541255,-7.088506377197571
51.25332211,-3.6282938623272774,6.369814598255877,-6.740443747097281
51.749662058571424,-4.027769835826617,7.328596005986161,-5.003883283726599
52.24600145,-3.5737273336384043,5.955072115322423,-7.016825030815193
52.74735434,-3.747137481343087,6.5236143127577835,-6.510092433229276
53.248706940000005,-3.702105570406741,7.274802249889692,-5.293264863676716
53.7500592264,-3.7298033884741155,5.525450459134911,-7.4252661540238964
54.25141162,-3.935905107748979,6.260850654541199,-6.584768264927778
54.7527661504,-3.8357703874524613,7.126094640700132,-5.221678562607751
55.25411838,-3.7155496449800283,5.708237736851544,-7.244324712038108
55.75045490122449,-3.3048973127768537,6.3016785717288375,-6.8607097485844495
56.24679302,-3.699807691346596,7.462396382405688,-5.235887205943443
56.748144121,-3.2116284089323743,5.749244987294377,-7.422444783171387
57.24949549,-3.801360413843187,6.336503797914536,-6.551900362276073
57.7508473032,-4.02239953299229,6.78464299797096,-5.832394723677679
58.25219856,-4.695873474824653,5.6782807836943,-6.429831724652072
58.75354951,-3.5736285244622166,6.073168617650191,-6.6082773199993525
59.24988712755102,-3.7509316758367577,6.930894401879025,-6.507977846273832
59.7462242522,-3.462365694244224,5.647371141605547,-7.050774557523519
60.247575094599995,-4.19171166403068,6.401268725517103,-5.969847176734109
60.7489266944,-3.5949463545795113,6.569902308379749,-6.895565595044319
61.2502773746,-3.61082150414068,5.92714578201942,-6.8506177010656595
61.751627604599996,-4.073849291475124,6.156279550464927,-6.16974096758368
62.2529778746,-3.233389165864975,6.695320893280308,-6.754474371558035
62.754328324199996,-3.7071182203647752,6.177577889038641,-6.820211058041716
63.25066489489796,-4.002075500029214,6.282821909764339,-5.852223243775361
63.747000968399995,-3.2394985631342785,6.071694013355817,-7.19662157788233
64.24835079,-3.806103827281447,6.6666429102727305,-6.4735204693155195
64.749702779,-4.125902711258247,6.505909069019733,-5.534023049805566
65.251053,-2.9654768198273866,6.16300928517742,-6.995935684738816
65.752399918,-3.961631905852181,6.356992372047839,-6.740568149984847
66.25374942,-4.191968610616787,6.405384544479943,-5.737090372376769
66.75008579734694,-3.279182235561109,5.793403829387346,-7.158988269394396
67.24642171420001,-3.9061322482038343,6.2619114376843505,-6.715444074673798
67.74777065500001,-4.531439775689848,6.280800069009801,-6.062799231917356
68.2491196642,-3.0455191495012044,5.877046634447891,-6.977934732731998
68.7504686374,-3.721345379742197,6.528566466003721,-6.501381251003943
69.25181755,-4.241161429682958,6.458191544825952,-6.232744632949394
69.7531656866,-3.450640089725247,5.660655170961596,-6.969608853334096
70.24950071653062,-3.737885889411856,6.5981764009832355,-6.325149385687146
70.74583569,-4.261923212491576,6.450756989916538,-6.559935525395876
71.24718404000001,-3.51379795361801,5.670730049896641,-6.95608392546165
71.7485325142,-3.7467879054283606,6.420422388423743,-6.260861489955596
72.249880714,-4.530088578983092,6.344896266817857,-6.527305650626759
72.751228865,-3.5720292800255127,5.656969112149831,-7.026848469209414
73.25257682,-3.7977041964219307,6.6070727550363175,-5.736017493218648
73.7539243294,-4.32572637832863,5.9933227372311455,-6.930350305280499
74.25025843020408,-3.5510730298583835,6.081539173062003,-6.87773601526372
74.7465929702,-3.6312055096326152,6.74824891228875,-5.443786234456912
75.24794057999999,-3.5687317603392072,6.219396674104676,-7.070329457636904
75.7492882248,-3.904351692942887,6.151621183563063,-6.840803400017132
76.25063569,-3.6539813288456817,7.014725286219113,-5.357912982093104
76.7519825992,-3.7539857058747064,5.810505706536242,-7.20059723681391
77.25332978440001,-3.7787562630431397,6.223468780772887,-6.577013242791686
77.74966380081634,-3.9275094931287104,7.615219285660668,-4.90622780058377
78.2459975,-4.04031038148213,5.976674014272407,-7.038523145201635
78.7473445,-3.580755867774311,5.743323605094534,-6.758383983338276
79.2486914,-3.4551518978045572,6.4700371575968925,-6.636925688457019
79.75003787,-4.435107257792098,6.482046299029056,-5.656799796114895
80.25138458,-2.9265703451185066,5.944229536231752,-7.193079151971108
80.7527320752,-3.7204782014131967,6.6106133321979055,-6.5896757508764185
81.25407876,-3.93923345204409,6.472398061391577,-5.727747697769274
81.75041097938775,-3.315523324149518,6.062160523291243,-6.927211088313034
82.24674375000001,-3.8055708806869784,5.923097425842892,-6.9653429068395845
82.74809015659999,-4.013116660911551,6.160153546555299,-5.916173399313936
83.24943635460001,-3.977612364787949,7.250035610336521,-6.074760774371335
83.75078243440001,-3.5938882030135284,4.854737775117711,-7.513524112765615
84.252128474,-3.756236217660142,6.166619519232194,-6.832918112266043
84.75347495919999,-4.155611847049066,7.426107480177384,-5.048480478943689
85.24980743,-4.051785920926431,5.231868127511504,-7.2646163484508515
85.7461385634,-4.166278666908804,6.075012987092169,-6.685650412948847
86.24748389,-4.056162148586989,6.786577606281709,-5.485369579015383
86.74883004760001,-4.122163341367109,6.330372852511947,-6.56910967182213
87.2501755246,-3.5576602638962087,5.706073449068221,-6.695992383940259
87.75152011899999,-3.5502061172840254,6.6027558663875086,-6.382248783032924
88.25286517459999,-4.59503238719962,6.756628443236061,-5.336942834891483
88.75421040859999,-3.6432058350318623,5.736371802113018,-6.9152364719906645
89.25054182306123,-3.893065272444684,6.025822454547062,-6.83092107846246
89.7468735514,-4.532273740224812,6.119252649250248,-5.711007335108235
90.24821822419999,-3.516776919533156,6.733265382405708,-6.6500524603225735
90.7495622638,-3.765603258436462,5.553129871791099,-6.8587490398099815
91.2509065038,-3.972783109862671,5.927990248933709,-6.0985214849756515
91.75225132999999,-4.351174883823787,7.465653450629506,-5.404095349190372
92.25359553,-4.138524317840875,5.417409313374492,-7.121174672330094
92.74992594795918,-4.190742938626519,6.146831026601492,-6.613374797487198
93.2462562842,-4.041364051362861,7.211963896069652,-5.007768561970934
93.74760021440001,-4.05606023920632,6.240892095408449,-6.63447692354909
94.24894383479999,-3.7799169039785,5.59248732286939,-6.872692998501962
94.7502867498,-3.630044975540027,6.597612817978042,-6.429548306306556
95.25162990999999,-4.533823213790666,6.565592275002395,-5.42784363964609
95.752973194,-3.2490718480947134,5.706725604538419,-7.180480251750328
96.2543162348,-3.8516207527389303,6.45014709610412,-6.587091887788107
96.75064605020408,-4.662765733035027,6.338751928000411,-5.348235507256314
97.24697549000001,-3.5125625399920404,6.232767011978094,-6.8709162920412075
97.7483178216,-3.8278012592248096,5.8743588025785725,-6.856241441632664
98.24966033439999,-4.124449457353761,6.063763942881438,-5.6377313474563415
98.75100302979999,-4.113577157696847,7.648915032040387,-5.77296292604868
99.25234529,-3.895748944088977,5.041096811972099,-7.153671038391878
99.7536875728,-4.02291369893951,5.8544201535272755,-6.978487960382546
100.25001610408164,-4.283671829422948,7.505941150924812,-4.782977778234479
100.746344088,-4.00618311298259,5.665833858510609,-7.029474788088427
101.2476858,-3.6978049380497526,6.002349849326232,-6.879003985498376
101.749027482,-3.755709540086297,6.77743763527133,-5.599208792237532
102.25036899999999,-4.716250891599696,5.985033234622391,-6.445646303840926
102.75171079,-3.612442406259477,5.8000926813475315,-6.71791567933147
103.25305204,-3.840935223857496,6.310956119711599,-6.4873309098155945
103.74937915918368,-4.235667526522319,6.955449400266722,-5.359879214978938
104.245706648,-3.3804303165546146,5.847481871945717,-6.945276335775588
104.747047428,-3.7472328938338064,6.621687273670548,-6.504554343706621
105.24838824,-4.311098867022513,6.947310964911187,-5.309441496826932
105.749729534,-3.1599960130789357,5.936125840966372,-7.050778570543955
106.25107025999999,-4.24827690722296,6.078864871354184,-6.670872549086714
106.75241047,-4.123347586479243,6.583251484589847,-5.550757258837283
107.25375086,-3.119426583352559,6.882672890286542,-6.848189621993612
107.75007795102042,-4.027338691786172,5.749752485851802,-6.635558723153155
108.24640493999999,-3.6612551422086805,6.299476802573441,-5.997999333121442
108.74774557999999,-3.548413716590466,7.29833742874765,-6.465026500909716
109.24908592,-3.8209138738046606,5.556247079191262,-6.989294309511292
109.75042534,-4.108142302656736,6.405464530921489,-5.681299593243137
110.2517653,-3.8120411341731604,6.556907799680033,-6.787076886349135
110.753106116,-4.003001697205067,5.668836766880622,-6.8077504717570285
111.24943290408163,-3.842523419226727,6.337684832625401,-5.867161944609181
111.74575963400001,-3.7809077671714015,6.97799115677963,-6.5682332158450825
112.24709966,-3.981393323396856,5.379548490572972,-7.112298886684065
112.74843933,-4.035954465360393,6.542469210523381,-5.700637997458224
113.249779198,-3.8663666752009447,6.239323492431433,-6.731710813142967
113.75111897000001,-3.96189921416562,5.694251047104817,-7.000423710796191
114.25245897999999,-4.320802047575559,6.483330188493888,-5.513658031290687
114.75379874000001,-3.7518812174168734,6.307983656515347,-6.648092160587803
115.25012514489796,-4.076572037231527,5.519668246307722,-6.979890522427753
115.74645197199999,-4.523196362692875,6.2744845398495785,-5.4714186727996585
116.24779184200001,-3.9540290015128727,6.951219601126869,-6.388871707186252
116.74913185,-3.8828568963481813,5.584565394341726,-6.995373271248634
117.25047186,-3.9072245155748244,6.239077325697025,-5.933562656975203
117.75181194000001,-3.8190880054355416,6.799438079954902,-6.461122616824448
118.25315200000001,-4.103279102021454,5.201864098900475,-7.110120275497564
118.74947787551021,-4.363471882924176,6.062999851115324,-5.9509556911785815
119.2458043,-3.9083070882226214,6.446134375083965,-6.722211971317067
119.747144612,-3.989684703695228,5.8721710717643045,-6.763123815958489
120.2484847,-4.427098482927459,6.107295231985811,-5.814389213928739
120.74982464,-3.5846671793197427,6.668246920688306,-6.65828468325621
121.2511645,-3.875913176466523,6.174528788760455,-6.759392543611192
121.752504772,-4.213207354601919,6.034837113976414,-5.9321560256416594
122.25384474,-3.5103592140130933,6.247607301375198,-7.097222629840641
122.75017122653061,-3.9104049475402256,6.152419909743803,-6.688467476508888
123.24649767999999,-4.15081216443818,6.1133271934005355,-5.9656913020731155
123.747836974,-3.6954622719621892,5.720985018296457,-6.831868208622501
124.24917656199999,-3.7621825801762627,6.81653849315388,-6.463543543868399
124.75051622999999,-4.53300684831871,5.776031737684326,-6.673887938162661
125.2518559,-3.733222973483582,5.938838736103803,-6.769067558984662
125.75319581400001,-4.073869490756906,6.215622682311778,-5.903265277219949
126.24952209387756,-3.936774504668599,5.8311268917356704,-7.263392713062096
126.74584858,-3.999240583561128,5.87403858831667,-6.818819335559166
127.24718811999999,-4.010927166215861,6.789523495803184,-5.484213263294709
127.748527044,-3.8754132482395023,5.117097095583663,-7.553541657892753
128.24986619999999,-3.934014150218163,5.983698445429855,-6.976805955161382
128.751205148,-3.939945803832623,7.186937006619868,-5.437433741234873
129.25254426,-3.551172166290831,5.234675062283795,-7.513002828501242
129.753883632,-4.099317351902697,5.873495222719515,-6.850751542347284
130.25020934489794,-3.929561141462841,7.177847286578344,-5.4248118251435
130.74653553800002,-3.6812085187006627,5.151598269362268,-7.586621025780144
131.24787469999998,-3.9538869919138566,5.921808417403915,-6.760803053890978
131.749212724,-3.867722405007378,6.881517118509445,-6.037354631544654
132.25055128,-3.7036523642587014,5.578352896601287,-7.055410292716524
132.751890612,-3.9389774735494645,5.89389492362017,-6.551766340690028
133.2532295,-3.6039749130267245,7.254669557002582,-6.141201959213099
133.7495546877551,-3.794884056432231,5.302305118443936,-7.06794338726154
134.24587978,-3.6072618256900317,5.942711757186267,-6.660107653346013
134.74721864400001,-4.0557776048557885,7.256088326979941,-6.034391081506199
135.2485571,-3.9636348033167463,5.10755901740936,-7.158285654434573
135.74989566800002,-3.7121540270421014,5.880968059737196,-6.532764124830054
136.25123402,-4.2032395063009265,7.381076444682537,-5.677119378410692
136.75257147800002,-3.8906395128716516,4.866957478057616,-7.347550674340661
137.25390936399998,-3.922024532326743,6.052357717105651,-6.7700713242300505
137.7502342897959,-4.116184421722568,7.599888817304781,-4.851671135665844
138.24655898,-3.6499269228739473,5.544572878625493,-7.220712143521201
138.747897046,-4.131770744703391,6.136627685361713,-6.763668965682193
139.249234882,-4.049785102009789,7.1554624960305935,-5.288475364464202
139.750572426,-3.7464001010207726,5.993294795034964,-6.761924816839617
140.25191002,-4.056706153062404,6.051795623201855,-6.817253113295366
140.75324738999998,-3.890899810421836,6.9395081890261405,-5.462160093039272
141.24957136734693,-3.83726302054754,6.376762277697591,-6.652779111087268
141.745895924,-3.7543560348497507,6.192225449325119,-6.5494857533524256
142.24723336,-3.7786256332074633,6.758817480407246,-5.822582515710974
142.748570572,-4.54481076095543,6.199252354803182,-6.444429413136453
143.24990778,-3.4921111716816697,5.853026498629646,-6.87709417454902
143.751245014,-3.7189854086138125,6.330339746546722,-6.371340355265991
144.25258216,-4.518246028749754,6.723575005097109,-5.892090405795298
144.753919126,-3.9511361377501317,5.628688062684615,-6.570126859665574
145.25024268571428,-4.028693507208261,6.280083342899609,-6.576882947009781
145.746566344,-4.852209604350736,6.084409771210548,-6.380365737890981
146.24790324,-3.5856380905671985,6.037730072145024,-6.718962238409104
146.749239738,-4.342831013108334,6.850044681295499,-5.436248372907815
147.25057628000002,-4.622806902341364,6.1978803626565675,-6.293449490815678
147.751912822,-3.5494796994828186,5.65448438648929,-6.901933057895028
148.253249284,-3.4629907880790376,6.394636377899617,-6.768940017958763
148.7495726265306,-4.459253576123724,6.673000315383615,-5.414687552088022
149.2458957,-3.373972470766389,6.210312028527571,-6.966530153886582
149.747231876,-3.9694246068147043,6.010191704030945,-6.79384794016369
150.2485681,-4.447813438514685,5.82014670120019,-5.81569845521612
150.749904332,-3.932300162670303,6.62938532662906,-6.728747232055313
151.25124042,-4.2707284360423365,5.384482374979191,-6.687548639910984
151.752576276,-3.6284881650669893,6.17815527701331,-6.300970729681655
152.253912186,-4.3921357220552295,7.091186447189322,-5.984012089314279
152.75023517142859,-4.019149311274833,5.263275838400363,-7.074432835947437
153.24655782,-4.150242092770859,5.852482468853894,-6.781606398898807
153.74789296400002,-4.35079156736066,7.0720129513364824,-5.355864388122297
154.24922845999998,-4.0505570497704,4.986567276654111,-7.431284257701475
154.750563968,-3.9794499720140326,6.3374243051598125,-6.677949722321071
155.25189944,-3.953886295035998,6.306915994104007,-5.908404288542133
155.75323528,-4.404331339365776,6.418945520569804,-6.10734205342521
156.24955745918368,-3.6498334439010214,5.51598378508871,-7.060032061914366
156.74587944,-3.777564082329547,6.6716694520883655,-6.616221752683771
157.24721472,-4.535528774152632,6.265451401905859,-5.642492309311695
157.74854989,-3.3538252005886897,6.099845625026983,-7.083474950400728
158.24988494,-4.34586952328523,6.564624196286861,-6.238437410079253
158.75122038,-4.563042476979508,5.963319695012368,-5.563563731040872
159.2525555,-4.058647830436409,6.886680223911113,-6.405765272132926
159.75388992,-3.955504148574113,5.8180091613004326,-6.612216816237131
160.25021123469386,-4.086025266181119,5.758188273162836,-6.673828854583288
160.746532912,-4.418936329427869,6.924918235504862,-5.724511754124785
161.2478678,-3.497225706583043,5.5131664446049795,-7.229488478029993
161.74920236,-4.026584047101645,5.840402061462335,-6.99423104935931
162.25053692,-4.224651020309289,7.307724212224333,-5.052794103974519
162.75187124,-3.4182960617497677,5.74259062818876,-7.345137522838225
163.2532057,-4.1315149297184455,6.190487841192789,-6.73436486599316
163.74952744081634,-4.002941974901633,6.9964170663555,-5.3311799642438995
164.24584882,-3.6343192050758173,5.878021460322114,-7.232223475565807
164.74718257,-4.279872406179494,6.017792322273652,-6.663531734524366
165.24851660000002,-3.933647784964173,6.741412493739109,-5.5645653669965975
165.74985121999998,-3.645282208921027,5.851052206011296,-7.133689170474453
166.25118554,-4.004947159287242,6.333902225409273,-6.561852495254705
166.752519964,-3.9612001050722796,6.660175376001312,-5.668820603815518
167.253854166,-3.5070217183644576,6.046432910955616,-7.162376902698692
167.75017436530612,-3.921446896678617,6.043799291547437,-6.97826247519581
168.24649482,-3.7637916361559456,6.21480897994637,-6.201076349029304
168.74782905200001,-4.775519366552953,5.187395309367707,-7.371056698501041
169.24916314,-4.454392428728585,5.875982417222872,-6.3791293809493705
169.750496668,-3.8278327471898383,6.304988931500384,-5.937483549464281
170.25183035999999,-4.378777538567293,6.6415444940855215,-6.534112842581385
170.753164296,-3.93077340741075,5.741896950098132,-6.597040477571734
171.24948466938775,-4.116699164302415,6.321964991934344,-6.11759697255897
171.745805156,-4.515411846341986,6.074601575749832,-6.659566449540424
172.24713889999998,-3.5807348059841697,5.865227244795368,-6.677752502617995
172.74847244,-4.153223384984788,6.327771100290141,-6.262656680538534
173.24980606,-4.877783494932518,6.440833050361863,-5.789603009250715
173.7511394,-3.4016372475046643,5.782534222876166,-6.963319084755039
174.25247274,-3.8996226685299074,6.14589515277277,-6.737958815009225
174.753806448,-4.608220417329668,6.516595171975377,-5.481989593206818
175.25012636734695,-3.2739043756189896,5.942048039571871,-7.20173511066448
175.746445812,-4.117614911127842,6.171460186237948,-6.623732952159266
176.24777854,-4.417746342234255,6.269195305092244,-5.781009980317808
176.74911167,-3.5240432685599767,6.235481994817449,-6.800915327767644
177.250444686,-3.8307803881126516,6.534215656065577,-6.590492807566206
177.751777896,-3.9831559793750175,6.337794588981175,-5.586790317522549
178.25311097999997,-3.7938124759684495,6.386844983657242,-6.888877582253835
178.74943047346937,-3.927336051552807,6.445045258537747,-6.49775005907345
179.24574995999998,-4.178446000024345,6.332302208756307,-5.70389654168533
179.747082668,-3.943095745886329,5.968575198891641,-7.087506653707599
180.24841533999998,-3.93785954622349,6.06715787148909,-6.622298757704235
180.74974828400002,-4.046153638634521,6.165031544074011,-5.807792640270019
181.25108110000002,-4.044673688842542,6.959654514930227,-6.521878502306715
181.75241360799998,-3.794537434081217,5.186535954612302,-7.092610034684628
182.25374614,-3.9597476530655076,6.0348249723293,-6.181578072408938
182.7500654857143,-4.15895392113848,7.348745604802552,-5.937719346926535
183.24638474,-4.128291316624253,5.040092685060446,-7.170561611548679
183.747717386,-3.9725164089319724,5.923287383584848,-6.3892172664473295
184.24904994,-4.369226351750613,7.3238586308632705,-5.626359544973484
184.7503825,-3.780216905562187,5.278027177482545,-7.359277788952201
185.251715,-4.17969127691385,5.8614997106216595,-6.7763608358759555
185.75304756000003,-4.405945490655773,7.127851828808972,-5.027694622811734
186.2493667632653,-4.099005219231008,4.984240484561153,-7.539914115655605
186.74568599999998,-4.034005222228047,6.1015218285381,-6.732110951945713
187.24701858,-4.109538259225468,7.103130144936291,-5.316942032370403
187.74835118,-3.994477514995402,5.329723091345946,-7.324537915488397
188.24968372,-3.8610868277619144,6.055392453516443,-6.842737286124883
188.751015916,-3.7622168946438794,7.287594065327458,-5.165310793437085
189.25234824,-4.625523298884718,5.870887057905926,-6.825182424457006
189.75368085999997,-3.0215109266646367,5.896262931081008,-6.89838238652974
190.25000008163263,-3.3227494172897987,6.443952769490636,-6.494732197717713
190.746319892,-4.768450791269003,6.57596449358757,-5.393869928276161
191.247652748,-3.2473541177264362,5.969972502314473,-7.041246518553157
191.748984746,-4.182597479189968,5.798026646877672,-6.733039145978644
192.250317102,-3.8289242583977177,5.6838260021595035,-6.736251505390323
192.751650372,-4.545472742520692,7.655048559669084,-4.786916299418423
193.25298346,-4.220333279088858,5.264493760730708,-7.030719788020551
193.75431633600002,-3.8054527829144638,6.281502553570614,-6.753745354256022
194.25063586530612,-3.8934126710334476,6.232692091382857,-6.187364643356765
194.746955384,-4.515740365452979,6.61114242784161,-5.609921091763242
195.248288264,-3.408322794631988,5.635070993415042,-6.881740601373996
195.749621006,-3.986734505465198,5.9744777436924235,-7.0038820721154185
196.25095377999997,-4.48078405150904,5.93455892710129,-5.695759162292103
196.752286424,-4.413524471088389,7.287181038142198,-5.853793820539761
197.2536192,-3.960093583730099,4.746813629287234,-7.348269921853423
197.74993918163264,-4.021936336537332,5.9497332954465385,-6.709250379424487
198.246258942,-4.49101217171493,7.2606714440459905,-5.021803244794681
198.747591984,-3.7137678307220714,5.448704708948587,-7.310629253126824
199.24892498,-4.140347459908969,5.975057543143041,-6.828228682982599
199.75025773599998,-3.9025573657157278,6.4728779079456125,-5.655628141151319
200.25159064,-4.561522534482952,6.424950598443647,-6.1767501313511435
200.75292335999998,-3.712754543208305,5.4845833576549206,-6.865903338187167
201.2542562,-4.003652512029418,6.279061297947144,-6.757458252379077
201.7505763346939,-4.726321756230785,6.167835287245156,-5.418517442980477
202.24689636,-3.607072675422069,6.313944844125554,-6.73690911502222
202.748229396,-4.464406392622842,5.585682956097793,-6.984140460203157
203.24956235999997,-4.3447854857944215,5.7317159437138585,-6.09977625414658
203.750895328,-4.567842770675384,6.88405078348411,-5.922604491377886
204.25222832,-4.117395735175069,5.315609826194986,-6.748974553645028
204.75356156400002,-4.101350628475106,5.8107955492827115,-6.891372163646431
205.24988162653062,-4.37394430012462,7.268629405574392,-5.034916779786646
205.74620152,-3.6816703228043774,5.591740767515214,-7.31260528999448
206.24753476,-4.09526669095097,6.255501888103965,-6.718213278470768
206.74886834,-4.0951434333570935,6.521850025606902,-5.711261919446924
207.25020184000002,-4.2460865234923295,6.6031019469007415,-6.132249701394084
207.75153503599998,-3.1987855203453273,5.874014028423184,-6.757371858659116
208.25286830000002,-3.8158695252613084,6.256436532973334,-6.920038013674142
208.754201516,-4.868279486555,6.0805812644905295,-5.435385884183196
209.2505214265306,-3.2251213361686952,6.44516032120473,-7.0417078740072
209.746841526,-3.8078148383900325,5.629805449151085,-6.682190194513109
210.24817490599997,-3.7410891801211226,6.114065334679998,-6.67397190201979
210.749508244,-4.558249477798819,6.931984812516691,-5.2623650986364865
211.250841584,-3.6135162950666846,5.734320500425451,-7.235137695829748
211.752174876,-4.500657315536314,6.200442144534727,-6.395325916240719
212.25350816,-4.0391574918877,6.460225930947437,-5.825280649687063
212.74982838979594,-4.613409313146023,6.319017633068783,-6.2512071931528155
213.24614856,-4.026870696053898,5.666696984917222,-6.499007419193507
213.747481506,-4.121025612141926,6.489283473152482,-6.734370670570457
214.24881450600003,-4.6432796255468105,6.507403571686206,-5.1273166947140085
214.750147586,-3.3105075001744293,6.176153040379058,-7.187757123771296
215.25148084399999,-4.073855355798925,6.540814322181241,-6.3387363594443515
215.75281417999997,-4.124398627830521,6.166607958709262,-5.690126931398845
216.25414758,-4.132659600889995,6.8489247999934495,-6.419202197032303
216.75046695918368,-4.1525377087947515,5.656679777283254,-6.552053556565868
217.24678638,-4.217475831107402,6.207862403579066,-5.832899116315388
217.74811965199999,-4.419692785574536,6.8334360257037146,-6.257375902793523
218.2494528,-3.613645434828289,5.796857065242432,-6.797157239318863
218.75078585800003,-3.7830882814093867,6.147365730185893,-6.317141338387379
219.25211878,-4.601976440473391,7.433058071113445,-5.040904359941994
219.75345146,-3.6807666663021656,5.276847430691765,-7.765178643391415
220.2497708755102,-4.4136742660171295,6.242483943920747,-6.57193539543955
220.746090804,-3.7440213528964312,6.816307045375768,-5.583162807513224
221.24742402,-4.795569922578427,5.903538402757797,-6.6070274868130765
221.748756798,-3.737150236376828,6.189362690233403,-6.439009916583427
222.25008962,-3.4892864604846907,6.729442316998565,-6.005977879848713
222.751421682,-4.073322917935454,6.637118658323634,-6.074611095605295
223.25275398000002,-3.8647495615465033,5.725203257458674,-6.660865114888051
223.75408696800002,-4.347440539471446,6.194505364584173,-6.821642862197173
224.25040652040818,-5.2793887388292635,5.943256353273427,-5.503864976824443
224.74672596199997,-2.9436788937043348,5.957440915327727,-7.048180954167359
225.248058582,-4.007019779221201,6.308501846978536,-6.934877754592857
225.74939066399998,-4.5621111014505535,6.40798085249073,-5.448581215591158
226.25072284,-3.6078422949830373,5.910519052764836,-7.053764441343317
226.75205545400001,-4.233063195407845,5.866282112111736,-6.676674879342592
227.25338802,-4.045449075934576,5.791065269267697,-6.178006242797735
227.74970739795916,-3.8516893704354875,7.252791459910958,-6.212314620054924
228.24602663999997,-3.8465888858566406,5.353560654006921,-7.006880390597032
228.747358876,-4.298177990322143,5.997914597926166,-6.383622057122867
229.248691048,-4.49257092360408,7.023031543243825,-5.557719299235937
229.75002295800002,-4.185952211380047,5.343637248575276,-7.038864452589223
230.25135492,-4.183537166933586,6.330136012992403,-5.900903781453626
230.752687412,-4.968462419091207,7.072462571100425,-5.409743416823843
231.25401978000002,-3.550780884474888,5.80401236090328,-7.242164465731358
231.75033839591836,-4.283627072132034,6.19151173378491,-6.434492742555296
232.24665708,-4.352661423914725,6.84358024001412,-5.4758205528910056
232.74798906,-4.24193574852428,5.250232979224758,-7.20048667770979
233.24932099999998,-4.340764714282516,6.067780876615224,-6.323842911512564
233.750652956,-4.414395966985587,6.9257626643534635,-5.756332011341328
234.25198486000002,-4.081309620388763,5.315097812374289,-7.005528486486213
234.75331638,-3.986941584775398,6.198010062645426,-6.24789396203666
235.2496345632653,-4.276014891702015,7.223297107565303,-5.754605359261853
235.745952834,-3.8559475571135122,5.245506935575261,-7.288404690068193
236.247284424,-4.132276271365808,6.233899979441089,-6.454657708654762
236.74861610600001,-4.344029121594863,7.0553808159456874,-5.240515093692028
237.24994782000002,-3.9131107640704466,5.019103109002595,-7.506409372089422
237.751279546,-4.169593743735902,6.18055721797595,-6.630093930183095
238.25261120399998,-4.049081494803719,7.089668647333546,-5.334939043260281
238.753942528,-4.517722577018094,6.032139666982343,-6.457623130365673
239.25026058163266,-3.512177399449611,5.722735838626795,-6.820125902270393
239.74657887599997,-3.6567154511725537,6.453373984705069,-6.903776058023024
240.24791042,-4.905107671472043,6.1692570484655285,-5.355707660852788
240.74924156400002,-3.3997535096707843,6.182979485849895,-6.949683082145148
241.25057261999999,-4.285968873230356,5.686099524355303,-6.704458591189745
241.751903934,-4.107378453874454,5.980850304630638,-6.012260975551982
242.25323516,-4.546134363040971,7.4217176600686505,-5.418164370194384
242.74955292244897,-3.8048165201201436,5.535311292201019,-6.988178742430906
243.2458707,-3.763013381948811,6.053871360770142,-6.93743878439251
243.7472018,-4.214378759723042,7.576163385211425,-4.777967129983789
244.24853282,-4.075125081179195,5.7633297786131035,-6.804281930048405
244.749863874,-3.8876084565519613,5.8622394358504195,-6.883429774605262
245.25119486,-3.8550352247971476,6.35681399131823,-6.3248109858771695
245.752525746,-4.743696762263808,6.425044835709481,-5.275684019205466
246.25385664,-3.5369578588758723,6.527804032715812,-6.651997418780686
246.75017386938777,-4.356722656404244,5.691177324881889,-6.366623598734631
247.246491082,-3.701337119407936,5.982665552500449,-6.870134254251837
247.74782226399998,-4.651100671193309,7.564946583936489,-4.7758913042313305
248.24915342,-3.8860049900807865,6.111114336526246,-6.858630709026137
248.75048432,-4.106323556788916,5.833867991128458,-6.361652956019501
249.251815126,-3.7819228637688194,6.612798490350144,-6.311360540285939
249.753145706,-4.957510511182447,6.532124377923189,-5.1570080278923
250.24946300816325,-3.818779760382151,6.3206615158379735,-6.7458390280053315
250.745780372,-4.461486456170279,5.6544125149659825,-6.2106209058190975
251.24711100000002,-3.771996413547799,5.8740607711003205,-6.7515702061066865
251.748441756,-4.324244648655986,7.75546598742235,-4.846082758881848
252.24977248,-3.912315589413859,5.455429797044944,-7.2265696186633805
252.75110256,-3.9134031675207153,6.190356851190617,-6.534007571928864
253.25243257999998,-4.134475886068674,6.384319578131595,-6.045446566565729
253.75376312,-4.857562249020773,6.373294701664726,-5.644416448618472
254.25008034693877,-3.354775435280745,5.736902785088023,-6.901197741000622
254.74639747,-3.8995123538696026,6.591653849905761,-6.741041997737228
255.24772787999999,-4.674601593694539,6.127002896107512,-5.492765053113162
255.74905847,-3.7222543351775563,6.57155615409278,-6.763256212763293
256.25038902,-3.905508084043154,5.5311672120361175,-6.761555017239034
256.751719556,-4.231110488451886,6.1056575615119195,-6.292599628308059
257.25305008,-4.308351572777749,7.452689031763095,-5.065030271422301
257.7493671428571,-3.671401205339509,5.350988795038941,-7.363125692772655
258.24568419999997,-4.305582451834369,6.22442376591658,-6.61816922854162
258.747014032,-4.648417867280926,6.2914926243995435,-5.499400668871623
259.248343852,-4.829845998991201,5.519078539941236,-6.926803139290163
259.749674414,-3.61334218710541,5.427059717703353,-7.029469049847312
260.25100496,-4.047286710792096,6.357142408255786,-6.537449069874742
260.75233491,-4.877409077612807,6.201626478881897,-5.255364078928168
261.25366482000004,-3.9953061550026963,6.273848860244108,-6.855022714921433
261.7499819,-4.187917624761665,5.887196830879703,-6.496788263918025
262.246299,-4.307666222251948,5.996426503729772,-5.935525144500954
262.7476289,-4.234849768483327,7.340003076362542,-5.73574947481427
263.24895872,-3.895891503155566,5.493118213670938,-6.827517193416354
263.75028888,-3.886818518901521,6.240426603376046,-6.20665402548192
264.2516189,-4.545710614352446,7.530148014517899,-4.7678309925887365
264.752949,-3.9886404138800553,5.876038643401048,-7.080016930944185
265.25427909999996,-4.0204402258957606,5.797843986290617,-6.76096217101226
265.750595844898,-3.937431671434691,6.508107605865962,-6.07470893916095
266.2469127,-4.756650951266772,6.506292179127293,-5.41328592367354
266.748242244,-3.7097980639561814,6.152776271928762,-6.835575364730951
267.24957173999996,-4.80587963075941,5.984783212150173,-6.350461072304789
267.75090152,-4.5324761227855115,5.802750804239568,-5.759100056636385
268.25223134,-4.281719224768673,6.697901246324774,-6.293121413342578
268.75356131,-4.152620710022453,5.648011812904992,-6.551232779035698
269.2498780122449,-3.9441969441169418,5.79836683654274,-6.756080358713754
269.74619442,-4.265437166568194,7.352672874360621,-5.213737624462149
270.2475241,-4.191912087396898,5.333990659144232,-7.190983034465529
270.748853492,-4.046322028091724,6.293925551378249,-6.5922355037578315
271.25018282,-4.039878471672027,7.113241103253772,-5.425792027376994
271.751512584,-4.259930011398406,5.836817879842729,-6.87816205384301
272.25284236,-4.112273865525092,5.890451046723788,-6.809150146712588
272.75417200600003,-4.105603873300461,6.4474337685168726,-5.750839633500104
273.25048836938777,-4.886471645563746,5.606782609838442,-6.969774559236961
273.746804676,-4.2493146472255185,5.505502319428491,-6.593090115291077
274.24813428,-4.060830499539606,6.13231034682694,-6.543659031245121
274.74946403999996,-4.957571584690956,6.114208371080869,-5.764522868356704
275.25079376,-3.9409949385039833,5.229426377621882,-7.210497604400948
275.752123392,-4.630192876294329,6.088282368093295,-6.714582689103796
276.25345308,-5.076651991856224,5.880919382993182,-5.221101471954053
276.7497686285714,-4.1246889781467715,5.757357550331357,-6.958778137363836
277.24608402,-4.706301638941927,6.025324481257952,-6.612198023894966
277.747413572,-4.644146817941712,5.773906365263554,-5.756986797929412
278.24874304,-4.48196683807508,6.33243205492473,-6.5596630511736045
278.750072446,-4.349099232838097,5.312586308387291,-6.775644971521169
279.25140186,-4.3366530310580735,5.558570315242904,-6.439282192414549
279.75273142,-4.287747717584781,7.208019686300405,-5.673413458664259
280.25406096,-4.175768854901312,4.990163059336086,-7.252515644493823
280.7503767571429,-4.217995740795263,5.9868337973402745,-6.739039249361543
281.2466925,-4.744305911623159,6.984608084942537,-4.930397156557808
281.74802176000003,-4.236506154306027,5.2332102483082625,-7.480701420262751
282.249351,-4.342147831304851,5.781249181294778,-6.790321730374797
282.750680044,-4.311189333393059,6.683481565245496,-5.568490357411841
283.252008942,-4.2402650217862305,6.06591492710804,-6.542168112202706
283.75333864600003,-3.989141964362044,5.942592682497665,-6.8081093665935875
284.24965500612245,-4.359529626333043,6.204810190309226,-5.962080637278212
284.74597086800003,-4.331196595260952,6.373076241487107,-6.463527749054684
285.2472999,-3.973308078758601,5.2488384970479,-6.982135889087829
285.74862906,-3.742616048584576,6.416330922457221,-6.65899219809657
286.24995818,-4.657707177106667,6.379718702689951,-5.5424332102247185
286.751287398,-3.7391475657031434,5.549222436370392,-7.130041887558498
287.252616538,-4.510934070854924,6.2505817859762125,-6.627500935731761
287.753945354,-5.315215293227663,5.389303648965673,-5.844675956198489
288.2502607857143,-4.230958890248412,5.573774745022395,-6.822531678680691
288.74657632,-4.1111474352621515,6.514600388586379,-6.850062668242746
289.24790522,-4.747008242388351,5.826722972482603,-5.676838754908656
289.749233988,-3.8475848397613794,5.457958472095126,-7.234297734684889
290.25056268000003,-4.326216186161051,6.136631087370599,-6.759520333730026
290.751891884,-4.989534261447684,5.655760307872465,-5.839938260804834
291.25322114,-3.890904976559568,5.844663997897039,-7.06438136636672
291.7495364571429,-4.478436917567792,5.462393942126396,-6.6996262990056605
292.24585168,-4.098960164755014,5.581256429672855,-6.440777243691746
292.74718087,-4.600149575687391,7.231307735843957,-5.667705807969607
293.24851014,-4.136289575569148,4.764297597824526,-7.495723993416674
293.74983903,-4.34335763710809,5.882435980590739,-6.720159334837387
294.25116787,-4.10300580347353,6.674955880387524,-5.795039683077453
294.75249699799997,-4.341915894787038,6.032539733932916,-6.561912297483116
295.2538261,-3.7339188050328005,5.46084124092489,-6.856870215020076
295.75014206530614,-4.211549333094222,6.295929666717239,-6.755876215070476
296.2464582,-4.7989682882006255,6.120928664977348,-5.353260704581495
296.74778698800003,-4.01447408860263,6.165967472490626,-6.919222641515962
297.24911568,-4.11711243290728,5.706292882116145,-6.502861400022008
297.750444782,-3.988572342052414,5.872275171625741,-6.9312753143154735
298.25177388,-4.570126493236607,7.139174615789921,-4.931822217115704
298.75310321,-4.34498747780362,5.5939245663818635,-7.116724234313645
299.2494193653061,-4.099181081823403,5.702328961537436,-6.704579099332981
299.745734874,-3.989316237384308,6.147781035855793,-6.397485517187935
300.24706360799996,-4.814541023358055,6.115949785269258,-5.708939208796223
300.74839244,-3.851347903481787,5.659949362310125,-7.207266122042347
301.24972117199997,-4.399226426154802,5.565914443063621,-6.78775092952895
301.751050502,-4.282886027072943,5.728322019860444,-6.3135272443325
302.25237993999997,-4.9619558689154175,7.128479642477782,-5.030018695324851
302.753709022,-4.031577929970537,5.586394815543509,-7.184964557632206
303.2500248367347,-4.440466990225036,5.760180116329998,-6.7403920509755615
303.74634032,-4.302141474790823,6.206426911812864,-5.932340146470707
304.24766904,-4.8144821913715905,6.069766453945737,-5.891456761924473
304.748997996,-3.742206478878414,5.358167852315286,-7.4076004274450575
305.25032694000004,-4.262981122319035,6.108016209226878,-6.447972189244577
305.751656084,-4.064496822004032,5.846498422180991,-6.6612923907526325
306.25298526,-4.70880709369514,6.906707622566795,-5.341180259030713
306.75431432,-4.222430880290965,5.7469029525939614,-6.8357197469220035
307.25063005306123,-4.194210218103631,5.245259836395738,-6.893962697307924
307.74694568,-4.363101603162162,6.243855097485823,-6.297613180739878
308.24827452,-5.053492818255767,6.095340636302674,-5.552117498085453
308.749603834,-4.373097874636668,6.317372948946596,-6.408220040064169
309.250933204,-3.9444943473443397,4.782832626614654,-7.192415320766324
309.752262164,-4.446703875135072,6.079203660880165,-6.779400592157259
310.25359108,-4.394029474557233,6.555666898669792,-5.5195884982026255
310.7499067020408,-4.360248558514235,6.580072690936613,-5.952788386937561
311.24622225999997,-3.66207615551584,5.435930143763853,-7.134320825950223
311.7475513,-4.479578385629057,6.380670080305359,-6.404597874468396
312.24888033999997,-4.499549043699287,5.811677003643046,-5.887029209721103
312.75020934,-4.389304555501608,6.397670249248434,-6.370393717139364
313.25153834,-3.9390661000251925,5.127537599235695,-7.193892351016652
313.75286728,-4.252825316582738,5.9330791361865485,-6.924013859062054
314.2541962,-4.036112708342617,6.824734608287262,-5.615287999626902
314.75051155510204,-4.389673314752967,5.953733298334706,-6.748500149602899
315.24682676,-3.9279744723182364,5.263278664885089,-6.7953386032628575
315.74815591,-4.051324989806657,6.447977201527178,-6.5660521266741805
316.24948520000004,-4.807189204486441,6.111813858713398,-5.3579665112767465
316.75081406000004,-4.111803721301344,6.377829396636614,-6.8188439249821
317.2521428,-4.257631495373568,5.491994873059934,-6.616852136851639
317.75347202,-4.107581601825322,5.889725893565986,-6.671853089728769
318.2497880122449,-5.2714963869790825,6.923702215143545,-4.713214298296135
318.746103528,-4.1091833885052145,6.109169106634818,-6.891771313288726
319.24743228,-4.6788598240333945,6.056816164056328,-6.1168922625390785
319.748761296,-4.265196501163605,6.306053765387437,-5.9241152030340025
320.25009042,-5.140246437841232,6.371603229251634,-5.396218655381232
320.751419494,-3.7674474196750163,5.558011489365144,-7.053052068944894
321.25274866,-4.822105508070428,6.6571360025613835,-6.1918440832280535
321.754077736,-4.110734950856966,6.364284932355393,-5.559979208887473
322.2503935653061,-4.201251431166729,6.23153845996363,-6.713815701259409
322.746708996,-4.2706162238598,5.72731596844324,-6.581125858269838
323.24803756,-3.9744346117589338,6.300130564846378,-5.955212761858635
323.74936673,-5.224437674079594,6.62579228656156,-5.73883788973959
324.250696,-4.152012422843016,5.2418277881368445,-7.142988155468077
324.752025114,-4.305431698235839,6.052204516878996,-6.631212728250713
325.2533543,-4.430395747677941,6.750380128037489,-5.409066531528769
325.7496696714286,-3.90909415898433,5.429559630961281,-7.360395500612224
326.24598478,-4.054178672497354,6.531864613277001,-6.452249481399084
326.747313924,-4.558375075771931,6.597747567081716,-5.3073678995211715
327.24864322,-4.774759848928384,5.443393910843187,-7.112196498229515
327.749972132,-4.394190883344753,5.735871988594474,-6.585196418856159
328.25130092,-4.147571607348517,6.598277198066345,-5.72481448776142
328.752630144,-5.052414579581904,5.7306755276749675,-6.526661338426944
329.253959584,-4.055074557228728,5.6228283076232835,-6.744298068894839
329.7502752020408,-4.118729968760326,6.555957837289428,-6.129298721500273
330.2465908,-4.995251096012527,5.857441307404134,-6.0638936559848515
330.74791982000005,-3.826676681118334,5.613689357157387,-6.9108710596749585
331.24924886,-4.373296557690948,6.061955877002874,-7.079969629180778
331.750577844,-4.657547631728219,5.882392077078118,-5.621439992441583
332.25190686,-4.1821317002192355,6.03247077811551,-6.900065328368149
332.75323603199996,-4.35484685728865,5.8616106508636445,-6.576741136603164
333.24955194693877,-4.799616917053521,5.882732925460682,-5.680842296226835
333.74586779,-4.142247580491655,5.988564594947377,-6.891116623819088
334.24719696799997,-4.420371785717871,5.88072581708699,-6.4891557333383005
334.748525986,-4.801815156816984,5.702170168141337,-5.822304471812328
335.24985488,-4.808055793263105,6.512599488656672,-6.438261860617633
335.75118398,-4.1364378346609785,5.423366506762961,-6.894819477345391
336.25251307999997,-4.337002541881393,5.757800211679114,-6.565274877633453
336.753842124,-4.526924722285559,7.173899450560267,-5.15856969613199
337.25015793061226,-4.027457067167795,5.04339908722257,-7.579724249495775
337.746473794,-4.348607389251637,5.95753244369646,-6.674164825081813
338.247803,-4.431452275865097,6.727927356181302,-5.384125769706161
338.74913215399994,-4.342685747216539,5.463906257484118,-7.154260730290443
339.25046133999996,-4.490345440994634,5.948234530024463,-6.472947077205954
339.751790432,-4.324899036639115,6.921962923116607,-5.227789360890203
340.25311942,-4.2896665016560656,5.467724999050902,-7.198804619069767
340.7494352979592,-4.311774112707579,5.823721411903213,-6.7374126043501406
341.24575116,-4.156841284135648,7.163002936458926,-5.127354692558287
341.74708039999996,-4.24226949902885,5.278393562927293,-7.372308980233646
342.24840967999995,-4.444965582891455,5.870556235370136,-6.6443445011939435
342.74973879799995,-4.5038448678974925,6.929182483720058,-5.166107302091245
343.25106782,-4.722216588744021,5.19611497827134,-7.122466676520687
343.752396972,-4.438448363028375,5.787425289104646,-6.637296163891816
344.25372603999995,-4.564884410562618,6.049738160648425,-5.761362468764134
344.75004209183675,-5.002692282400718,5.618327577228258,-6.576644553404899
345.24635832,-4.2790100698020135,5.5732894926672065,-6.482011809826879
345.747687706,-4.521095705190026,5.880961331060146,-6.67679769579187
346.249017342,-5.401730898586996,5.936151635071538,-5.327831739177486
346.750346564,-4.034324838087415,6.178258742385876,-6.763747992398662
347.25167569999996,-4.83043316426078,5.307186646452366,-6.358946581901807
347.753005054,-4.433317538040495,5.753737929529394,-6.129288301804561
348.25433442,-4.666409420616294,7.066348137786045,-5.728397777793972
348.7506505877551,-4.278068097485673,4.8814670670015134,-7.1617265335554485
349.24696689999996,-4.3181858416510375,5.832918535171925,-6.870074226905445
349.748296158,-4.7673538517024925,6.853994037072936,-4.879784684913394
350.24962534400004,-4.447952352324507,6.465952052533908,-6.349935547465574
350.750954708,-4.024337308832071,5.475031124320441,-6.817264231664512
351.25228394,-4.350632956068924,6.37837020103663,-6.3453997858316145
351.753613314,-4.759507762163633,6.382136041220654,-5.217726325969741
352.2499293836734,-4.059225953431485,5.922754227174409,-6.747152088026461
352.746245804,-4.89458344013881,5.441779329048736,-6.4659817989168165
353.24757578,-4.3750846967250485,5.831122133427209,-5.96458477248024
353.74890548,-4.752721725403301,7.124550031703055,-5.561051624473197
354.25023532,-4.677276208010431,4.730307253252639,-6.992482243846203
354.75156471200006,-4.078625824786594,6.367124378145802,-6.50108054061085
355.25289384,-4.528173576132619,7.340776850358654,-4.90737140786292
355.75422372,-4.719835002564124,6.064236010700208,-6.304068787166856
356.2505405795918,-4.164473151748922,5.270454253300091,-6.770703411937742
356.74685711,-3.797378337445049,6.503616990469258,-6.253076278100692
357.24818700000003,-5.296797050119918,6.3277227735104535,-5.165415657864716
357.74951692,-3.9752111416333844,6.142669958555797,-6.765820233709458
358.25084684,-4.383047068183273,5.8648226221102435,-6.545390205572813
358.75217662,-4.504206425749,5.915973608919046,-5.640116683811644
359.25350602,-4.917891140027326,6.864273603385435,-5.445294800128692
359.7498226755102,-4.260926089034689,5.333791912837876,-6.842233811607161
360.2461393,-4.444506338935505,6.08076557607757,-6.70034741463037
360.74746911,-4.331131877802525,6.370207359017253,-5.5671545801438675
361.24879898,-5.082409550476197,6.275052543753875,-5.540414661188413
361.75012884000006,-3.816804400222007,5.561437661318748,-6.984865474215554
362.25145872,-4.549365590069652,6.3126424601675355,-6.519422694325645
362.75278856999995,-4.767951796586161,5.953374454736235,-5.4714998813536955
363.25411842,-4.5181743241445504,6.990496117000334,-5.901505726407509
363.75043508163265,-4.540818697383342,4.684584531261223,-6.747240723529892
364.24675182,-3.9550316580473437,5.803476861902726,-6.882004120813536
364.748081608,-4.875715854877562,7.437778308839797,-4.682300088882538
365.24941114,-4.735404710787077,5.3762505107259235,-6.8716591310468225
365.750741162,-4.165687795399817,5.7217750185383105,-6.731342913922192
366.25207142799997,-4.3576148276275415,6.23998060673005,-6.169364629528859
366.75340108999995,-5.059816424289794,6.304587823963,-5.234173761886769
367.24971724693876,-4.12015420916437,5.676765282497759,-6.935277052688109
367.746033922,-4.569081825353454,5.929434728920549,-6.589297458857271
368.24736416,-4.735538757348568,5.627601191009089,-5.460079384822767
368.74869380800004,-4.815181663990703,6.710543715598698,-6.262446766975006
369.25002314,-4.2520686338842,4.990973441220107,-6.949488253054216
369.75135278,-4.3038411484928165,5.756289858172809,-6.6264995109730975
370.25268236000005,-4.897139673242774,7.259096634755891,-4.831349240466347
370.754011988,-4.491579600413585,6.014070373845146,-6.687331732020617
371.2503283367347,-4.672933483679877,5.379443855041678,-6.620800442354779
371.7466446,-4.607394398337417,6.270980619970249,-5.7129017276492196
372.24797420000004,-5.4433977793715345,5.787108423998361,-5.919398618141724
372.749303706,-3.9787464718867875,5.481373887614728,-6.865934347261673
373.250633068,-4.430032744368238,6.492371757970509,-6.397752180163516
373.751962766,-4.746632944518507,6.285298129926372,-5.307537359903808
374.25329256,-3.747039759933589,6.190647207213674,-6.978326629676242
374.7496088836735,-4.81108835102378,5.937584253036193,-6.459727877551859
375.24592537999996,-4.82623757251659,5.88128281587033,-5.624078155878923
375.74725484000004,-4.551775628780057,6.633338655263708,-6.314505974554238
376.24858426,-4.081512975831346,4.804031103293374,-7.192118898663997
376.749913646,-4.248239623212724,5.8215675086902365,-6.1702740847597815
377.25124284,-5.217394273411266,6.731377726429059,-5.612823574866088
377.752572308,-4.448357893559268,5.325980567365052,-6.8913484191411705
378.25390162,-4.488993534047982,6.020726287328107,-6.548727437388377
378.7502178142857,-4.3868322239795425,6.981080040603489,-4.995377859810162
379.24653398000004,-4.291672316792883,5.291888822799171,-7.269705603716253
379.7478635,-4.625831527756443,6.242430971354443,-6.40051590982143
380.24919289999997,-4.574238037219004,6.217637015213484,-5.565703591109016
380.750522614,-4.623315530842238,6.069454800421163,-6.64821409761895
381.25185270000003,-4.206279955005387,5.753386354611429,-6.657586736815616
381.75318184,-4.3174661707351865,6.4825522335851335,-5.682320243114913
382.24949722448986,-5.023428936061391,6.2252049570077705,-6.082533527881301
382.74581336000006,-4.002371161675999,5.700660225647243,-6.565681610412425
383.24714272,-4.537412061163608,5.9844913848927535,-6.420010811080176
383.748472084,-5.521506852709445,6.061329514658253,-5.427305101292852
384.24980151999995,-4.079822127706953,5.509745131318191,-6.940176521763179
384.75113083800005,-4.540207301426387,6.210835694348747,-6.472013155982289
385.252460264,-4.9429123018733705,6.116436564121557,-5.444875474450834
385.753789676,-4.063427291795679,5.465009929308962,-6.973353477720184
386.25010598367345,-4.752818757794856,5.771421225844172,-6.7223353758069875
386.746421924,-5.248540968289648,5.910222948051295,-5.558635825893244
387.2477511,-4.449461690633683,5.833700477089779,-6.807996186420569
387.74908028,-4.6203621829712525,5.659411073688346,-6.589703900512105
388.25040952,-4.584947009690496,5.87015465771879,-5.537703568573106
388.75173853599995,-4.692002476983785,6.625544609928406,-6.385805689331806
389.25306728000004,-4.285174773678402,5.094692633817397,-6.876162470785597
389.74938321224494,-4.225123149283969,5.8356819909753,-6.104141032612499
390.24569936,-5.114132167569828,6.995076279450584,-5.556196070007766
390.74702836999995,-4.235333595333244,5.022871662769251,-7.315302647785595
391.24835706,-4.3956642715627305,5.643190989032355,-6.5367482791463525
391.749686248,-4.9324111940963355,6.808323535232703,-5.413181248673846
392.25101548,-4.448923138907833,4.8119994718642465,-7.338269577938971
392.752344612,-4.409767420622016,5.827900171607456,-6.657761928998119
393.25367386,-4.765319816250278,7.009011697905375,-4.963412025763848
393.74998945102044,-4.106971383744482,5.831577091728985,-7.1218104987324296
394.2463048,-4.296888616341565,5.696910439734617,-6.670906856857115
394.74763378000006,-4.019749177281252,6.706079654118315,-5.704137619797733
395.24896278,-5.092808940016753,5.942911149598576,-6.1224821175489
395.750291806,-3.625304227108326,5.526113052918915,-6.955302435115714
396.25162098,-4.379055526789804,5.763946997690641,-6.945978471406257
396.75295004599997,-5.078603790900472,5.924669800083815,-5.472787445185459
397.25427920000004,-4.317321986417047,6.1887738238298695,-6.779741639507051
397.75059475510204,-4.4511196242451305,5.01586200847816,-6.784903853196108
398.24691013999995,-4.100099462798096,5.449670104796828,-6.840482318246245
398.748239098,-5.042314628598556,7.351363068333336,-5.110668060183642
399.2495682,-4.189510704565159,4.983947888151838,-7.142344563678705
399.75089710400005,-4.4708863433669315,5.938745918713566,-6.790459662848389
400.25222612,-4.341434500015901,6.234460665089638,-5.686828441382743
400.75355475,-4.876514343020277,6.004958575760047,-6.206082958723129
401.2498695612245,-3.9108936114706014,5.426866247166966,-6.971439084159085
401.74618519800003,-4.549802765268015,6.053964613590134,-6.608953336640889
402.24751444000003,-5.062250232267793,5.632265902193643,-5.376998336541603
402.74884320999996,-4.822834618086472,6.813516999346053,-6.014957594920627
403.25017199200005,-4.164537814346351,4.911532741952328,-7.19366530288848
403.75150088000004,-4.5686066120000905,5.864918727639698,-6.73358201676671
404.25283002,-4.123334991730748,5.989213487409345,-6.3743062901121155
404.754158798,-5.0662870477352655,5.9055538480981715,-5.448040830456997
405.2504741510204,-4.255165646462428,5.9743499600530345,-6.9189918278535245
405.74678954,-4.55302711503571,5.391870498768864,-6.397359372355905
406.24811812,-4.172700406946245,5.839389240229069,-6.723958708934206
406.74944684,-4.7765170026677755,6.891625468377514,-5.14262234023014
407.25077564,-4.505531257722397,5.926069621635213,-6.552911170988101
407.75210438,-4.325986129314223,5.302714845465074,-6.70559013840595
408.25343308000004,-4.543008371036953,6.065062669227021,-6.617212530493427
408.74974855510203,-4.956535083311349,5.834393724568728,-5.5608238344647285
409.2460641,-4.666215479248576,6.404172698364291,-6.365359430241459
409.74739259800003,-4.340319308367381,5.206867434568395,-6.9217545838096965
410.24872048,-4.545990005019615,5.972384140767802,-6.589036237556266
410.75004917999996,-4.206424868710048,6.502837068424972,-5.567418337985822
411.25137832,-4.582808499241265,6.241288727078001,-6.059675551530535
411.752707,-4.1405870580472905,5.584741419726499,-7.076661970157292
412.25403595999995,-4.680039644323554,5.469097657748583,-6.503061732444752
412.7503512489796,-4.217541673160193,5.567600928573484,-6.864562430527039
413.24666638,-4.924260114198318,6.741530668334977,-5.134202639949368
413.74799507800003,-4.315751061225933,6.216940587722641,-6.545075423472152
414.24932376,-3.903108079344116,5.550118564485941,-6.800006924631589
414.750652432,-4.249713935087253,6.362366390671122,-6.494928501027946
415.251980958,-4.649666770837364,5.962642121405422,-5.390122810018977
415.753309726,-4.479799233172595,6.831604120976322,-6.201716788233565
416.24962536734694,-4.078322430329921,5.054589334915381,-7.081237719789397
416.745940748,-4.255940802737984,6.266212507633575,-6.705319815696194
417.24726922,-4.315910025271209,6.501646831541166,-5.781119567504163
417.74859798600005,-4.392559746296506,6.487116682672206,-5.844728291469425
418.24992663999996,-3.8501257938519133,5.4876463672918385,-7.114351373820649
418.751255688,-4.472877985693682,6.408169998587059,-6.373262172689042
419.25258520000006,-4.855740529107981,5.847194196710101,-5.72828859663587
419.75391414,-4.735973287682212,6.047301282380756,-6.496696740581324
420.25022914489796,-4.397198902755741,5.330071427188452,-6.667175326536639
420.746545264,-3.9911345379403387,5.7433922345823785,-6.685382016695606
421.24787532000005,-5.2034436156482045,6.791043615744501,-5.308932078789793
421.749204636,-4.316567684306059,5.7485532818210245,-6.984876300652189
422.25053377999996,-4.527527022596745,5.834131170270127,-6.340276471771964
422.751863208,-4.220570488489111,6.113776500475193,-6.428721476425355
423.25319254000004,-4.847736587630045,6.564596227098864,-5.083854442317456
423.7495088244898,-4.144241071914923,5.5774727462904625,-6.939696310370496
424.24582518000005,-4.673019658740244,6.266963864675176,-6.416916950776802
424.747154776,-4.549257762237452,6.113292292618059,-5.487118230220238
425.24848442,-4.6699396749605615,6.655715566109893,-6.2223739336509425
425.749813928,-4.519536641856879,4.9378571862144645,-6.799961022465986
426.251143,-4.344351698464789,5.950368627280084,-6.106349701020029
426.75247279,-5.19022376519423,6.862644052783465,-5.442041045684758
427.25380336200004,-4.209322883009047,5.553733558504206,-7.020081306099203
427.7501197591837,-4.704114028347568,5.669338685023395,-6.765532507581592
428.24643602,-4.779720840205417,6.678727055707484,-5.204130906791263
428.747765946,-4.563372429630218,5.623863820195214,-6.833201512992557
429.249096242,-4.529154971041239,5.719042926007983,-6.619982177983096
429.750426248,-4.3289748048905725,6.54087399964969,-5.61792932659273
430.251756242,-5.07754615435957,5.831875068643668,-6.481548833312149
430.75308632400004,-4.509711346243808,5.299370726630071,-6.692658366227439
431.2494029897959,-4.8201142204927585,6.130392889601648,-5.5492978919008396
431.74571990600003,-4.897279221699454,6.097126014154842,-6.300985509656044
432.24705006000005,-4.136633570415272,5.261022900829847,-6.891691932646508
432.74838027,-4.534815989564043,6.28660153936783,-6.560555844057169
433.2497102,-5.362561469948259,5.848574772454373,-5.501910590953887
433.751040628,-4.05239452036138,5.377425878710212,-7.015781023197817
434.2523713,-4.51823123858082,6.0588118464551135,-6.748330793492549
434.75370193599997,-5.498442396548056,5.699032163777217,-5.164027246342839
435.25001962244903,-4.196010625331664,5.643984262531308,-6.880344667639651
435.74633709,-4.89627526532938,5.624106810587217,-6.921992854962475
436.24766834,-5.158562071923655,5.693917898705311,-5.557970956138469
436.748999136,-4.442706939949132,5.924754082936118,-6.850085080126041
437.25032956,-4.683051918868161,5.373720254308949,-6.580355868414428
437.75166056,-4.7237285891244385,5.939248930334552,-5.793846808126859
438.252991546,-4.600244374001001,6.522576438892787,-6.601308575924164
438.754322732,-4.275683917532838,5.0366195388002675,-6.885401488786965
439.25064115102043,-4.328191207489621,5.266507659800129,-6.696205645105494
439.746959144,-5.049238369666162,7.160002192420879,-5.257605465836459
440.24829058800003,-4.438730613165166,4.885224584259298,-7.424132723629834
440.74962207199997,-4.379799940148297,5.852641500464288,-6.881792128899473
441.25095338,-4.516666619083188,6.590804098707765,-5.355443411650924
441.75228500800006,-4.793427847606975,5.476175063152327,-6.86828371277975
442.25361685999997,-4.4808160487119935,5.574385891917095,-6.780076305973876
442.74993536938774,-4.636081068390771,6.306000376127257,-5.420292309394022
443.24625418000005,-4.9631118213672325,5.676739410235339,-6.650245897417571
443.747586048,-4.229234359640833,5.70751459961926,-6.666985647759004
444.24891738400004,-4.306702811685104,6.193805230235069,-6.308607784718044
444.75024944800003,-5.206611825358067,5.7747727586668285,-5.891593614442728
445.25158162400004,-3.9203354140415985,5.334342877196069,-6.935398376374079
445.75291383399997,-4.414403743253059,6.394178455219564,-6.847996647335641
446.25424632,-5.232793356218284,5.48232457649852,-5.753951423715513
446.7505654102041,-4.536882981764473,5.854472998541059,-6.6477350970525055
447.24688463999996,-4.662839203983515,5.3428557948158915,-6.3648945376181265
447.748217268,-4.968182228363868,5.647108014717485,-5.172743082527137
448.24955029999995,-5.18767034896979,6.6891033990219215,-6.227799904601893
448.75088300000004,-4.415881422582642,4.798755871033739,-7.360057623591502
449.25221536,-4.264474348723085,5.71877511266665,-6.840742147141134
449.753548252,-4.441239471563227,6.079986015627242,-5.9034184841513255
450.2498680306123,-5.3695264758888195,6.5550832213306425,-5.077577134360671
450.74618781,-4.2598375482176625,5.936437604207559,-6.600983206241856
451.24752094,-4.297078370906867,5.491227338724128,-6.601040633970399
451.74885427000004,-4.137287589088411,5.68639098262012,-6.720543791685967
452.2501877,-5.033413674517072,7.226441667686873,-4.913248593403232
452.75152134,-5.208480002232891,5.999120062134843,-6.082735787481303
453.25285472,-3.9357266550726906,5.366547336437489,-6.858539840239303
453.75418835999994,-4.4881069952698835,5.800224281617691,-6.516674227407674
454.2505088265306,-4.462572494911539,5.504761537751329,-5.672373563436718
454.746829296,-4.957679401894069,7.384299369730278,-5.133244578035136
455.248163002,-4.325027629152728,5.591451075256887,-6.771363971789076
455.749497034,-4.331982312271575,5.405658601309795,-6.632792753947922
456.25083126,-4.489983793461125,5.9834957990872555,-6.6837700533272075
456.75216532999997,-4.439538228723186,5.657747387115276,-5.875930736906916
457.25349928,-5.108927332975294,7.176410264780389,-5.279260053063082
457.7498202142857,-4.286895787175814,5.349991928908851,-7.11198067662131
458.24614110000005,-4.461986688310247,5.643843776423961,-6.459161967638525
458.747475424,-4.372299025203367,5.937415003257419,-6.5194366760088265
459.24880967999997,-5.233850555080214,5.629173958559652,-5.3183874283020875
459.750144236,-5.0334224986873135,6.414767569746049,-6.093396461571106
460.25147938000003,-4.303665385184658,4.765627910965576,-7.067525100968192
460.752814,-4.519505630851299,6.342759537531989,-6.536689498183112
461.25414859999995,-4.219712580348508,6.055560426284902,-6.302355163948195
461.75046990816327,-5.261018261839085,6.090669098403194,-5.218203445074097
462.24679124,-4.4035206317703,6.1134118680716885,-6.693841207461031
462.748125896,-4.437663038020309,5.08940411070425,-6.657592080267842
463.24945994,-4.3736301777769215,5.8157315690215485,-6.722487239764174
463.75079478400005,-4.8108960000729795,6.830912383031585,-5.071227102269264
464.2521303,-4.694538984020011,5.747281371634971,-6.699264465398295
464.75346511199996,-4.368148996115951,5.531143862227922,-6.475566435647823
465.2497864816326,-4.180214046907251,6.030156231028696,-6.687281609162013
465.74610799000004,-5.195669520158398,5.9505090335185,-5.367754661867718
466.24744334,-4.753483238074711,6.370727827247087,-6.250591912698086
466.748778196,-4.352559172920319,4.745778643146093,-7.07178648106681
467.25011286,-4.567119587913055,6.077988141266866,-6.545304564935484
467.751447692,-4.615936447487138,6.37347310847201,-5.599861651176505
468.25278208000003,-4.703261690425669,6.0733931749947665,-6.0536065739511855
468.75411713200003,-3.975140134324911,5.46815065391892,-7.091378898461417
469.25043955306126,-4.900938327540773,5.794942315945938,-6.556666898097497
469.746761234,-4.623650732851209,5.735186947341799,-5.811260664630395
470.24809624,-5.272046812529989,6.27843381695534,-5.661703032733308
470.749431322,-4.3265616441670325,5.199037356403161,-7.129216522281042
471.25076622,-5.027302105831934,5.759772551754103,-6.55415982575207
471.752101426,-4.761184011532968,6.139664955626948,-5.671584391609741
472.25343682,-4.796424236123882,6.287007137969474,-5.949591622200029
472.7497587918367,-3.978750495094094,5.266964244776007,-6.973734197315627
473.24608093,-4.520045934441725,6.123868797933873,-6.756763862845147
473.74741626,-5.271624453674323,6.065799811972258,-5.158180887995019
474.24875128,-4.222909531126342,6.333954045081268,-6.743834487204217
474.75008671800003,-4.551536797252645,5.611338038424366,-6.3919543906037815
475.251422206,-4.100635099098983,6.192050599710362,-5.8926585371371605
475.75275782800003,-5.037965542333785,6.8008031342419075,-5.556521418217771
476.254093466,-4.080461252280126,5.6653786249686355,-7.044502124024418
476.7504158591837,-4.2669528755916,6.147490930406255,-6.546099204781629
477.246738322,-3.702452979325941,6.979545876990314,-5.5989273100622805
477.748074192,-5.011202770416454,5.743354625247332,-6.572007231817753
478.24941028,-4.3284762911292,5.6137959805167705,-6.779934438760292
478.75074637,-4.469764746709939,6.033476864962743,-6.094915125591277
479.25208296,-5.58473512684044,5.8473712406732,-5.889066390767457
479.75341908199994,-4.089841390775199,5.379543403779162,-6.93767539468377
480.2497413469387,-5.015929947875053,5.682267320506791,-6.462089086932805
480.746064334,-5.795618077570918,5.491986936309454,-5.369785634584284
481.24740102000004,-4.184301181760517,5.5488158159287595,-6.984694796479379
481.74873748,-4.5994094903309755,5.738150621359653,-6.744457200857248
482.25007361999997,-5.092931648096702,5.437182484353391,-5.100411903159259
482.75141026,-5.381055253679349,6.273811958008097,-6.147707508281473
483.25274748000004,-4.684145649951169,4.779461279722791,-7.1951507954518465
483.75408424399996,-5.18350400580645,5.771880310213963,-6.3910060227518315
484.2504073857143,-4.582424823284067,6.0632060406223856,-6.040867621902289
484.74673094400003,-5.2275678975456685,6.13311624926421,-5.542721631178386
485.248067666,-4.2055722051717375,5.409330070880808,-6.9953886673439785
485.749404878,-4.984824484906731,5.765024384552328,-6.475632966989914
486.2507425,-5.035781001081226,5.576524660693012,-5.700699612362594
486.752079864,-4.600106705442279,6.071027426912255,-6.834468827573111
487.25341796,-4.437010215419885,5.393846354929533,-6.822850569565785
487.74974205306125,-4.872351773602072,5.830744211449924,-5.667437219620176
488.24606570000003,-5.091056179006692,6.244399387526617,-6.386752863581153
488.747403378,-4.311019736189732,5.184639270486619,-6.821446617541358
489.24874204,-4.533930989447773,5.495252904847089,-6.2719045036244685
489.750079842,-4.844442059096912,6.775937389469837,-5.875372577675537
490.25141688,-4.210482635850278,5.119813595496759,-7.294418652087502
490.75275488799997,-4.482428349325473,6.098468486039691,-6.7017450740327424
491.25409334000005,-4.640720612541864,6.634211944994721,-5.3614601424089425
491.7504180673469,-4.866752977299071,5.140159681456813,-6.953509598819125
492.24674258,-4.553198668858354,5.807421590494808,-6.573911064279848
492.748080694,-4.52646287012993,6.514957907506999,-5.54312356197631
493.249418506,-5.1927301137352275,5.613785080039637,-6.6542435778033475
493.75075670999996,-4.488512060186712,5.449672503844447,-6.456540898563783
494.25209504,-4.492121100757826,5.909075328219912,-6.386219770433879
494.75343331199997,-5.396677080718563,6.083799569761612,-5.510828998227087
495.2497588469388,-3.7660394071602994,5.50101153312888,-7.326094601692008
495.74608378,-4.561958028091071,5.954475843578143,-6.524711096480618
496.2474218,-4.105826771326345,5.920108610027695,-5.821553771451254
496.74876021999995,-4.925915347861832,6.849115410270948,-5.75638042559716
497.25009838600005,-4.155004996015845,5.363147160737821,-6.88481058867942
497.751436948,-4.496639061703338,6.27214837610735,-6.5681823086625375
498.25277604,-4.309690578862843,6.205535105888642,-6.04587491652545
498.75411476399995,-5.0397440182833675,6.074157588666192,-5.618525126378429
499.2504404,-3.791150078627847,5.574992888721242,-7.213948039679465
499.74676592000003,-5.021291914510826,5.566238135979891,-6.316739963703672
500.24810537999997,-4.3783416176527234,5.534997286066545,-6.601558071555555
500.74944456,-4.895204566239884,7.01830823865497,-5.002463206142885
501.2507832,-4.408841299392741,5.560344002738556,-7.0661712175415925
501.75212228,-4.481859678971689,5.716387070530715,-6.532316142038593
502.2534618,-4.086370069547451,6.361096855901297,-6.314487725119051
502.74978764081635,-4.935822842032287,6.115518206123265,-5.397690387552848
503.24611309,-4.367166653644395,6.220507269547624,-6.7424020770471165
503.74745246,-4.4938321415667914,5.249297712920421,-6.530350662345061
504.24879245999995,-4.1623773818290495,6.0258404851578575,-6.71348722238065
504.75013207999996,-4.586836430098893,7.034525130739646,-5.109494819677283
505.25147188000005,-4.578175244655488,6.155748936753853,-6.3972355308999695
505.7528117,-3.7313412455178407,5.391892760882407,-6.910470913599205
506.2541508,-4.52292330890139,6.159960238689283,-6.63388599984928
506.75047749183676,-4.738904305963333,5.833725278204627,-5.384327858760325
507.24680441600003,-4.683316962319693,6.610525671101551,-5.9661731226855705
507.74814462,-4.306504344634934,5.430162734299288,-6.919387589431749
508.24948488200005,-4.626443849990885,6.131272907813508,-6.623444755547195
508.75082524,-4.259604797815013,6.021545166430145,-6.29698851156445
509.25216570199996,-5.231084806209136,6.509092908439962,-5.100035330437289
509.75350632000004,-4.396254381739475,5.6975734593897345,-6.904268168971629
510.24983449795917,-4.6170636161000225,5.418827876513918,-6.370306087212069
510.746161946,-4.377440443585498,5.567856483048201,-6.4247502515503045
511.24750303599996,-5.167872376193447,6.736111012571198,-5.155049835717486
511.74884402000004,-4.609178752395048,6.305431164157094,-6.455541663559049
512.25018469,-4.212838015316124,5.309881248813451,-6.781888467756197
512.7515258799999,-4.459580890638017,6.233816381029301,-6.250122222532616
513.25286765,-5.254825280740394,6.080136975822597,-5.059168203301629
513.75420904,-4.620412407645652,6.206279909310767,-6.367647196699874
514.2505363408163,-4.645986687087482,5.167051409929927,-6.63732008084604
514.74686446,-4.543539765085546,5.7824000543150875,-6.45918797637792
515.2482062920001,-5.2177836229103045,6.8005952702126296,-4.761088455510752
515.74954816,-4.364783785316,5.846416377418053,-6.753243724065325
516.250890002,-4.419339351363886,6.10300942284827,-6.5977464621551345
516.75223196,-4.474301049867577,6.197314467674301,-5.650460071953133
517.25357441,-5.168139420472885,6.584407601574476,-5.406298355256877
517.7499029244898,-4.026546843105672,5.8015920193980195,-6.641799410947426
518.246231172,-4.630083821593968,6.201707549360817,-6.711674019843164
518.7475732199999,-5.303271543943189,5.345161664105628,-5.121456905411576
519.248914976,-5.151919728921024,6.55937744940833,-5.778588246780497
519.75025712,-3.906502919969898,5.024698328920836,-7.315321816324317
520.251600304,-4.8947589744478,6.65196374248727,-5.798193692813373
520.75294276,-4.404362830374059,6.003032951353025,-6.410703472090577
521.2542852400001,-5.043671700358558,5.941022600787387,-5.23508765845153
521.7506144102041,-5.340743670609533,6.5823538400977295,-5.801108524705136
522.24694321,-4.2992053730466315,5.414594804067482,-6.658998532448402
522.74828606,-4.479111232039265,6.476635208239822,-6.520530720922621
523.24962898,-4.198890782498873,5.89357616226882,-6.063925302030887
523.75097182,-5.411005745696488,6.2875601469888025,-5.358833639335475
524.252315012,-4.486074215279033,6.004653974329493,-6.632002944284874
524.7536579399999,-4.682448915228874,5.164599108199264,-6.658740873844837
525.2499873122449,-4.405546585313071,5.507731386585284,-6.340210124377576
525.74631702,-5.328362114528542,6.975389026555046,-5.1374050310706005
526.247660252,-4.789722846828384,5.882919359901832,-6.6422936398143255
526.749003726,-4.667481042772281,5.136676807825005,-6.461314800754007
527.250347646,-4.1614305888818715,5.905501992560142,-7.043167063956722
527.75169144,-5.332392657085739,6.054433007105396,-5.484213088711158
528.253035246,-4.4530910002884925,5.804369331541076,-6.67593039016528
528.7493658285714,-4.820580649185741,4.778048948011366,-6.724994211195232
529.245696888,-4.522270718773976,5.609601712374161,-6.2955845386184
529.747041128,-5.616667703025282,6.6520865211633735,-5.218226708340961
530.248385504,-4.36525554610441,5.044743251461249,-7.304708051803583
530.74972996,-5.076492294063201,5.915571243704185,-6.230447895492729
531.25107466,-4.260115364652847,6.2390969893113954,-6.316366847521151
531.75241938,-5.311856955489426,6.011374128626346,-5.478870817608109
532.253764282,-3.948238598278916,5.715991741172799,-6.861711146747953
532.7500957877551,-4.7571586156286285,6.095137745048658,-6.5796707325777435
533.246427366,-4.566278932338641,6.060962546589049,-5.521024955152716
533.74777256,-4.686391148138028,6.631000506551326,-6.131722592061653
534.2491179,-4.2310120713531605,5.06146251319411,-7.157943423453519
534.750463284,-5.029861605583837,5.778462256255469,-6.342193968111109
535.251808782,-5.232111810152553,5.8508444807140645,-5.570207840522014
535.7531544,-5.3377727325852655,5.147380786706941,-6.939896000317093
536.2494860795919,-4.13801768971087,5.85344866477096,-6.6226061796988684
536.7458183599999,-4.707266557821318,5.492253259275601,-6.780043539365701
537.24716476,-4.426066956409834,5.753481009023536,-6.209192950191924
537.74851076,-4.694855409414589,6.428936717536609,-5.6679669568607345
538.24985645,-5.0095309347640855,6.203940447820054,-5.60211448440316
538.751202546,-4.290759288921589,5.467006136682145,-6.949494277282638
539.252548682,-4.459473825953904,5.117263317346825,-6.893109470593313
539.7538949799999,-4.159769518028438,5.953827301908491,-6.88867769111425
540.2502280163266,-4.575651370870705,6.676063983522455,-5.335876748087182
540.7465610200001,-4.751758602240074,5.920231246102445,-6.3745957016816375
541.24790708,-4.126631157189764,5.517671898704021,-6.8501415556433445
541.74925366,-4.595351654741138,5.496557568311462,-6.718866265584212
542.25060034,-3.9192124619193027,5.628015160514653,-6.545007449066776
542.75194708,-5.171824570952737,6.896784474405894,-5.386787063721974
543.25329442,-4.911665309511817,5.564509336253265,-6.663504751358926
543.749627889796,-3.940601252951093,5.335807095499347,-6.7831938180882965
544.24596108,-4.11015411483161,5.941203671397562,-6.999615484377443
544.74730814,-4.698137103154038,5.718426997151871,-5.529586486104996
545.24865556,-4.707513054639495,6.616806498466684,-6.156507589835252
545.750002804,-4.104805334071237,5.185408929161156,-6.977637870390584
546.251350284,-4.4193698066177305,6.074867688451142,-6.688016035892686
546.75269776,-4.19697301285378,6.2836848627029385,-6.112327601848489
547.2540450199999,-5.26979554431447,5.9142322801979175,-5.3843461748724515
547.7503791387755,-4.4457830942221515,5.90965156404451,-6.79700901661766
548.24671318,-4.280693727148415,4.977702886048036,-6.9011843251536735
548.74806086,-4.393911895549321,6.019087426118159,-6.756392545093498
549.24940881,-4.4603168546348995,6.4380385174268655,-5.444975610346509
549.75075682,-4.674836838946063,6.542956674846087,-5.703206528748491
550.252104992,-4.100928079047207,5.680584210259692,-6.950376535618939
550.753453184,-4.7255253920032425,5.4443853651134315,-6.500956480116249
551.2497879346938,-3.9424548568942264,5.681326784249692,-6.493629341671968
551.74612278,-5.388779751088863,7.3918537939639,-4.687583846526929
552.247471506,-4.540029123696308,5.739252534590836,-6.654188131221614
552.7488199000001,-4.02514060783782,5.337189929124868,-6.914761514750052
553.250167842,-4.419479122095829,6.132395880627906,-6.536383544804221
553.75151612,-4.770140925252431,5.7912599707954575,-5.371965156734494
554.25286519,-4.619967048994175,7.352935088669258,-5.487727397932475
554.754214002,-4.104571583931307,5.310691457795271,-7.005431460202069
555.2505498632653,-4.403306232477556,5.778056412437851,-6.794677856018445
555.74688526,-4.1066379175133685,6.091634982594029,-6.434522717260778
556.248233144,-4.78619240250237,5.990285385107939,-5.387986051601581
556.749582,-5.060690581897969,6.6236521885087845,-5.711266230474153
557.250931744,-4.353625608490885,5.365022502116137,-7.07011988525465
557.75228094,-4.508731876996869,5.743085117921273,-6.536641949045836
558.25363021,-4.401971364708963,5.567884642033038,-6.7690620352121025
558.7499657673469,-5.343424562349803,5.8684767025267615,-5.230182774870411
559.246300798,-4.664331209346344,6.227542127438987,-6.334252674179811
559.74764998,-4.286183110763325,5.04509847677876,-6.997464956380345
560.24899982,-4.617992279975306,5.904041839389934,-6.690928905254009
560.7503489000001,-4.264778747001283,6.316677154046239,-5.830302408398273
561.251698284,-5.098190440319204,6.2559471836377805,-5.609231211741598
561.7530477,-4.038525700261823,5.7071663306639016,-7.050862906763515
562.2493836040816,-4.502609417956567,5.538120670681083,-6.662949242106296
562.745719742,-4.050225506315791,5.8352233519942125,-6.453472662905053
563.2470694360001,-4.645728415623598,7.090840164260875,-5.314992654952997
563.748419246,-4.665855761385128,5.952273823259486,-6.391150447208007
564.249768064,-3.7227773557661594,5.419322065051904,-6.98626577316387
564.7511175,-4.725634997634574,5.548954764976109,-6.700105022932124
565.252467776,-4.560529838889691,5.65034541268934,-5.600683979126004
565.7538171,-4.631023521486217,7.130314069711011,-5.888023860149913
566.2501532897959,-4.622780455106203,5.406649182988167,-6.742821130716216
566.746489324,-4.136095939908538,5.523707284664076,-6.6373714426282735
567.2478393079999,-4.560662246825992,5.4245200045698825,-6.917390492425981
567.7491894,-4.884826876332008,5.512301926151381,-5.5153490023974765
568.250538516,-5.365291603892283,6.69805222552161,-5.709877938834393
568.751888,-4.272234386499967,5.767744796929618,-6.921254685293028
569.25323757,-4.488230100341711,5.158335547392343,-6.738637978143698
569.7495735918367,-4.100397356479523,5.85023293063034,-6.6511688479474325
570.245909416,-5.057087067161064,6.158918856225137,-5.38261968485227
570.7472594,-4.965630184557545,6.289585450593364,-6.181986364999505
571.248609904,-4.24005730495704,4.8783216748025575,-7.1994658553982775
571.74996,-4.383553203906082,5.447703543337911,-7.020262897407369
572.25131021,-4.721226964100369,6.316834431209043,-5.65427464789499
572.752660244,-5.024770597321759,5.95282772233741,-6.085274983145144
573.254010378,-4.057004811652447,5.388637624070912,-6.971716437881067
573.7503469,-4.507085280821135,5.463383529463599,-6.883993049300049
574.2466830640001,-4.387121139462988,5.623768458430524,-5.8912234212363535
574.748033,-5.331125132376926,6.80720832452837,-5.554105502787268
575.249383476,-4.4369605856493735,5.205617746840875,-7.091514713062816
575.7507339,-4.767945685870327,5.667024474024016,-6.633555901630371
576.252084188,-4.5099070179943785,5.829811039835021,-5.947805821332594
576.753435206,-5.314378258501268,6.0333012876708345,-5.67021310991115
577.2497716591836,-4.258441431841003,5.342363984315148,-7.127862175189977
577.7461089,-4.981548606481999,5.470672067984437,-6.493462465083407
578.247459496,-5.075108494284937,5.729337921607561,-6.704908191292418
578.74881016,-4.836877072900508,5.799832813614866,-7.121580721140308
579.250161144,-3.834740949276872,4.389668138617429,-4.846717611242682
579.7515121,-4.5819661052263685,5.679895651649621,-6.550685170811195
580.2528628040001,-6.2231320665415195,8.057951520769446,-8.569241227667446
580.75421382,-3.9279988412101465,4.871340337336234,-4.617750121508224
581.2505522020408,-3.929590688260281,5.323272609423751,-4.9017017687086035
581.74689002,-5.776210440218572,7.995685649782831,-8.18804757340671
582.248241074,-5.22341415633866,6.273244760605141,-6.358594447352427
582.74959242,-3.892374269576933,4.2678879393178715,-4.153275184666998
583.250943966,-4.713630651357096,6.1980758317467135,-6.059607589652306
583.75229574,-6.565369563460756,8.379910401425704,-8.243522804381614
584.2536465640001,-4.264970886390416,4.911741615667445,-4.636947834244792
584.7499845918367,-3.5306548636219937,4.978905806369555,-4.925514572948753
585.246323308,-6.244075832729328,6.935089485497529,-6.8896412889610765
585.74767532,-6.189438814456845,7.1313844206611305,-7.502424361869714
586.249027012,-3.604674839994735,4.789250603501739,-4.35272391175485
586.7503791,-4.0278584647342255,4.974528046708037,-6.660358355775307
587.2517318920001,-6.640594520666221,8.080720520274264,-3.316084023682389
587.753084286,-5.335419946703747,6.813520806945593,-3.768464035891442
588.249422789796,-3.889270952926195,4.364538355573946,-7.525955692037601
588.74576166,-4.396311826360883,6.371586256949619,-1.7266019468540623
589.247114578,-6.18298142411892,8.464577460678427,-5.196634571849295
589.7484672639999,-4.042484647607453,5.100230400237303,-7.549304387144096
590.24981984,-3.5265283676050068,5.69495992175566,-1.7906639402941993
590.7511725,-5.463629519489636,6.274905310604586,-5.975339283831026
591.252524952,-5.636020308657386,7.5512975954204204,-6.859694392499472
591.75387772,-3.942365690844174,5.787321631129213,-1.6751582627450936
592.2502177938776,-3.397099415809276,4.453677623970108,-7.339014511121314
592.7465574,-6.727690973417106,9.260744453836635,-4.330884877883727
593.24791004,-4.3762025906558994,6.181260223447101,-2.519871771517519
593.749263,-3.164924252157617,3.986945061841563,-7.512206558471646
594.25061624,-5.338448930022885,7.592429364375148,-2.4175319404473874
594.75196944,-5.417722477498893,7.861377047286693,-4.48036003864666
595.25332186,-3.660962949390338,4.7970171680811475,-7.5721621613222805
595.7496613306123,-4.004236918756023,5.90610349816111,-1.470632386231572
596.246001586,-6.288153904537555,7.769176148980771,-5.309452665347745
596.747355,-4.696297087131876,5.9574917714651745,-7.035567295229828
597.24870832,-3.9147860048894514,5.541441675000149,-0.9643303728607944
597.75006164,-4.227928080747376,5.641734868123435,-6.626321862551341
598.25141508,-6.218991111451992,8.82552508655564,-6.339614337836005
598.75276844,-4.235952394806129,5.321565331865835,-1.0951577332155913
599.2541215,-3.5173023448225123,3.9438331831032536,-7.713822981424397
599.750461344898,-6.925923005319189,8.245905261497837,-3.496935058012463
600.246801746,-5.2850814068545455,6.693593802016887,-3.4803617579217456
600.7481554000001,-4.225050564769701,3.8815992204164247,-7.5293562753054815
601.249508548,-4.537305954951969,6.512705726660929,-1.4703993410143097
601.75086198,-6.39883711915709,8.265987708058391,-5.543270682808835
602.252215148,-3.7999406549770596,4.765167470364678,-7.624091349946687
602.75356866,-3.895573285449536,5.507422870441653,-1.6368963881024425
603.2499091102042,-6.126017022580789,7.580689624734968,-5.834517691240137
603.74624926,-5.576460457449928,6.362032917877284,-7.159062525341332
604.247602624,-4.28499550407308,5.6350357203522075,-0.7697317978193348
604.74895624,-3.979449712412434,4.587391149924668,-7.562011076224906
605.2503093700001,-6.888622365857523,8.735418657628093,-4.1836287540493755
605.75166286,-4.623859624248282,6.39783751996018,-2.676259241937612
606.253016928,-4.554712295157705,4.216499406385496,-7.557754387087905
606.7493570918367,-5.143018512963858,5.980667660852627,-1.0516221423858394
607.24569724,-7.379894547314002,7.5986545239753305,-5.605751701614604
607.74705076,-5.283709889688523,4.845577750778313,-7.202371000636958
608.24840406,-4.030497395885523,5.091935155685991,-1.8910362060864219
608.74975756,-4.987085755073574,6.3224277330396035,-5.817776935310281
609.25111151,-7.023640017868741,7.999976687594795,-6.062189782084641
609.75246526,-4.2735914046828505,6.001453380285277,-1.3444539067990404
610.25381886,-4.0155495983303355,4.330961297039324,-7.100483994303643
610.7501589489796,-6.029845298294132,7.706674091918282,-2.893588925497029
611.246498548,-5.563079856099669,7.601439484038095,-4.014787479683097
611.7478519599999,-4.348483482668966,4.2951582495700364,-7.57223702658579
612.249205848,-4.010579847434745,5.888242987857677,-1.3093323011969227
612.75055944,-5.962076940373487,7.372488094719293,-5.5175456659343185
613.25191338,-5.542422110565964,6.255865015693322,-6.881584858129682
613.7532669799999,-4.335752510060764,5.643526661163914,-1.5532140372898522
614.2496067959183,-3.770974149417779,4.530786625639998,-7.320215639095625
614.7459466,-7.3152057580477114,8.260102303027544,-3.402419542861052
615.247300004,-5.147974807036338,6.672425869162676,-2.5145101054918855
615.7486533800001,-3.6956935501199952,4.116715246077302,-7.661160807954659
616.25000718,-5.173509116596464,6.703438653283644,-1.454013110753034
616.75136072,-6.64396434490957,7.787358262568802,-4.908000548980843
617.2527138720001,-4.067108551053265,4.679404121743557,-7.574531166336323
617.75406726,-4.603382598431489,5.128932296435718,-1.131235738485322
618.250406432653,-5.797732525408896,6.624985868893906,-6.872122424768481
618.74674608,-6.007928929108175,6.866441461749146,-6.4152769399360805
619.248099736,-4.365511274439487,5.347905943024247,-1.5568323613294301
619.7494531799999,-4.5359132096076165,4.107298751526864,-7.029365339285918
620.2508068559999,-6.76195783963461,8.008052530952325,-4.588783025910153
620.75216036,-5.110896122352028,6.573567724976013,-2.855993061477158
621.25351372,-4.228102543459607,4.6283997821635205,-7.752421626799804
621.7498536448979,-4.376692068217779,5.623342586446444,-1.2313114036705581
622.246193896,-5.911515899271169,7.19009987097803,-6.049292988325362
622.74754754,-5.667833874142288,5.8880412870136,-6.9773801423961785
623.248900356,-4.32187595131666,5.548750835920492,-0.856406692549928
623.75025326,-3.9397410358766014,3.940172953630131,-7.5362462484230965
624.251606584,-7.364917048406736,9.156638213570382,-4.341057771464157
624.752959562,-5.538278452636797,5.776818903130796,-2.199965742291605
625.254311894,-4.1029778579572955,4.707545429549313,-7.349339909795865
625.7506510816327,-4.997734900216455,5.98729442197847,-0.20955600741010144
626.2469905199999,-6.585532569362686,7.744809600222956,-6.222100490730563
626.74834344,-5.431229214485004,5.5464648365813005,-6.784063988522739
627.249696608,-4.076706855120299,5.38307606297903,-1.1108590403675485
627.7510497,-4.478919811817159,4.915738999250549,-6.911430308127032
628.252402854,-7.099896750962004,9.087864019189633,-5.151216120543028
628.753755984,-4.8527676905464565,6.027421077512134,-2.407826680446066
629.2500956734694,-3.325164916969595,3.989600260262294,-7.63522418723652
629.7464353600001,-4.259694319168648,6.556300125358964,-1.4512155963086273
630.247788804,-6.32865848957139,7.631182916315749,-5.57576377855926
630.74914214,-4.4190787228529596,6.112416667303282,-7.5457568505683135
631.250495208,-4.309786623978427,5.682216116178571,-0.7310222619881835
631.75184832,-3.988568830042929,4.798955991587073,-6.9803601383671205
632.253201514,-6.455652722911829,9.198164986462524,-4.910437603614866
632.7495411938776,-4.493189509947743,6.330637646250704,-2.0918759554899014
633.245880756,-3.20984100566429,4.155304711693306,-7.663933806503858
633.74723414,-4.313135292887516,6.591484780384715,-1.0799547436127765
634.248587476,-6.067266565623889,7.710340903062344,-5.946266217342506
634.74994104,-5.185249162201652,6.226734422645913,-7.007118634742567
635.251294688,-4.273093492344462,5.2788759509367615,-0.6008028790356089
635.75264848,-4.292866440362968,5.017420529772426,-7.26045165382347
636.254003088,-6.7431179700375425,8.988740942440419,-5.4526602992294855
636.7503438387755,-5.202957795993639,5.557350091333967,-2.350104772660019
637.24668395,-4.448089839850003,4.173358837485283,-7.280131242901026
637.74803792,-4.944376694577478,5.544641892435563,-1.3075912051413574
638.24939199,-6.476220256302106,7.862673018766121,-6.25779121472981
638.75074628,-5.724959395769654,5.166268339687659,-7.088909737571477
639.252101164,-4.2747693366512864,5.323775897146907,-1.4575764889815863
639.75345596,-4.339748456041971,5.030239455024709,-6.665119719804458
640.2497970795919,-6.354737346799588,8.347856973411258,-5.741891150149036
640.74613828,-4.877084539402453,6.259954947287346,-2.002538395790938
641.24749284,-4.436299721737611,4.538983290781084,-7.617039974559231
641.7488476020001,-4.602014056756561,5.603224677638111,-1.09365136793572
642.250202614,-6.4352751859343496,7.9486731499094345,-5.883842400975593
642.7515578,-5.444432017490026,5.198735971289042,-7.663313313379834
643.2529134380001,-4.664015016111289,5.081062805783073,-1.3853024624891574
643.754268926,-4.274281263194361,4.51590912777877,-6.645776099482382
644.2506108,-7.93756172416089,8.944821416454934,-5.010364754908982
644.74695274,-5.2527100251900825,5.123930556218095,-2.0610844642429695
645.24830764,-3.0690895324811356,4.725687435158315,-7.514530162317147
645.749663,-5.060789481914754,6.441950859751759,-1.417336840219443
646.25101864,-6.379417122975366,9.005559713467994,-4.724065647440661
646.7523743400001,-3.852681424461125,4.398844147152271,-7.68568744356036
647.25373042,-3.7816499999654853,5.426454587142924,-1.4550204873637727
647.7500728693877,-5.687720357397476,6.485287839101538,-6.302396644674918
648.246415308,-6.6123286051180274,7.911838258564672,-6.5993769939556275
648.7477713200001,-4.716771729229675,5.344831942250994,-1.0695810122461706
649.249127176,-3.8123914670302623,4.1906752768018585,-7.715417740783551
649.7504832,-5.96922543375511,6.738919788567801,-2.2089625782744537
650.251839664,-6.295347032796204,8.08234625507216,-5.044913061438723
650.75319602,-4.0657996386761734,4.37604562851486,-7.408272735714804
651.2495384102041,-4.3401907101872705,5.302322184988089,-1.278885993450099
651.7458811399999,-5.562955817463928,5.905640048300602,-6.547663131421827
652.24723764,-6.164208723975033,7.9203700639934365,-6.805100995319614
652.7485942999999,-4.951040513077019,4.970093775377959,-1.3206801717302694
653.249950952,-4.263910366511028,4.27954852890545,-6.8145735868374695
653.75130772,-7.496861392237086,8.957112358094866,-4.496943352516887
654.252664688,-5.232709616944824,5.8004329187878465,-2.5208939338804357
654.75402178,-3.8877079770980503,3.832200812460243,-7.488120286367394
655.2503656510204,-5.091572556647326,6.624064926311809,-1.5806027374986322
655.74670936,-6.7832011225105475,8.323852466744576,-5.454910418541534
656.2480664540001,-4.511703247156184,4.996213668992679,-7.412962075589791
656.74942366,-4.298941742610157,5.728447097757687,-1.3735847758088324
657.2507809,-3.9748325111978504,4.719532273254242,-7.0420851734119605
657.7521381800001,-6.4233783862778955,8.63743090391367,-4.975510843477178
658.253495444,-5.2280161839430885,6.394025348253981,-2.503948529525546
658.7498392204081,-3.520536961716784,4.21818873064069,-7.966369483271088
659.246183094,-4.686700958065159,5.558815625320742,-1.2208409906436293
659.7475406199999,-5.93795825108398,7.7695422665272815,-5.851068444842534
660.24889853,-5.805114870101866,5.514554578995132,-7.11726819064985
660.7502564399999,-4.34645082837693,5.173374037074744,-1.8285791305431736
661.2516137839999,-4.790862143803944,5.38072750656816,-6.512475069779115
661.75297138,-7.263470094339149,8.631397685234205,-5.238356363110271
662.2543291540001,-5.062209283087238,5.8463399940508625,-2.248755116697195
662.7506734918368,-4.294783712225747,4.130790258269807,-7.6278008683441465
663.247018356,-4.104676554688436,6.104252849220792,-1.2776282186161239
663.7483766400001,-6.845016901558304,6.744518142080639,-5.923352712755373
664.249734674,-5.880954103687173,7.032111326718234,-6.460488888695469
664.7510928,-5.7377207395687035,5.8331740039605116,-2.9769492201115275
665.252451192,-4.327572637251165,4.5332571405010365,-7.421031993060989
665.7538094800001,-4.44233012020399,5.861953165226383,-1.1978070048453622
666.2501537346939,-4.555133986109853,5.959750539465714,-7.102350714158024
666.7464982399999,-6.334425699332254,7.759895772389415,-6.1658035051500875
667.2478570439999,-4.902243399887466,6.244667916358285,-1.4570742784048094
667.74921576,-3.584595747635964,4.26992898059622,-7.648108623765279
668.25057422,-4.911794588224302,6.493932343770342,-1.2269346384892836
668.7519327,-6.47353747947732,8.01353664847891,-5.616597658739856
669.2532932619999,-4.671743631641946,5.894861598159956,-7.493167541776364
669.7496392775511,-4.953159166426116,5.887971985965832,-0.6919682913180933
670.245981702,-3.6227437740631676,4.236861359895965,-7.861334027252424
670.74733884,-5.640542385417315,6.943850545895255,-2.202354743295482
671.24869798,-6.55713547027904,8.040424152926526,-4.97016045600129
671.7500569020001,-4.312302041408585,5.117269632383181,-7.498169568887505
672.251415342,-4.27006895747077,5.933279339698112,-0.6361011871161345
672.75277386,-4.320460453119843,4.501733559775195,-7.482482930551779
673.2541324379999,-6.819404256839886,8.278064160462872,-3.261642887873679
673.7504774469388,-5.211621635225568,6.695193647304339,-4.0212394270635565
674.246822372,-4.121217912775844,4.659005848115247,-7.605206770345749
674.74818096,-4.755277770255324,5.653669107307549,-0.6853518825537648
675.24954002,-3.9747250103998457,4.487116223380376,-7.654505296470443
675.75089892,-6.724957157586277,7.952625619073502,-4.097719599653491
676.2522580240001,-5.246394151959629,6.839539570102314,-3.4597160615301625
676.75361698,-4.19932816480572,4.4843749271537865,-7.59727285603386
677.2499618265307,-4.763868117776523,5.438761915906407,-0.7979258549234339
677.7463069999999,-5.3807990121406135,5.084407003546907,-6.746668987562863
678.2476659939999,-6.441467502654169,8.534001330156276,-4.623762062792526
678.749024802,-5.624922303216042,5.970435640979025,-3.332369932624803
679.250383194,-3.8788939320447895,4.755508355088368,-7.933779241291855
679.7517415200001,-4.777139522761555,5.546135217425197,-1.0478466307064611
680.25309967,-5.534582339499049,6.752710505287866,-6.862312042294669
680.7494443265306,-5.975581752706251,6.890310294540804,-6.967386510429545
681.24579004,-5.329170868529335,5.543723623510317,-1.6315756300213036
681.7471491599999,-4.156046319847726,4.458435774903207,-7.403230292322286
682.248507918,-4.936569819805291,5.753208725861112,-1.131269844886453
682.749866906,-6.284569710595048,6.689681075150935,-6.7347644438203735
683.251226076,-5.49469061479164,6.886095177630003,-7.171503449129813
683.75258546,-5.207805256507608,5.568830505651102,-1.0907753914191232
684.253944442,-3.3645064999646705,4.28435117016449,-8.185802840468298
684.7502902285714,-4.638389465549332,6.0941097340293355,-1.075316247776364
685.24663652,-6.352164156624777,7.969703478400387,-6.272965785152833
685.7479966000001,-4.5702790600706225,5.459295479600809,-7.458686598956209
686.24935682,-4.246418345333763,5.765881311916793,-1.052242523955872
686.7507171000001,-4.0148463547351305,4.434209329258018,-6.91345527730516
687.252077522,-7.534177164928194,9.11829983294557,-4.217941810265636
687.75343804,-5.233808777252609,6.7403129886122795,-3.2651536052663426
688.2497852,-3.99982719985433,5.15163066159292,-6.858294711899751
688.74613236,-4.436871996564989,5.521706300351,-4.520443758343786
689.247492924,-5.92707842320702,5.6162123961645145,-5.155080701198296
689.748853654,-5.533584188254293,7.053793915274732,-6.500944782986287
690.2502148340001,-4.221332243266996,4.2273843298261795,-7.516866856828378
690.7515760000001,-4.50721552746133,5.948356946859463,-7.255038036357957
691.2529368400001,-4.829728160920432,5.6930506464155215,-6.067760245414824
691.7542977,-5.087697645592921,5.55784049945752,-6.990594766213869
692.2506446489796,-3.788045038658541,5.2153981636456255,-7.1624121919531385
692.7469917599999,-4.241429924853664,5.758807964649241,-6.768653301731838
693.24835246,-5.296581515023819,5.754534267926593,-5.706733306319039
693.74971322,-4.074544689235006,5.445605438892647,-7.329775559302788
694.25107464,-4.549942678293211,4.840683554488593,-7.041422521585191
694.75243586,-3.941228850369134,5.249848480857634,-6.922283996260754
695.2537966599999,-5.681441541765204,6.355071764118825,-5.865781851168879
695.7501437653061,-4.0834460818393765,4.624516755224133,-7.621418088801783
696.24649065,-4.489345750183475,5.119242204549909,-7.3885583853175
696.74785114,-4.748459275095711,6.222594218378017,-5.678872653215698
697.249211992,-5.2046847892797565,4.634880142183023,-7.142214786696972
697.7505727600001,-4.300414495562926,4.922111804853738,-7.020228899280291
698.2519334519999,-4.393883675029123,5.534224404929891,-7.115739111508578
698.75329408,-5.394229675316678,5.7827349052838795,-5.624769382371049
699.2496405020408,-3.5981916332593458,5.353435093287257,-7.567336270521001
699.74598696,-4.651598199897905,5.212009661484297,-7.063274866066884
700.247347256,-4.846594844904228,5.382181346079129,-5.762083867414746
700.7487074,-5.217888051548045,5.899100572167294,-6.573789736604972
701.2500673999999,-4.134284299603916,4.01181405334561,-7.717202946319893
701.7514274,-4.570219527989306,5.118658925412641,-6.634131956257138
702.252787224,-5.627392262493827,6.318507266259413,-5.385949825210236
702.754147,-4.647762061169021,4.47305706568167,-7.52086122916806
703.2504932326531,-4.172051834602,5.171553736334643,-7.045757046896888
703.74683944,-5.147022028475846,6.838997552393813,-5.322059553824273
704.2481991400001,-5.229317522045366,4.76077990366758,-6.619055933835007
704.7495587599999,-4.003649414843654,4.743306767545001,-7.2842440350486255
705.2509180320001,-4.225440148393971,4.854496924218978,-4.903801990425431
705.7522772799999,-5.91188293226051,6.194540234680573,-6.760504434774223
706.2536369899999,-5.33722286940766,6.808597629292243,-7.524636840805839
706.7499829510203,-4.897441182320219,6.563227478154654,-1.2119510791208936
707.24632862,-3.5402148256274266,4.774361007018458,-8.23226135239011
707.7476878,-4.477235928693385,5.690455552366968,-0.47876325950997156
708.2490469919999,-5.923183898874294,8.125616639899613,-6.125619367530594
708.75040608,-4.937964838266283,6.487448437299184,-7.466061437349571
709.2517649280001,-4.07012474966518,6.3324438179565625,-2.6853019065778807
709.75312374,-3.7199314393758516,4.698880764755093,-7.088168987668151
710.2494688061225,-5.204291858293179,6.916688535398858,-1.624590077641737
710.74581386,-6.181828469525352,7.7833726968419175,-5.279700276934582
711.247172348,-4.449581576627798,5.903719981823497,-7.523001605782739
711.748530824,-4.148323985414874,5.557035671965917,-0.6832584063997144
712.249889756,-3.755247185539611,5.084543852702594,-7.759265590004214
712.7512485999999,-6.886623702848757,7.907975960963718,-2.772140133590176
713.252606836,-6.2012311041940045,6.965901062475366,-3.5039046310982975
713.7539651399999,-3.322137552413799,4.841187475819651,-7.6936316914024125
714.250309777551,-4.935599693558427,5.916444916313454,-1.340837730942058
714.7466544060001,-3.9951551853568668,4.951834223469454,-6.615141067472752
715.248013314,-6.31521907250538,7.109324931930108,-7.713183136026928
715.74937204,-5.438081819146969,6.6925793631005135,-7.567685296878113
716.250729882,-4.320426887746328,5.0368399326385775,-5.274288520612098
716.75208772,-4.185358221742761,4.359347222908949,-5.190723896558492
717.253446002,-4.965896306230226,5.476023259283324,-5.992610153788893
717.7497906040817,-6.52048143932425,7.614861824410617,-8.54091124233852
718.246134838,-4.887869805232066,6.173931746033638,-6.695149048758261
718.74749256,-4.387423109500433,4.345453924042789,-4.8156730859816745
719.248850758,-4.686718967888301,4.848521778265652,-4.848489975120359
719.7502088,-5.5545164065539385,6.106815961277322,-6.610704552039119
720.251566312,-6.740176508615589,6.456455981518015,-9.044389369256763
720.7529237399999,-4.572173024699194,5.961740249816265,-6.324602148925367
721.2542808699999,-4.661250733357427,4.981261374192768,-5.29469040523434
721.7506244061225,-4.034049679810135,4.705569047718261,-5.484767724405807
722.246968248,-4.255749110055355,5.204169589681509,-6.335052499212601
722.7483255000001,-6.57386908084231,6.275848077103396,-7.963936243717747
723.2496823680001,-5.558198648675444,6.304257893286557,-8.255388240353733
723.7510391599999,-4.491380466743817,5.04023499444616,-5.440268515457709
724.252395772,-4.190856490035921,4.0001807830272105,-5.181715338888213
724.7537522440001,-4.719243368244468,5.891756461959342,-6.127881915575973
725.250095012245,-6.650551723474447,6.514725793968449,-7.816727173891623
725.74643762,-5.334339693382464,6.14278762349366,-7.750582580917676
726.247793924,-4.057306381714154,5.818340996349714,-5.5574282487823075
726.7491501,-4.405542336074958,4.1270066626195545,-5.22225744816672
727.250506184,-4.59168804236929,5.560158705001388,-5.9122018508143785
727.75186212,-5.812862196458091,6.607719557104365,-8.216440932652747
728.2532175079999,-4.927171625307485,6.126310192793422,-8.552549594227813
728.749559289796,-4.4508653209288305,5.34674036902553,-5.887831585546644
729.24590144,-3.989001340909488,4.293254839770585,-4.90719441830341
729.74725712,-4.63741426028547,5.222084958207876,-5.727577246917545
730.248612572,-6.336549706298506,7.161730299444289,-8.32693765600362
730.7499679,-5.5696532584441805,6.166914446501878,-7.994458248978872
731.251322344,-4.386016495003098,4.22499653172968,-4.943744599441633
731.75267668,-4.37544202641531,5.186625105466894,-4.943720246179131
732.254031404,-4.848401113415748,5.208671167623874,-6.476353993274463
732.7503723795918,-6.365246033022289,7.810313264417293,-8.694045075911149
733.24671288,-5.42336506191899,5.704778803569778,-7.301924951626293
733.74806682,-4.425427076092164,4.322394481574745,-4.6013435364644275
734.2494209399999,-4.76321823810714,5.2451808153008646,-5.176082408411322
734.7507749060001,-4.991927988502784,5.369509103748021,-6.440320871702276
735.252128542,-5.865006262144123,7.358371241875767,-9.057947224639207
735.7534820999999,-4.682721621403457,5.775494833298485,-7.5228861575687835
736.2498220673469,-4.5778653216049925,4.725735211682992,-5.2792283581404105
736.74616188,-4.422804790699836,4.540246851757829,-5.036085015887477
737.24751472,-4.726304336864456,5.435348710510371,-6.271824900687116
737.7488674,-5.900087169711694,7.147723809884703,-8.449867886454928
738.25021998,-5.082318961709629,6.208506936045709,-8.619086604887578
738.75157244,-4.5521624475309075,4.739235436541623,-5.381870193208917
739.252924702,-4.384904837983038,4.385728420401737,-5.316509053369017
739.754276944,-4.070659872844863,5.291877281391802,-6.09464019705756
740.250615987755,-5.39485646841553,6.273439823425126,-7.832181724842323
740.746954924,-5.472838770932167,6.703770833461813,-8.863068955126785
741.2483065800001,-4.907291672931841,5.7987240106912346,-1.7465914974726755
741.7496580400001,-3.500761153340884,4.031912619027942,-7.737333604393842
742.2510093879999,-5.306273591845342,6.795313336336322,-1.3062292526327424
742.752360646,-6.371755940515757,7.449459640895805,-5.676015952419696
743.253711854,-4.676168433101336,5.851901803391091,-7.729946372463986
743.7500492428571,-5.106279742170131,5.622526644028213,-1.3030591531554376
744.246386824,-4.20951529580318,4.616536752608867,-7.4471560824424206
744.7477379000001,-4.925028846462807,6.205567913881052,-1.8410478281821197
745.249088764,-6.486352127113171,7.612233621644967,-6.1335649987107335
745.75043922,-4.8659030115975765,5.939278080432521,-7.297156440376009
746.2517900839999,-5.044741908971701,6.221433788325851,-1.8217420368936603
746.75314,-4.2781020150976365,4.317107168983174,-6.28446335308708
747.2494765,-3.890599126170253,5.7138061032703895,-5.660681596210072
747.745813,-5.617873624198379,6.057306479950759,-7.296118765522006
748.2471629519999,-5.543031812468293,7.047439917287197,-9.268057575633899
748.7485123,-4.369297043361928,5.540768274048357,-7.084743475489436
749.2498614799999,-5.221288597134768,4.833196530234678,-5.645437259416792
749.75121036,-3.150100649067531,4.536081188139354,-5.205593208522742
750.252559628,-4.693956174915584,4.861957977515917,-6.272029375677172
750.7539088200001,-6.146149803318715,6.665620127589952,-8.257445037452007
751.2502441061224,-4.9907903036397245,6.372461539454548,-8.452100300518003
751.74657936,-4.232098589717965,5.057623334652517,-6.269549345865096
752.2479281699999,-3.5935930481467127,4.303723905738531,-5.144066818106041
752.74927694,-5.034972623059108,5.087463544834013,-5.628849691252042
753.2506252219999,-6.2075680778522875,7.067667561303664,-8.22397239698884
753.7519734800001,-4.896350301482197,5.847256737231175,-8.17075631414777
754.2533213520001,-4.45279481423356,5.457981490134061,-6.295999123542901
754.7496557959184,-3.745486125636754,4.497554754542309,-4.936028772959384
755.245990572,-4.332582155166127,4.96671784003808,-6.006011673161454
755.747338724,-6.078009553017944,6.739652066484751,-7.540500047459835
756.248686914,-5.279665469013012,6.294159137160997,-8.675973947022504
756.75003502,-4.423715791928942,5.403052644476856,-6.509993174280766
757.251382424,-3.955008836075967,4.072282172779033,-5.145643305501446
757.75272968,-4.246518300925992,4.753071637750962,-6.028972219805067
758.254077452,-6.109037076622566,6.0577325650729215,-6.455438473474894
758.7504116489796,-4.836384196816053,6.740433694860345,-7.250458877496597
759.246745768,-4.803302829954783,6.992277431528746,-9.230302555300206
759.74809326,-4.384183500845098,6.232534701199277,-6.54610222850361
760.24944068,-4.33052111885354,4.772072278905707,-5.991115094310138
760.75078794,-3.6756498233634587,4.818691998540567,-5.569485674021647
761.252135252,-5.11396174867181,4.73360829879949,-5.871282346763965
761.75348258,-4.68705657912351,5.706286569722636,-7.509063444650853
762.2498162530613,-5.816192937420639,7.165202547400354,-8.721759136739697
762.74614992,-4.689723503585755,5.9404926980063495,-7.39385075929952
763.2474969519999,-4.580521124285246,5.2290061245982375,-5.047744565713905
763.7488439399999,-4.378528558076797,4.375235346218813,-5.490705010793435
764.2501912399999,-3.6165456657122736,5.118319012737518,-6.774506326170183
764.75153862,-5.353305315426627,5.969109643186527,-6.940327678654208
765.252885548,-5.35789978190739,6.666782321317023,-8.781907323846589
765.75423242,-4.575681220112781,5.6398807923968945,-7.73756937575846
766.2505657959183,-4.825222621686757,4.977863494591407,-6.714663621936278
766.74689908,-3.9601914641758693,4.669220342074528,-4.842331808501206
767.2482457719999,-4.39913864963982,5.017112628945159,-5.809235463800608
767.749592442,-4.905048012777563,5.288391876413466,-6.807910554270494
768.250939314,-5.641731352355796,6.401709901743029,-8.642750051629669
768.7522861799999,-5.0544557149640355,6.09551954101652,-8.649146051881988
769.253632832,-4.676709463846553,4.953032650905733,-6.690839028888845
769.7499659571429,-5.2638962106075535,5.527678005056989,-5.512392778266638
770.246299504,-3.8889530095182256,4.420716891761073,-5.020329264198493
770.7476466,-4.3372998234258135,5.343125274853857,-6.366542929940754
771.24899276,-4.242446443918384,5.65606698725196,-6.450830318211137
771.75033886,-5.680741864186881,7.376910844239685,-8.81943874969658
772.251685754,-4.520100053320191,6.547026444963362,-8.563060493590132
772.753032782,-4.297415438860817,5.616000291419613,-6.030901197059075
773.249365632653,-4.920500381788607,5.033279132237215,-5.496387067737683
773.74569832,-3.353443337361972,4.562197119558765,-5.61101289079495
774.247044838,-4.6970509087218995,5.305543422961436,-6.3572657661979655
774.74839122,-6.396737888839479,7.695824942501837,-8.535602245890411
775.249737864,-5.005252480269695,5.680658332328639,-8.300632673958791
775.75108438,-4.213744370534092,5.068948121370559,-6.554064405565397
776.252430796,-3.9622865208710696,4.842066108704237,-5.124889280097953
776.75377706,-4.136575754189054,4.116752433061354,-6.191445530453568
777.2501102244898,-4.185012174936615,4.883248093175363,-7.2391992896934605
777.7464435,-6.008511795240036,7.16303779834962,-10.61600186410639
778.247789758,-5.624232415718035,5.593060113784335,-4.730367951276901
778.7491360600001,-3.381882658768475,2.9284878833433963,-5.029022207193049
779.2504822719999,-6.235587873478152,7.273746749975001,-8.660851773715537
779.7518283239999,-3.9164854580757575,4.211378549896849,-6.146353932805466
780.253174632,-5.319342719624502,4.896215195960558,-8.954000323274025
780.7495074795918,-4.982687913722831,6.716952321104968,-6.913495331828927
781.2458398599999,-2.553501341416731,2.830252345095186,-4.613407525185303
781.74718566,-5.177441878529498,6.343216483132846,-4.804685106621467
782.2485319399999,-5.415367106740036,7.145436969090139,-7.691062951283193
782.74987826,-4.641545369465422,4.953027927980844,-8.209014909139729
783.2512244000001,-4.871525018574692,5.347404544960173,-8.643136400298067
783.7525706,-3.340739551870886,5.181220791010702,-6.122388947264223
784.253916458,-3.8682827734739877,4.727725540754487,-3.1265638106365987
784.7502488061224,-5.9565989453552195,7.2909850908141,-6.997145058125758
785.2465810260001,-5.223005743564475,6.41161550723407,-8.695887630358236
785.7479265400001,-4.211226241678275,4.210043895007801,-9.035486061911698
786.2492723800001,-4.168798818233281,4.467428887373664,-5.347620966145138
786.7506181800001,-3.949558762649727,4.738551760554253,-3.0942259297025156
787.25196398,-6.043004491048361,7.646152236868861,-7.951642557324704
787.7533098600001,-4.583737032326135,5.785144151805737,-8.353580284845018
788.2496421510203,-4.967139456492971,4.8251450676582035,-8.537766879165487
788.74597442,-2.7453182791179893,4.115845358918887,-6.302785818632944
789.2473197940001,-5.261730410690388,5.5110581589193215,-2.3618641510463507
789.7486649,-6.705765990794488,7.16927562284273,-7.886198922618693
790.2500105720001,-4.95578106684527,5.355656406939123,-8.078106671525076
790.7513563220001,-5.589238095149827,6.354160391731155,-7.705450521132089
791.252701766,-2.606980923610534,3.2737763251201586,-5.1474227070422796
791.7540472439999,-6.906633669614405,6.038537593470128,-3.4165902062286864
792.2503791469387,-6.718923398272799,7.532362115467571,-8.147939256300623
792.7467109600001,-4.390952370092922,5.9064175195909945,-8.728655459279087
793.248056514,-5.044717083328588,5.765930625453798,-7.251075966263248
793.7494020199999,-3.1876931045533907,3.542960347592593,-5.139702683323659
794.25074763,-5.551198126362038,5.752098340107069,-3.7307236566372266
794.75209338,-6.307875169138156,6.426882840049383,-7.739810306959467
795.25343876,-4.7274333820223235,6.280724566939855,-8.076598227251633
795.7497707163266,-5.315312600323588,4.842375873939289,-8.38009930197317
796.246102384,-3.9936695850966544,4.441457391032213,-6.027932711491379
796.7474473999999,-3.743401093117577,4.081274346209695,-2.843516190605878
797.2487928959999,-6.343763585501315,5.838862726126616,-6.7428839126533004
797.7501384,-6.151607367894939,6.996816028570467,-7.716817916711943
798.251483762,-4.411331718419946,5.349834393383504,-8.008379944069556
798.7528291,-5.664848630867381,5.285512152829819,-8.221870448867607
799.254174618,-2.7345355747425617,4.0249084853632136,-5.566387285243666
799.7505066428571,-5.8124763282544825,5.909852283372512,-3.1965845069428926
800.246838428,-6.27639576862452,6.509725374044211,-7.075228938778018
800.7481834480001,-5.365073710356914,6.411771575246876,-7.737170285254269
801.24952927,-5.664317419059496,5.438944286692877,-7.654195245293307
801.75087526,-6.116896800671481,6.432904517752798,-4.585003836008934
802.2522206240001,-2.7437534904432654,3.286616654490495,-3.5532989983649474
802.7535657000001,-6.937254212822896,7.906533647469074,-6.01195756728721
803.2498978734694,-5.024092075370953,7.0093725782253955,-7.341318084062062
803.74622996,-5.739604271632545,6.589932569827343,-7.384882354641295
804.24757556,-4.104346692684843,5.508898334706552,-4.118651656704684
804.7489211,-4.149719609450392,4.590501183695576,-5.958934956391066
805.250266608,-7.2223558111119965,8.838063202821171,-4.652479815080362
805.75161214,-5.3586154958911,6.3421198418702645,-2.2329864306479514
806.25295808,-4.245193622014724,4.429504390601465,-7.317612567876828
806.75430438,-4.03517447806622,6.1213237224396195,-1.1321980295369398
807.2506363163266,-6.679012312165625,7.076632050195842,-6.043758417384044
807.74696796,-5.774949200833541,6.9113947863554674,-7.645459546060955
808.2483138160001,-3.918968136610471,4.494776136179077,-4.776745099345387
808.7496597999999,-5.287052416463203,4.916875332682655,-4.2416459059953056
809.251005152,-4.880904274821171,5.847302696231522,-5.46496958272138
809.7523503,-6.960763752650573,7.27527232940432,-8.464344245974683
810.253696432,-4.9083113952267805,5.743212160726092,-8.035613359701633
810.7500293285714,-5.200875346269365,4.78851547453967,-6.444033940903895
811.246361134,-4.870186198104432,4.495834224355819,-4.759499797467871
811.7477061000001,-4.154627650146867,5.235246008903533,-5.197513531526499
812.249051764,-6.7035860913308145,6.685104249007269,-6.761829628164211
812.7503976200001,-6.18772520828993,6.9994635112475745,-8.481105800705718
813.2517431279999,-4.804325988333279,4.6785773224654505,-5.548368785596442
813.75308867,-4.382968611995055,4.3511359731443795,-4.637934281253241
814.2494206448979,-4.156330697677191,4.908371292613257,-5.844107266448544
814.74575262,-6.692426443985331,7.071714231252514,-8.376232623427718
815.247098148,-6.299579879848796,6.621174889046672,-7.724982940318824
815.74844368,-4.889800363756503,4.193954972145461,-4.689528493855817
816.249788964,-4.907624410955554,4.798069772923199,-4.673107609855213
816.75113408,-4.797589559884449,5.077832594793714,-6.140145969498072
817.252479344,-7.473109129981022,8.154002938990551,-8.943118057319767
817.75382446,-5.451618284623991,5.736164430584181,-6.151597101819559
818.250156422449,-4.572234473484011,4.134578127573541,-4.496220084742842
818.74648854,-4.589969418604336,4.834770513843838,-5.529063563469329
819.247833912,-5.689842214419805,5.691089728829154,-6.169015525503005
819.7491793199999,-5.954624397425932,7.948973837761465,-9.513806570078055
820.250524468,-4.585660826338855,5.361266736691456,-6.13538734138692
820.75186938,-4.296868984341918,4.221231213733643,-4.380182326296921
821.2532149040001,-5.334588157356266,5.417452338622456,-5.633166456786596
821.7495471938776,-5.680762254593593,5.9738937638081895,-7.793751278798792
822.2458790080001,-5.9222009932118045,7.2682414506689215,-8.998230121477526
822.7472242599999,-4.926473973356059,4.802499004030666,-5.282689857114729
823.248569644,-4.400511890541205,3.820158848247614,-4.824240634815606
823.74991508,-5.221500466991331,5.119576119097183,-5.705409723436043
824.2512604240001,-6.73442817816114,7.923854379345516,-7.527915694695007
824.7526057800001,-5.7936608360303525,6.4214223195892295,-7.937313989156908
825.2539509400001,-4.858783261687353,4.9086028619085,-5.720301856081766
825.7502823285714,-4.179325881943375,4.620275617590444,-4.671305033027021
826.2466141099999,-4.599295523982467,4.99973357621967,-6.165703232694372
826.7479591800001,-6.389011728026486,5.860743543224354,-6.540172683707239
827.2493045800001,-6.450325668800437,6.844878647737371,-9.110000151251308
827.7506501,-4.684273269206899,5.188536385562544,-6.411621570210643
828.251995196,-4.370965045967526,4.433275919225347,-4.619648291564147
828.753340148,-4.713445860406823,5.142760286669895,-5.375774898407454
829.2496718183673,-6.447933779431145,6.715651096826823,-7.2957386767847305
829.7460035199999,-6.132011792207857,6.744682706873964,-9.060586357699313
830.24734834,-4.378954603451976,4.943856693710475,-5.978160092038063
830.7486929040001,-3.9871363647461986,4.665401128881105,-4.851888720608687
831.250037954,-5.159339334511052,5.204168470587306,-5.357903223313144
831.751383,-6.656751302863333,7.463825265901301,-7.743560958378257
832.2527282300001,-5.448848913386252,5.633244197974169,-8.692322981593147
832.75407378,-4.158512090852104,5.016230885726577,-5.283949069071039
833.2504051265306,-3.9240913383348053,5.066185007492894,-5.047865069168323
833.74673644,-5.021996981070329,4.734175814181809,-5.737066279863881
834.2480811300001,-6.7985229833435135,7.386492831926994,-7.571720996901662
834.7494255,-5.50504815989716,5.866793473577877,-8.926226234682716
835.25077018,-4.450984286153585,4.567345367897389,-5.90780728061405
835.7521148,-3.3951908505574466,4.143370452644996,-5.2174652857151385
836.253459394,-4.945019035729468,5.787781203154404,-5.244670336968626
836.7497905,-6.673290723856568,8.125323042034353,-8.17157603127926
837.2461217760001,-5.239221463662485,6.459460691153905,-7.881423968364578
837.74746658,-4.140131777744521,4.837652052779237,-5.44876404589844
838.248811388,-3.8898206574026726,4.588523049625093,-5.241462713528474
838.75015656,-4.676017233073153,4.821106239616532,-6.214268433418994
839.2515010139999,-6.434534655040165,7.40015039686333,-7.900609662433019
839.7528454,-5.108002081142519,5.764530198217009,-8.523278975297414
840.25418978,-4.560121121161655,5.2936027534087335,-5.8664010009606615
840.7505205489796,-4.218831922726568,4.982454692404701,-5.055959726888615
841.246851756,-4.691316828018636,5.259882574068022,-5.2077084424793805
841.7481967,-5.312863855031091,6.258436689168738,-6.592089145881
842.249540952,-6.220054701096085,6.991809496011391,-8.939315871448564
842.75088498,-4.504881473815578,5.500887120204335,-7.2387643224494855
843.252229434,-4.637908113505191,5.02001732332838,-5.453835483835618
843.753574144,-4.441185005396435,4.007271110001825,-5.300327422882937
844.2499048816327,-4.047627928441614,5.379270682142146,-6.460131816786493
844.7462354200001,-5.8450617738996735,5.989640848549866,-6.988009109367475
845.24757964,-6.138426410573384,7.44675253732525,-8.77613719833749
845.7489238200001,-4.800432523498978,5.261945516451037,-6.382099338804014
846.2502678840001,-4.332532913293336,4.858629076904715,-4.827591079548899
846.75161184,-3.9823799112461855,4.242924283422896,-5.850439497431409
847.252956004,-5.720500465175628,6.359512388902537,-5.568111557502322
847.75430022,-7.038975542333343,7.67563417812601,-8.482329159373448
848.2506308510204,-4.59631513080221,5.599227293589431,-6.922751405448407
848.7469616000001,-4.272045843687084,4.649978797041189,-4.508805594441374
849.248305378,-3.955598748039549,4.3859863291021535,-6.5505368993121795
849.74964907,-5.726119152933978,5.235495004458942,-6.776664448057461
850.250992552,-5.246728067535828,6.624357072809158,-6.457854091812876
