Time (s),Gyroscope_X,Gyroscope_Y,Gyroscope_Z
10.249478403061223,-0.06075845977939758,0.10670343583282646,-0.07113969089177835
10.7458386738,0.041859042760799305,-0.07685647786735746,-0.1882245367657687
11.2472101546,-0.11772804798539344,0.2150994571471166,-0.06737278304926615
11.74857904,-0.10724118486445228,0.11302891488853789,0.05467972219939304
12.249949919999999,0.07379201724443155,-0.057129044952559126,-0.10926217575075704
12.7513229342,-0.038940805832864814,0.18464037166900735,-0.04653978178406619
13.2526931746,-0.08912067488773723,-0.042086280499499716,0.0897545536855768
13.754060529999999,0.09975890812162147,-0.13444430234547577,-0.11725681689126385
14.250416494897959,-0.09209090068446979,0.25287401446496466,-0.1392801395993763
14.746772026599999,-0.0072835506998336855,0.0356936247781931,0.09027715914248326
15.2481410846,0.011556754041849146,-0.0722301118509901,-0.22759745671958098
15.749509722600001,-0.10171740734986484,0.18547388023354622,-0.17294658684425976
16.25087814,-0.13109189685127404,0.1437415043657145,0.044168053671262024
16.75224699,0.023495879658292047,0.07685523683832514,-0.24805301735291913
17.25361491,-0.03704416085364659,0.15058193464871922,-0.17367021203863342
17.749968833265307,-0.24675811499780206,0.1805709696313271,0.010229128872891907
18.24632247,0.10594486425367222,0.04200816729754424,-0.17020561189369718
18.7476910004,-0.06504610615703652,0.04403136433672264,-0.24840833687493377
19.2490577142,-0.2783158698819009,0.18626188773608665,0.10055772625492038
19.750424954,0.21344256745947388,0.036399702424847934,-0.09788880458200618
20.251791049999998,-0.03798987032816327,0.08353378798236333,-0.21258717137852431
20.753154560600002,-0.25553144887184787,0.11707442666734663,0.11487958261461285
21.24950640489796,0.2327294381629388,0.006413349621427759,-0.1025512618836192
21.7458577336,0.026795414937739504,0.06469813720354328,-0.07737226050213276
22.24722268,-0.2664871359921066,0.08805102635935741,0.12845067922061326
22.748587565799998,0.2207659330853004,-0.11019273688173667,-0.0976384334482732
23.24995199,0.006277672130954411,-0.03388798464228901,-0.08297180043333711
23.7513163118,-0.21790849570909804,0.16009114886679984,0.11160864268402879
24.2526801736,0.18238544380373134,-0.15119696047134507,-0.0893558494085905
24.7540428192,-0.031007686477234758,-0.05714912705772905,-0.379602285662166
25.250392532244895,-0.3653883488218692,0.15588214119390725,0.5420216341439507
25.746742435999998,0.4143973653329436,0.0007023621185696971,-0.35083283781861657
26.248105433800003,-0.05052886122383887,0.020284809634295242,-0.0755730038241191
26.7494681142,-0.31049529879793847,0.11318829581881389,0.1027566565954927
27.250830574400002,0.21957439219105324,-0.025996215208282877,-0.1638655733551377
27.7521928382,-0.03841702074826062,0.1147200569967877,-0.14612312595694826
28.253554880000003,-0.2636773974145953,0.0359719612862577,0.16968725092076387
28.74990247734694,0.23974603334416297,-0.10686435722839391,-0.15105350231626416
29.246250434,0.06908455664056831,0.08275555579971337,-0.03253896599014767
29.747612654999998,-0.20903722195800875,-0.126852754989264,0.24119069598083173
30.248973810000003,0.10216623644890793,-0.034228182439167525,-0.13046677825914266
30.7503376332,-0.012107615511323791,0.06802628533304572,-0.0038013004986781683
31.25169851,0.024848794592171063,-0.03160532120814148,0.11683746827068166
31.753055685999996,-0.029145196518650825,-0.1240799104085212,0.005258250852967832
32.249402308571426,-0.002541758743309169,0.18136925235927964,-0.1097689541079437
32.7457492774,0.07800872146389809,0.005063908557666121,-0.00655862073362914
33.24710924,-0.08010590725976614,-0.2269390235620302,-0.0030170368398375453
33.7484689632,-0.19100442952275945,0.10865894193056165,0.061555729070922896
34.24982852,0.27608004259567664,0.12196731902325707,-0.08765436788327678
34.7511884168,-0.03052989164475157,-0.25701843969517507,0.026668206825423448
35.25254766,-0.28277374506319053,0.16704722278656495,0.15355165138749619
35.75390608,0.28642760436872067,0.01576949735422282,-0.03504807991718141
36.25025121428571,0.030862401622182938,-0.24209622084247553,-0.0770435883750934
36.7465957276,-0.378268690729412,0.08963027401238274,0.10867367053415379
37.24795392,0.30118715174260546,0.03665974568148224,-0.025368150572789235
37.7493127074,0.0689907292472095,-0.05502692656328736,-0.13183437915197088
38.25067063,-0.3237049785451705,0.03963160926006224,0.08227931623102006
38.7520276848,0.3223001312254636,-0.03637244246117219,-0.0663901759932738
39.25338513,0.022613895329748557,0.014856797078680319,-0.0986494760774027
39.74972887938775,-0.3412962664874381,0.06594870041290775,0.16316039299896454
40.24607237,0.2986798409781612,-0.11466996776704458,-0.07794180817000736
40.747429602000004,0.07994140143143272,-0.03441671277858044,-0.060054779387894906
41.248786344600006,-0.14901375283917812,-0.0506204973186983,0.25152770680500014
41.75014214,0.1832547693128587,-0.027688480532284548,-0.236581224109162
42.251498510000005,0.01293955401974219,0.05814704443004261,-0.018719524753537758
42.7528546924,-0.2097257374571927,0.06516794800281846,0.1493659520266544
43.25421069,0.1170374142149133,-0.0890780961359157,-0.12976140043040044
43.750553168367354,0.04591291796822293,0.09596086911718044,-0.018905128307078203
44.2468953,-0.18817866490215926,-0.04262031125747416,0.13906172478119372
44.74825124,0.0763085916485409,-0.018365015358957404,-0.09803950965576899
45.24960658,0.02987336715318756,0.010498818547434735,-0.13741366788849976
45.750961502600006,-0.05926784188494951,-0.0008452926173329889,0.18142856128673712
46.252316410000006,0.014219169339069302,-0.06293900393313195,-0.10254809269366637
46.7536713474,0.014926041638990396,0.1198890791195189,-0.08800327702886573
47.25001239795919,-0.09430896096021504,-0.017884001639581263,0.22644546316326625
47.7463530468,-0.05804477800288801,-0.050765911819419245,-0.13724882432810065
48.247707309999996,0.116591181327713,0.15895775492606334,-0.08698497283295152
48.749060927600006,-0.043240043004121785,-0.10709451136277445,0.15065593652125528
49.2504146742,0.009685563158054033,-0.04572286472842169,-0.10496523952602393
49.75176892419999,-0.023223679191524058,0.04955413579118775,0.015110209755037116
50.2531224444,0.0029111009602583947,-0.07734698043061261,0.06623570751748342
50.74946145,-0.04489147076918247,-0.04442387082580044,-0.041583374382375776
51.24580105,0.0014326484069511335,0.05553006665856067,-0.07408327416266934
51.7471545132,-0.033907404051947004,0.037123933449844715,0.13003830705667016
52.24850745,-0.06109601824428479,-0.1796002285015456,-0.028764129550709488
52.749860340000005,0.06844052163696475,0.21946203888115395,-0.13268952437582268
53.251212939999995,0.007341700128117792,0.013786945669928406,0.07897525443046226
53.7525652264,-0.08329729879999961,-0.0835270063856748,-0.19451286329361978
54.25391762,-0.10704677849789868,0.2788874699686856,-0.16440732760084337
54.75025862204082,-0.04030869209552081,0.05815993655393852,0.07185480789649826
55.24659734,-0.02224306546274091,-0.047068999198289364,-0.1422215953389212
55.747947424,0.003972743495485807,0.2486654093442233,-0.050070278363708545
56.249299019999995,-0.07930186409608353,0.049886469306991386,0.011406017121127522
56.750650121,-0.006280933009837017,-0.07058246399268196,-0.14650792942389065
57.252001490000005,0.04851815483967135,0.15438546584034188,-0.1318821984548291
57.7533533032,-0.24786918244408465,-0.035940133270943725,-0.15994499117569008
58.24969105102041,0.09474406629939529,0.10738493037272971,0.00992790992870103
58.746028495,0.05735085952714356,0.11956910567934105,-0.1214365588155241
59.247379609999996,-0.23695436826585448,0.13446307772074595,-0.0020231310647952673
59.7487302518,0.09266148911101911,0.0038788119436079715,-0.16448714047235266
60.2500810946,0.02362947785551933,0.06196376577244558,-0.1575970482090191
60.751432694200005,-0.28768942001518033,0.13847355484490775,0.13643302223476786
61.2527833742,0.16810639480194253,0.07423132277802275,-0.21846916465222524
61.7541336046,-0.12469628763936055,0.027781335799285038,-0.160528048466647
62.25047037408164,-0.28296619238533294,0.15619097677646682,0.10648045376519832
62.7468073146,0.2944319740915944,-0.010621886948788548,-0.12929460680802785
63.2481573942,-0.028810115418105763,-0.027105295582853094,-0.018616340856486085
63.7495069684,-0.44241148465234276,0.13425275555003957,0.002315503829209886
64.25085679,0.22985897835558752,-0.061264195714657445,-0.15114668003147747
64.752208779,-0.024221165589598335,0.1898203692841933,-0.15815125893649554
65.25355900000001,-0.32063371298762067,0.11271404871935112,0.08513311709286336
65.74989242816326,0.3295554403154985,8.092225191085866e-05,-0.17232023144935746
66.24622842,-0.05690320102179866,-0.04402353818724467,-0.03946966493262209
66.7475783,-0.34900232472849824,0.19675991722100666,0.0055492760742828695
67.248927714,0.29308661191057,0.05180613434731472,-0.16700234744213407
67.7502766548,-0.06458896347462141,-0.12280197245435563,-0.041168030634269874
68.2516256642,-0.2945352789629136,0.16659754179729472,0.07519133809192799
68.7529746374,0.25433090208535014,0.056537003159774446,-0.13511649164484618
69.25432355,-0.047691110178471254,-0.13704367841239787,-0.046052715431514415
69.7506582089796,-0.29742610466727765,0.2044283667980434,-0.03068741531573542
70.2469932246,0.21406413269524865,0.16511718942769907,-0.07150663831238444
70.74834169020001,-0.09682774552541464,-0.06455379957522549,-0.24092329737908652
71.24969003999999,-0.36935374392655435,0.2670597810681255,-0.09591324348025243
71.7510385142,0.2022299798068699,0.24760489002415695,-0.19220022747051196
72.2523867146,-0.11594901068026005,-0.0682144311638698,-0.19625909807317207
72.753734865,-0.257687950396896,0.19612438165370477,-0.05222518059396388
73.2500693367347,0.08615331818315698,0.24922513058354154,-0.20109991884806783
73.746403377,-0.08695701714151738,-0.014528255053654493,-0.187328966838628
74.2477509646,-0.26910218687510284,0.15708885550158097,-0.03283238301132846
74.74909896999999,0.06968443993477633,0.1677135921187698,-0.09777092450932726
75.25044658,0.024785825022470936,-0.17756908490223555,-0.007501619922004119
75.7517942248,-0.006987455520416031,0.1650576251583651,-0.10413363633781701
76.25314169,-0.07422964333047653,0.030070324288526545,0.10736631923857853
76.74947511918367,-0.10500579468679129,-0.1383672836381984,-0.13402813221511845
77.24580884459999,-0.006150620399487941,0.21536381554522863,-0.0901430455402679
77.74715632739999,0.07958990988885323,0.06640208995402748,-0.04687948089337163
78.2485035,0.03443479643764922,-0.17784439324090215,-0.032922577108839966
78.74985050000001,-0.335092192103549,0.168476671083851,0.054032618728258285
79.2511974,0.3148414976414137,0.16010234003137938,-0.18058508952984156
79.75254387,-0.010729880420207522,-0.12578789025877948,-0.03987566715182652
80.25389058,-0.36609669174008824,0.1185664804245509,0.1900961787344455
80.75022460653061,0.4109875322432937,-0.034020248635369905,-0.15050245431283246
81.24655784,0.028654794372096948,-0.07160502941183954,-0.0933917855661498
81.7479035206,-0.3613688168974651,0.12181311140975964,0.14322508029861855
82.24924975,0.2952104789541313,-0.0914706810612817,-0.19981500710759603
82.7505961574,0.021826641054377004,0.07069767735237191,-0.07436185153852094
83.2519423544,-0.1688442084667164,-0.016086685186403077,0.13450382081808449
83.7532884346,0.040123971611006774,-0.08906785978940775,-0.03808611008821321
84.24962100693878,-0.013357117386344337,0.08469786792577481,-0.05277059189522249
84.74595404440001,0.01797094445657542,0.03986944086573696,-0.008141128708251103
85.24729996399999,-0.037102543917437086,-0.18463184725271808,-0.013651446924166333
85.7486445636,-0.18710448689498324,-0.0026540783696864766,0.09262910697651523
86.24998989,0.29471243176580264,0.12695735606663702,-0.030747940045330803
86.751336048,-0.032492276989292794,-0.2929496835451039,0.05862992355338837
87.25268152439999,-0.4009117561162613,0.09504578721018078,0.09933155476230814
87.75402611999999,0.41351229552098573,0.08346646846014352,-0.1139982431657691
88.25035773183674,0.04100946699518925,-0.13959017871818968,-0.023935647401992645
88.7466895026,-0.3413443863894112,0.10118371938528795,0.10221050720897434
89.24803437,0.3567486974939339,-0.02141176617971567,-0.15577900841357414
89.749379552,-0.0417874041639396,0.06908889682244725,-0.060651757088475665
90.2507242242,-0.2686920159973192,0.008288071558408591,0.1342650940831658
90.7520682646,0.19433342216326063,-0.1017231856807208,-0.14361221348592926
91.2534125046,0.10045286794412947,0.1056019608565861,-0.05851603928837968
91.74974389285714,-0.22821860712163716,-0.04727443895977847,0.19302835381079161
92.24607465,-0.032331672900155435,-0.2466820208004824,-0.13223890852243747
92.74741850439999,0.04431919957338953,0.1799446092262715,0.05717548594471082
93.248762285,0.08461563055036725,0.04353086801920272,-0.002386495564815038
93.7501062142,0.06296856941851864,-0.22518422313645575,0.10079997050344217
94.2514498348,-0.2977943254615969,0.06339229970841025,0.07091838017203345
94.7527927498,0.3333539540995673,0.13207456096865747,-0.1320587847691009
95.25413591,-0.03006159881704125,-0.12504686468492882,-0.059979905687606576
95.75046576244897,-0.4540369428276465,0.08530085844856283,0.10178358030622499
96.24679537460001,0.46496975353153674,-0.004416699355978397,-0.1388919450509105
96.7481386168,0.04784777048689652,-0.0724937854149682,-0.023032219187365657
97.24948149,-0.34518888484423743,0.1397438438452432,0.19342726981922034
97.7508238222,0.21339488061227815,-0.14286928826185996,-0.21915996002728008
98.2521663344,0.03950243460413644,0.0846220035560017,-0.03186520658182099
98.75350903,-0.15650881139352393,-0.01283432036071685,0.10756198548132119
99.24983787244898,-0.012490274738236976,-0.03714303697502475,-0.12835628473394686
99.74616672939999,0.12543203298186037,0.02445798771831468,0.03802155941065095
100.24750868,0.02042306070719499,-0.06417851970691794,0.16405999719700712
100.748850088,-0.02683032589310855,-0.17243923937050817,-0.030805625882667855
101.2501918,-0.15994967646221003,0.08827830410692006,0.07216571712451937
101.751533482,0.2857455228266602,0.05159857072820265,-0.13868352908281126
102.252875,-0.020568712348197522,-0.2296601865479689,0.03407563634732968
102.75421678999999,-0.3366997652733349,0.10263255300498184,0.20016259845847575
103.25054463469388,0.2591117285532939,0.14446774501825965,-0.20220702859540038
103.74687174,-0.008752197793962057,-0.18303335234204307,0.00020614910833457206
104.248212646,-0.31836384645603716,0.14628751289286984,0.13247606409875862
104.74955342999999,0.3304096492558447,-0.020361117195735128,-0.0801799651867888
105.25089424,0.0374445832394263,-0.06756326835921765,-0.07327483185166343
105.752235534,-0.32685368964250977,0.14219953435084615,0.09200212506629954
106.25357626,0.3427804054417248,-0.07680061511726326,-0.13542436736117872
106.74990306326531,-0.030305311429597023,0.026075380323052916,-0.03431941593308957
107.24623006,-0.2695968347518186,0.07998993747820489,0.19607939852811865
107.74757054,0.24371655559935365,-0.021528367559342083,-0.2715002988436627
108.24891094,-0.035466028400861535,0.07806193918845178,0.025113785524217586
108.75025158,-0.2068671547174201,0.07273901636306761,-0.00871706736923984
109.25159192,0.02784456472173487,-0.059257550688908936,-0.2316987471928988
109.75293133999999,0.12303326831481792,0.11194271460670391,-0.05854340274137952
110.2542713,-0.3762274952622752,0.18658336219540228,-0.03337676404679004
110.75059871632652,0.0707554737117657,0.14584300108426396,-0.2160896369640386
111.2469255,0.022137046456860335,0.15453421112314636,-0.22082267335414482
111.748265632,-0.3305763634373484,0.18158064044040986,-0.008522678959766711
112.24960566600001,0.06482394979259942,0.03728951826196718,-0.34127527158453014
112.750945322,0.039400665624673786,0.09930533332916834,-0.06847220336083128
113.252285202,-0.4311475577656183,0.20391912691298852,-0.0159596484970974
113.753624968,0.22087444741258985,0.034473112576729414,-0.24132377129441118
114.24995158979593,-0.020437096406156225,0.048160526471349115,-0.10034059492590151
114.746277944,-0.3103118360823967,0.07452579214487835,0.0543687446328943
115.24761774000001,0.2526486275233299,0.010233782389635307,-0.21581275729440513
115.74895797200001,-0.018172991156916042,0.05227928143072746,-0.052658925049170933
116.250297842,-0.23919679756497808,0.0340837283505732,0.20658724177599413
116.75163785000001,0.17363370649554277,0.007653340534814956,-0.17854687339451714
117.25297785999999,0.11100837281505896,0.008063013566833232,-0.07227709703694166
117.75431794,-0.3515118965507908,0.0062332811001326646,0.20762384522846966
118.25064459591837,0.16557316675482076,0.049679760820693745,-0.31698069086084907
118.746970494,-0.010197266315187995,0.10379830272144998,-0.14792384154255733
119.2483103,-0.31599558292066576,0.06947068120198979,0.1316104243828318
119.74965061200001,0.2109133444157341,0.08295384177669538,-0.25706075263961287
120.2509907,-0.11995683443506999,0.06725821216304494,-0.06726320938741612
120.75233064,-0.23750970073474423,0.10541149357393285,0.06150403929936176
121.25367050000001,0.1945673991204778,0.06810447902789472,-0.13886319252191417
121.74999738163265,0.02790538977291996,-0.05384496839506101,-0.08594686809023735
122.24632394,-0.40093139818896295,0.1581275144970513,0.06110315949623683
122.74766382,0.2993475475580534,0.04570334701982135,-0.11023809212167951
123.24900368,-0.05155520348058387,-0.04465620508723082,-0.16872986711808696
123.75034297,-0.4599629083194845,0.22126818238691068,0.04464668004705875
124.25168256,0.23981333656482673,0.18705966617380212,-0.1551225011455949
124.753022234,-0.05227839266964963,-0.06876797738854394,-0.26681136847577563
125.24934850816327,-0.30447567490999483,0.1067668073523606,0.016723343615509915
125.74567500799999,0.15314742221379415,0.11271580233432703,-0.09591139606886552
126.2470147,-0.14868419866256277,-0.04848141540327066,-0.10024247542059099
126.74835458,-0.008214179923496824,0.3024680599320937,-0.20447648479474764
127.24969412,-0.052948212163164136,0.08593659297780204,-0.0027017840575683616
127.751033044,-0.1083737240318836,-0.021629030548221722,-0.21990459147498906
128.2523722,-0.056755897123587994,0.26409691849329886,-0.1044316497319909
128.753711148,-0.047510293483334284,0.08200339141703097,-0.03157824084851804
129.25003685918367,-0.040024582677114375,-0.08313894511821966,-0.1628105083952879
129.74636284,-0.01594508675157807,0.2899974253900108,-0.17392536004673634
130.247701968,-0.09142968173161346,-0.062505869072177,0.11551485073476149
130.749041536,0.0013335441121267344,-0.010361766954656973,-0.22665367347281498
131.2503807,0.05155183624281896,0.17645508369459947,-0.06202368253099288
131.751718724,-0.20134650836449125,-0.04172124454951067,0.11474669181781667
132.25305728,0.08568345972484803,-0.08063579141472214,-0.16187643244488595
132.74938322448978,0.07521836044244436,0.09321711948940047,-0.00882623590905907
133.24570872,-0.20164798987286545,-0.04392624341746445,0.25174282599331715
133.747047306,0.1062917906380514,-0.026100801362737788,-0.19551625372645468
134.24838578,0.07967399316012556,0.10775859282870455,-0.12685486235644655
134.749724644,-0.1277156885261217,-0.12059697215272175,0.15251730861990592
135.25106309999998,-0.014275582326304754,-0.03732193918989705,-0.10187559117411331
135.752401668,0.155976381451054,0.12092322275806935,-0.0755002209284947
136.25374002,-0.22115563089148702,-0.028952356450650783,0.1182242705703869
136.75006408979593,0.0249228853401996,-0.023396464925714122,-0.14022791666822773
137.246388606,-0.015406936080954461,0.09415321849207384,0.003364246282602621
137.747726906,-0.020437066761463226,0.012339622215899364,0.05359093134367709
138.24906498,0.0008486504614908352,-0.21136679193864957,0.011630366110829328
138.750403046,-0.010596028695880883,0.06468752841351627,-0.012063421278071682
139.251740884,0.07666121835799239,0.026695272806868307,0.10655819217366308
139.753078424,-0.07386152352386137,-0.15918312189548117,-0.030364341035577423
140.24940264285715,-0.03323456468756231,0.13336223073834352,-0.0014365044352211646
140.74572663,0.08593547948174521,0.08373472191652102,-0.04541158592449735
141.24706400000002,0.02106320656793749,-0.2751341306955259,0.05139117068531775
141.748401924,-0.17721095578393534,0.05434597963435864,0.11863616459595779
142.24973936,0.3152119274078522,0.0869734776473765,-0.08638481169366433
142.751076572,-0.09763786959091623,-0.1778498672121345,-0.055500570832168784
143.25241378,-0.20426643507116193,0.17554751634903734,0.10094812651172855
143.75375101400002,0.24290316067876808,-0.005597022841346797,-0.041244627805472396
144.25007478571428,-0.03197896759257533,-0.2384062699021695,-0.07694556104580215
144.746398388,-0.20559782849665337,0.13770467618564783,0.03787771150146021
145.24773532,0.22035710061134384,0.08662080066435164,-0.08737677900093771
145.74907234399998,-0.08814622495660411,-0.12128705722872807,-0.06022367565993721
146.25040924,-0.2437823697344442,-0.1175682798449773,0.1688713381926113
146.751745738,0.251149052663465,0.1849250023566377,-0.0856238983919792
147.25308228,0.06662094792808049,-0.2050042693916166,0.002822345752841484
147.7494054632653,-0.2496784816558661,0.18156891218904092,0.1551479683261345
148.24572854599998,0.22895596040918292,0.0490004297478894,-0.04594260362436291
148.747065258,0.09794588809012944,-0.12202733297635762,-0.09315232937774877
149.2484017,-0.308420871272878,0.07596561489156234,0.15660086767307285
149.749737876,0.35815921940931233,-0.07092492666785599,-0.14550958133759967
150.2510741,0.004451506629321835,0.007015013691096444,-0.09110182012174095
150.752410332,-0.25287767916593085,0.0037013720981634623,0.1138557993062366
151.25374642,0.06712449136156988,-0.04985820403218907,-0.01822861020531675
151.75006890612244,0.06584726704836483,0.052896514531608166,-0.10838287367588631
152.246391466,-0.0612854485304345,-0.002015831365699324,0.12307980158986224
152.747727816,-0.00469437896418816,-0.10919904214402805,-0.08626081691758625
153.24906382,0.02637129138664712,0.0984779426747858,0.03641080115519566
153.750398964,0.0021629923657710106,0.08551579416744431,-0.04422952542145667
154.25173446,-0.006272550422151158,-0.18398371164131042,0.030907010645597435
154.753069968,-0.2400041882545821,0.08386342636891145,0.09330104469620534
155.24939208163266,0.2676480405924532,0.09872713406348109,-0.10705764305661816
155.74571457,0.059364179542660996,-0.24459066244630814,0.027966996759530093
156.2470501,-0.3997922296986185,0.1675606790171743,0.12168910816149098
156.74838544,0.3126694879160844,0.029190829114260023,-0.11894109437721678
157.24972072,0.020326152532579574,-0.05586504512504085,-0.11027671970276931
157.75105589,-0.29305309646866656,0.058027443812130305,0.18668459630816556
158.25239094,0.2643599096149304,-0.150238503864624,-0.11060122958080808
158.75372638000002,0.012903542698904712,-0.007341844831451743,-0.12575198637855542
159.25004814489796,-0.17993000796222217,0.04718007185732806,0.21540083321695117
159.746369246,0.16362193452935045,-0.030302696151391112,-0.15525685297495545
160.247703908,0.020199819635247074,0.13278719879981046,-0.12944469151505836
160.74903891399998,-0.15515542631394383,0.03775208884385453,0.15151384528976602
161.2503738,0.002072329128573917,-0.02408246998684678,-0.0645049957773332
161.75170835999998,-0.023866372033100495,0.13260821375949028,-0.10412839905279672
162.25304292,-0.08106806785670358,-0.04014248738617594,0.049143892707831774
162.7493638979592,-0.016945456252565248,-0.09192102640734018,-0.013402096950646437
163.24568499999998,-0.02324621045028535,0.2314495536897846,-0.1375900691641683
163.747020092,-0.05693866331281706,-0.03328962687346324,0.025183016458889318
164.24835481999997,0.007770970434982767,-0.08597020164428336,-0.028324868387041336
164.74968857,-0.09743657232594698,0.22989666835424039,-0.16127249078688904
165.2510226,-0.05253780649980499,0.13414648152693084,-0.03968621862495345
165.75235722000002,-0.05642028395482823,-0.0936868886108999,-0.13794995858745335
166.25369154,-0.09964852696581052,0.26025690883166186,-0.08810913880580806
166.7500126122449,-0.0026242401576752525,0.1100050891407563,-0.10926947393633188
167.246333486,0.02445071147759882,-0.08442837634322967,-0.025544907810248225
167.74766704,-0.1354735828803849,0.3046994310456277,-0.2086338958211512
168.24900082,-0.06888547354542406,0.15379537387535838,-0.187878215732092
168.750335052,-0.06187816562469977,-0.015295115304652235,-0.37471062806290845
169.25166914000002,-0.3185308390663116,0.2659624622653536,-0.042175055982479746
169.75300266800002,-0.02403275613526163,0.14888061743448436,-0.09077028125944961
170.25433636000002,0.04009830639081215,-0.2118085723523734,-0.08753284716630276
170.75065695102043,-0.11955713247638103,0.1949925290812161,0.0004975974137544756
171.24697734,0.1942776121750363,0.0963347886423839,-0.00549269111846593
171.74831115600003,-0.1004393722204793,-0.2317194158191689,-0.018503388194990554
172.2496449,-0.3412644700768724,0.1964091703545143,-0.042081986840078425
172.75097844,0.25828990209264263,0.11081388583686982,-0.06116482945529033
173.25231206,0.012760294876836059,-0.16601095566865406,-0.18639826888736663
173.75364539999998,-0.24856546264646753,0.1341424039453277,0.1812216054025928
174.2499654,0.2281516700082174,0.0808350095702287,-0.05848695445582518
174.746285776,0.11462801094820976,-0.1742658351720283,-0.04472035975466313
175.24761904,-0.37160210722924036,0.22702553340888595,0.14905783435682035
175.748951812,0.3036050202936605,-0.08018139714057504,-0.22836229377978917
176.25028454,-0.06839705727715914,0.04547889444487011,-0.11189522865049999
176.75161767199998,-0.3674619229482981,0.15754623289664763,0.07638613509331253
177.25295068,0.27236771256439635,0.029659908686678275,-0.08153236575373413
177.75428389799998,-0.04847877723508216,-0.021951338571780266,-0.1438863113180996
178.25060364285713,-0.35525811124124995,0.11218847273448325,0.028257381427276348
178.746923154,0.24294433100823012,0.08373184432589557,-0.13566703150935613
179.24825596,-0.06002185545277064,0.13137245955038165,-0.2558824230301393
179.749588668,-0.36929547502007637,0.2736558104745259,-0.09241194207498174
180.25092134,0.08918122239981541,0.03039449527292556,-0.21444665503405652
180.752254284,0.040339804158003666,0.13436309192385296,-0.1189608857219942
181.2535871,-0.3187295554562737,0.20597451676422657,-0.09142471141674209
181.7499062857143,0.07097653349077636,0.07376691833329664,-0.23788061574828143
182.24622548,-0.07520505391149267,0.09233805867536109,-0.08054056727024861
182.747558166,-0.11881072403749135,0.06466212682145754,-0.05042646957089527
183.24889073999998,-0.06236434517888759,0.10927934084891484,-0.25417043949043977
183.750223386,-0.010988885292970976,0.14728443662449764,-0.10421180481426444
184.25155594,-0.14877952790353888,-0.011262327375245821,0.09412068148391292
184.7528885,-0.0069126647982862876,0.011222583203206375,-0.13415885701033556
185.254221,-0.02381584666313273,0.21100095170913552,-0.2475814815185009
185.75054023265307,-0.032909276250922784,-0.009751533355105795,0.11921125772339577
186.24685944,-0.04222093685587545,-0.08827776922151345,-0.08420818332509881
186.74819200000002,-0.09471324411762488,0.1976950652977642,-0.07600383582397204
187.24952457999999,0.09691588250462033,0.004870670814632958,-0.022105530633538654
187.75085718,-0.11432233715602452,-0.13651015657165558,0.021452807703711482
188.25218972,-0.15623191095860675,0.11289387941633205,0.010645693839782103
188.75352191599998,0.1621890870243778,0.08971593948863422,-0.15028178149458304
189.24984091836737,0.01956147065683683,-0.18526810008055583,0.0391271291256385
189.74616020000002,-0.19748401637737223,0.24802519284916222,0.19909148100665813
190.24749276,0.20682657495618081,-0.11244081503008103,-0.18793584782452816
190.74882589600003,0.05845840189562746,-0.15659204888610842,-0.004308674263690993
191.25015875,-0.22776299371818853,0.07920277155365361,0.14408282552870028
191.75149074600003,0.3191372783282657,-0.09032361231333953,-0.11650376387989458
192.25282310999998,-0.12699763986466706,0.11127539465162155,-0.12126118242716162
192.754156368,0.018057108364874386,-0.00253887297648157,0.11269383982341338
193.25047613061224,-0.033396889550044585,-0.22485732167651085,0.07161586261762062
193.746795668,-0.24810864464620194,0.08019882676159729,0.1220119119298811
194.248128546,0.31236472317882785,0.0838323780826517,-0.16486804178127484
194.74946138200002,0.05773189171759608,-0.12959695678592506,0.0022321534256636334
195.250794266,-0.387718379814273,0.15010718857157151,0.09712344673295269
195.752127008,0.3312693437705121,-0.10093738466574165,-0.12027099466717939
196.25345978000001,0.07082532265136682,0.004655452391654982,-0.12342727084862433
196.74977910408163,-0.20852561655979912,0.0037907527380217926,0.21279321152680158
197.24609854,0.048126105579062294,0.020979533774489526,-0.18947100689804716
197.747431836,-0.049762684225012455,0.12010781231695168,-0.08457967961457155
198.248764942,0.06290020417142768,-0.04198421785035491,0.0945348279500187
198.750097982,-0.07765292982947825,-0.217489504066988,0.062032025188227494
199.25143098,-0.12619506557230764,0.06880762945216783,0.03961293282004789
199.75276373600002,0.22029415844931377,0.11066188087319638,-0.09743757767724595
200.25409664,0.03300387109291623,-0.2678564676222337,0.03471326993372921
200.7504160285714,-0.42561719531433917,0.12659433438209103,0.041274749042859056
201.24673555,0.4542547647332939,0.002955021558508157,-0.05280573507241306
201.74806899200001,0.044199424046908714,-0.09881990447894724,-0.006451707924407889
202.24940235999998,-0.2753919648854317,0.07098649268110396,0.13757856803786958
202.750735396,0.2356991151567247,-0.06801292172780396,-0.18793738784689812
203.25206836,0.0541835435648543,0.03779270715209648,-0.03204427647725983
203.753401328,-0.19000732330241438,0.03500579532040389,0.17175421293145215
204.2497209979592,-0.03650686839043756,-0.12855330401952042,-0.09202210951805008
204.74604088,0.053341890280013855,0.1762870189022077,-0.0817297652096596
205.24737430000002,-0.014177286762899245,-0.009641647078823836,0.16594607258193683
205.74870751999998,0.0158935814234641,-0.2079589323598867,0.007481227550334338
206.25004076000002,-0.15885679058957725,0.05295702338731701,0.08420042693585017
206.75137434,0.21737818937909545,0.11325533744247097,-0.11561198258279307
207.25270784,0.03627680649549288,-0.2301314848438063,0.08751584738606896
207.75404103600002,-0.38803161762206023,0.109072486237555,0.11336065129817965
208.25036097346938,0.42361050221860413,0.05593204401603686,-0.19674087180427433
208.74668084,0.035696384139721246,-0.024490992701094925,-0.1657164536023963
209.2480141,-0.3369335712708966,0.03972706637116537,0.30368870490607625
209.74934753000002,0.20170071781577648,-0.05653277679325251,-0.20792164328793714
210.250680902,0.0053878396779271955,0.1407809700318305,-0.11558034671869728
210.75201424399998,-0.20382594871753135,-0.02100835878175201,0.08236926392669364
211.25334758600002,0.02860475569465635,-0.1647466526554361,-0.03154295105718383
211.74966754489796,-0.08532083573559114,0.13023556830745517,-0.057685352804507976
212.2459875,0.14865382694505452,0.04693698365074878,0.005962190121739969
212.747321046,-0.035609058901067914,-0.24292562588351707,-4.476995792470441e-05
213.24865456,-0.27075149997527254,0.2411163315351606,-0.0006584372769087876
213.749987506,0.2528052087874373,-0.06719968522777947,0.030416275163024854
214.251320506,0.036782331884292696,-0.026107697577077392,-0.13237635805947975
214.75265358000001,-0.24383615337287495,0.06386805278375951,0.27709300632248285
215.253986846,0.3544737117877308,-0.07349191552775652,-0.096254856847281
215.7503068387755,-0.04303791318738437,-0.04071777540859396,-0.1585833686008592
216.24662692,-0.24003022090126508,0.07403261597065369,0.18288502278794522
216.747959634,0.08164789249221784,-0.1388530905046624,-0.15850489363675987
217.24929238,0.047221898792115795,0.16506583097392855,-0.08770808120612078
217.75062565200002,-0.27363775692333187,0.16249165306710153,0.046959783570471716
218.25195879999998,-0.09003774828617019,0.06294055825969445,-0.13785104177024027
218.753291858,0.06691363080902313,0.13547067950443065,-0.19950016990769356
219.24961145918365,-0.15029808200581493,0.19076138737392717,-0.04417737409155323
219.74593080800003,-0.01723392980957287,-0.07653403131053685,-0.15764638653156016
220.24726353999998,-0.16845953920214915,0.2397851474706268,-0.12680354541318756
220.74859680400002,0.028433205091772905,0.17643684790412467,-0.15668676481501895
221.24993002,-0.032716612605006266,-0.1884418467233527,-0.09567906848002936
221.751262798,-0.2657207245890405,0.30564378648349494,0.10897488445747978
222.25259562,0.07761699187496682,0.19283228187208615,-0.23287537917799286
222.75392768199998,0.015617903906997526,-0.13624374495647718,-0.11258375612636298
223.25024665510205,-0.43786473194251674,0.26315877654802033,-0.2094119066587723
223.74656629599997,0.2932021055753248,0.23068130207220286,-0.26770310469397546
224.2478992,-0.09399593186974574,-0.028019749112379356,-0.16481079849523758
224.74923195399998,-0.3816371276046889,0.2034271681586207,0.1174246689838479
225.250564582,0.27349880214206973,0.07696294755404773,-0.09485723575907791
225.75189665599999,0.03176743776817341,-0.07841786966169279,-0.21472660375350508
226.25322884000002,-0.29072527899671025,0.09332756580861166,0.16267718875069648
226.74954813061223,0.26603788882635715,-0.008806536271661015,-0.16598205599651317
227.24586736,0.025318540402888067,-0.010752228382303924,-0.0780013366254539
227.747200076,-0.23178324374177994,0.007566019094042027,0.3312644052751517
228.24853264,0.07997827611135593,-0.006316761618927127,-0.30677703222312386
228.749864876,-0.044006737185781936,0.09775764264353999,-0.13638689486635408
229.25119705,-0.15539137331935923,0.059289365360689905,0.16283015158378372
229.75252896400002,-0.04250025377843222,-0.0059048358648083376,-0.19571210921759274
230.25386092,-0.08549360933073734,0.10520752060954736,-0.16509249660531958
230.7501800755102,-0.09573902355099496,0.23153049278095345,0.03593400411898497
231.24649914000003,0.019883704115056557,-0.06157841979529733,-0.07711258450131779
231.74783108600002,-0.027542605615540994,0.1705658476013977,-0.2376213699597216
232.24916308,-0.058523815128360065,-0.025401863481637182,0.1029320418414697
232.75049506,-0.011608205142128762,0.004862556617597856,-0.2082259926632268
233.25182700000002,-0.0705477733017359,0.17746912231240486,-0.0059718243030395055
233.753158956,-0.15773018678412062,0.11819913060583825,-0.03594163432607785
234.24947753265306,0.06605601809753217,0.02918421849740465,-0.17904216755690508
234.74579577,-0.06624858828134196,0.15525038266203064,-0.05905479684963151
235.24712724,-0.1723555790539117,0.11003703203366444,-0.012652603523567509
235.748458836,-0.02839348576171255,-0.020253085396549343,-0.24116815133727357
236.24979042200002,-0.06566317805778238,0.24471346420537204,-0.15940761691033503
236.75112210999998,-0.021914982318520113,0.014548488875265197,0.07822833761529147
237.25245382,-0.10220942670290038,-0.07913222542456545,-0.1217209673586785
237.753785546,-0.16341815438756552,0.2999584151038718,-0.08322660301523951
238.25010388775513,0.10112469288502261,0.025823257488289734,-0.18279102309561104
238.74642191200002,0.03253123652245536,-0.10031806433767666,0.04793245236771679
239.24775326,-0.3698641921426934,0.2487634916785009,-0.09128099714919133
239.749084876,0.2911097278142883,0.10037861580713248,-0.18407593518396848
240.25041642,-0.021853287610469972,-0.053522964347138664,-0.18773315233333895
240.751747564,-0.3844494782207695,0.07978999292934216,0.19374877206591684
241.25307862000003,0.3728205826027301,-0.115873006979066,-0.15444340855652655
241.7493966142857,-0.07446556294729068,0.13733258020404845,-0.18290477378111977
242.24571454,-0.15852389469827438,-0.0784134589289094,0.31571439347437164
242.747045616,0.024798008848210058,-0.06529610795691303,-0.0699979538896285
243.2483767,-0.03567513777437503,0.1481365886387627,-0.11807686513572392
243.7497078,0.0933079923267459,-0.037995131836300114,0.049996983201927706
244.25103882,0.01989436210286198,-0.277616451388,0.08139544279073334
244.752369874,-0.24504274105985552,0.08928147610983002,0.04209255025828759
245.25370085999998,0.27840030642173014,0.08916177293826452,-0.1349672762142564
245.75001844693878,0.11754661394200154,-0.11228157702524236,0.01417351112190558
246.24633602000003,-0.3457854400145498,0.06250272944400277,0.1688597495837801
246.747666558,0.2355077490211039,-0.09446604633482467,-0.14342714523140324
247.248997084,-0.06659356229559557,0.10484162986379086,-0.10107359440874329
247.750328264,-0.031381581815718686,0.08957928418904207,0.08468189098873317
248.25165942,0.06946469658215375,-0.3422840709200654,0.050047011989284663
248.75299031999998,-0.3419930486206655,0.046246058047346716,0.09959164000753735
249.25432112400003,0.3561572676622889,0.01565950335698644,-0.07489517565316989
249.7506384020408,0.12352172403606522,-0.01380123399580681,-0.10950842521389952
250.2469557,-0.2636719977311298,0.008251047269113899,0.15970392225714752
250.748286372,0.12147342887370044,-0.018933254476903194,-0.14498681524135104
251.249617,-0.05480473225986078,0.20305261986698614,-0.16824470364312508
251.750947756,0.006721328579573042,0.014681166981692586,0.20096524283743034
252.25227847999997,0.006472288184249313,-0.2929044071904169,0.017058208555820933
252.75360856,-0.18162875219825309,0.09956986083064986,-0.030556041475576206
253.24992526530613,0.2784114119511494,0.0961705444568309,-0.10472865032773325
253.74624252,-0.0015156893844031427,-0.2050252184625995,0.018156813812920402
254.24757304,-0.39908907959841,0.19300355354538393,0.07082452953136134
254.74890347000002,0.3849327064583191,-0.023980683577583376,-0.030588382304406622
255.25023388000002,0.06022387027420058,-0.03413205197072564,-0.15449540391463656
255.75156447,-0.35578529972092815,0.06089219513987799,0.15967058236566475
256.25289502,0.15576652610779226,-0.05778647719099315,-0.14973718733011088
256.754225556,-0.042356028422998876,0.14407781329301655,-0.09216867955866798
257.2505427857143,-0.02446368236384999,-0.038141966766074877,0.20217881427672474
257.74685983,-0.0007984777127350978,-0.17081371791641708,-0.053871854642725106
258.2481902,0.07267583474611355,0.13551740243893126,-0.08797095291305007
258.749520032,0.11589611556502867,-0.06327939412766306,-0.11412915942466886
259.250849842,-0.07292452282710762,-0.15265096096101827,0.09175881358279513
259.75218041,-0.19624168550509075,0.13882842026160946,0.12671143507799418
260.25351095999997,0.22140617590278672,-0.09957349851014995,-0.0054860232055999655
260.74982760408164,0.1360207060864916,-0.12876497485263055,0.05284543832559448
261.24614421999996,-0.3166903698298902,0.1499783023075108,0.009229263297700867
261.7474746,0.16334230620913437,-0.0630196278878242,-0.12896081025583817
262.248805,0.03573631118765116,0.08414179969666712,-0.12155747405998145
262.75013490000003,-0.1887916531797888,0.038121225902202675,0.26430351453036205
263.25146472,-0.02862207341405662,-0.23971586658600597,-0.09526202405714365
263.75279488,0.02569326374999976,0.27868668030904925,-0.025471527262330845
264.25412489999997,0.04671640891567017,-0.006184740492975124,-0.048498042838768046
264.75044168979593,0.025291817547477877,-0.25309115104068036,0.08220609291965322
265.2467585,-0.23113385984630078,0.0841837889230549,0.0054711147542587215
265.748088552,0.183025904427965,0.14232531385876346,-0.12444259873903524
266.2494187,0.08716080654491969,-0.08530547020591622,-0.0963546584544738
266.75074824399996,-0.2525752202572469,0.06777674475226521,0.09906554976481079
267.25207774,0.27628706481063187,-0.13298388252253024,-0.12209076152476697
267.75340752,0.028877055255489427,0.09135482715170218,-0.038275108920153185
268.2497240428571,-0.3005371250214217,0.0309038134351853,0.14045942832153993
268.74604070000004,0.15349953755239276,0.010848953778901186,-0.0894048779398688
269.24737072,-0.05284693741518082,0.062429041176083465,-0.12246498126575701
269.74870042,-0.04222646046213213,0.05674817748247381,0.08897067111138776
270.2500301,-0.026996730084809836,-0.11471407399550415,-0.018738148993432867
270.751359492,-0.07577963649073537,0.14733748936596805,0.023806075666257226
271.25268882,0.018980464592018784,0.12735739228873527,-0.1268657197869232
271.754018584,-0.025717615580633176,-0.05230451916812264,-0.15144112897104203
272.25033505918367,-0.24434138621892734,0.21799173602811223,-0.077674584050695
272.74665142599997,0.032930121556519,0.18051917322731176,-0.2804364276729091
273.24798106,0.05005879322785011,-0.10171738592416364,-0.05821978963999422
273.74931067800003,-0.40730980618793816,0.21027242033093357,-0.06568224803320553
274.25064028,0.1605473291087189,0.299543011938782,-0.18892730392485713
274.75197004,-0.02145659225544115,-0.03341255448751253,-0.2644432300596783
275.25329976,-0.4989178366153497,0.16519624411537187,-0.05864803203592689
275.7496160877551,0.3125355261946303,0.06007239037413241,-0.10873454214231472
276.24593250000004,-0.07927628646707856,-0.02884114589569937,-0.17957300538335919
276.747261342,-0.27508480548246056,0.15650221064753425,0.06843750936033151
277.24859002,0.25967220618197323,0.06279118217847608,-0.10822570556681672
277.749919572,-0.0486902747393842,0.03390072767538428,-0.1307734275157571
278.25124904,-0.3286374852859074,0.10983981094612609,0.006281870003323084
278.75257844600003,0.18037895551432093,0.07869813128092754,-0.21008073140792624
279.25390786,-0.06551298694407243,0.10968021528995195,-0.036107392094138296
279.7502241367347,-0.13450332975719398,-0.019139190410606948,0.17259683741181012
280.24654037,0.03918458986765158,-0.0596746019575191,-0.13773359670367258
280.747869484,-0.11953390593072782,0.12031668176305352,-0.16515406790470893
281.2491985,-0.0026974696120683783,0.08946607317830878,0.05376471028381898
281.75052776,-0.014200978628772927,-0.17530037287555872,-0.05073163721504668
282.25185700000003,-0.172089730205518,0.23155567830620039,-0.0492769044703107
282.75318604200004,0.10419512536836453,0.06862997676508481,-0.010898013513458888
283.24950164081633,-0.03751159167540119,-0.214944674349393,0.010578690025670532
283.745818042,-0.17498932079178697,0.23500668441919725,-0.10688366918826311
284.24714772,0.07852708182236538,0.18163307491575395,-0.0669365552081386
284.748476868,0.02315579351153247,-0.1074378410992929,-0.18499039074256893
285.2498059,-0.40327647614311446,0.2571792570095899,-0.04234232562246821
285.75113506,0.1797898376025773,0.1453353970270612,-0.10789837436422556
286.25246418,-0.023212663498774357,-0.07031219113039272,-0.2022277601246578
286.753793402,-0.380284822175853,0.20191283154739684,-0.08802223019943498
287.25010925918366,0.26653635214449045,0.18451310219484893,-0.16373197609240925
287.74642477599997,-0.17529860807688255,-0.06806541824185794,-0.3029598473933221
288.2477535,-0.3661418035424975,0.3005459416197772,-0.028583083105248975
288.74908232,0.23857785905837647,0.04522710422419363,-0.030257775984922804
289.25041122,-0.023763630381032907,-0.09373761467209395,-0.09470534143097886
289.751739988,-0.3988937592065946,0.21440473926173906,-0.06358147357968613
290.25306868,0.3623754308128537,0.06256318109249269,-0.11905943135329608
290.74938457959183,-0.02189412475011777,-0.026447489666396626,-0.12076584421768198
291.24570056,-0.38739128967953157,0.1140667024647794,0.022026202353487446
291.747029184,0.1772521690466443,-0.018759996845872668,-0.1372740575091905
292.24835768,0.029811140560041544,0.13291132355951363,-0.1150111836390359
292.74968688,-0.13203976935369444,0.00012041144324212216,0.10400407677680608
293.25101614,0.04306888763185255,-0.0893098201092418,-0.08947904045630682
293.752345026,-0.19177878659947,0.13953780469191732,0.02781273994109387
294.25367386,0.16083863287909675,0.02365168620513586,0.01110646184058818
294.7499896959184,0.027726733943745117,-0.24035515154539636,0.013589163912983973
295.24630551999996,-0.360527268977028,0.15729544497948295,0.03119761884191173
295.74763477199997,0.33248726241659277,0.03174279833205944,-0.14705352749667716
296.2489642,-0.005154510518051778,-0.06717800151930375,-0.08881715317070907
296.750292988,-0.322687429883221,0.06155773152483019,0.17094096376996235
297.25162167999997,0.16390921343030992,-0.010466612477546105,-0.09665728484426948
297.752950782,-0.031239108991872613,0.17078064446250021,-0.1865703724204861
298.25427988,0.05493967772906223,-0.0652197375131231,0.08399552955417958
298.7505959040816,0.017025049495450157,-0.274573574400256,0.03399411408703822
299.246912084,-0.17061627677020863,0.0522134605045024,0.17706261955412791
299.748240872,0.27750934763299745,0.07035473505982737,-0.10784679410482881
300.249569606,0.10662823724783839,-0.2121664389204856,0.03316693560051081
300.750898432,-0.3565962377616683,0.11897984642906329,0.10341467674831525
301.252227156,0.25253839214812623,-0.03694231603792075,-0.18531813211745202
301.753556498,-0.10173151037370876,0.10778230942726572,-0.12559838218774372
302.249872655102,-0.08963851499690066,-0.0002925453738437412,0.12488304169009255
302.74618844,0.048841066018253276,-0.2390121150645738,0.07301507845577544
303.24751754,-0.1519457799953871,0.14092431208003378,0.005992627043258658
303.74884632,0.1465858929149593,0.08509182253820903,-0.15654389730351578
304.25017504,0.08258874068305787,-0.1580229758473342,0.060555065069292126
304.751503996,-0.3685464931476657,0.18170141972671616,-0.02019704821889057
305.25283294,0.32932936696160375,-0.0805770168530242,-0.0001269480092022418
305.754162084,-0.11782707878679982,0.13881708376636256,-0.23766257191637746
306.2504779714286,-0.03520594059963338,0.0008171971628841594,0.17630174703392074
306.74679374,0.047192539305567494,-0.274143870502471,-0.031299415342289166
307.24812276,-0.33994260234897616,0.15242683737336782,-0.038931794311264804
307.74945168,0.30125271004189164,-0.0317171363914485,0.04056777698167579
308.25078052000003,0.15069276416281102,-0.016663058192120286,-0.199388011859015
308.75210984,-0.23641850877363843,0.033064457434114986,0.26178961079329033
309.253439208,0.09882421937344234,-0.09187345730531059,-0.05892480689692811
309.74975487551023,-0.13553402287786068,0.08182072845057516,0.04078193884908731
310.2460705,0.12175969356622625,-0.08878453038713849,-0.0029935143787870187
310.74739942,0.09488437358107955,-0.1807994553625956,0.05955391887149845
311.24872826,-0.3188853419942894,0.1689752249511936,0.029957656618152653
311.7500573,0.33296476446198603,-0.10393875214496226,-0.021647451137963715
312.25138634,0.008985382415408973,0.07147225443557179,-0.21574491872084472
312.75271534,-0.2056289099048937,0.04283812589051182,0.18959522458110947
313.25404434,0.09766014748288074,-0.08310428087339602,-0.05114142522605334
313.7503599877551,-0.04221451705814761,0.09082212977645288,0.052082094148336346
314.24667561999996,0.14126884812154109,-0.05021818623943954,0.001750342998832578
314.748004276,-0.011647715143391236,-0.26254520996599884,0.007721073299374151
315.24933276,-0.3325582267208674,0.21609523912246467,0.05662983792849784
315.75066191,0.3141127986464765,-0.06237458227197022,0.002083732034388794
316.2519912,0.03802315855878749,-0.11032126940365991,-0.20688019600858565
316.75332006,-0.298631780096818,0.03654738769241843,0.2960027952214965
317.24963551224494,0.20636285521099845,-0.009131315879641253,-0.19511548174518686
317.74595143,-0.011004689861635662,0.07605802821013427,-0.1376293475951787
318.24728072,-0.178363861641782,0.011759085310320683,0.06876410413387544
318.74860952800003,-0.0037837068892189476,-0.17774998229419928,0.0553680509530904
319.24993828,-0.15322952055940006,0.11007787277874391,-0.042628138625585635
319.751267296,0.17143801501791828,0.12921507617143108,-0.08269920748917536
320.25259642000003,-0.003252725288269922,-0.1810425793128,-0.05959042382752041
320.753925494,-0.251261829532699,0.18951231946243483,0.14815545163300162
321.25024137755105,0.3002136044892468,0.014312122694933082,-0.06578129696024229
321.74655715,-0.1009001123604906,0.035777975709706304,-0.09991734673847842
322.247886258,-0.2978194376278007,0.1589304682365263,-0.04046487169987525
322.749214976,0.09951082868928492,0.10811417844748909,-0.19424636033058795
323.25054356,-0.06494866297540405,0.19709815774003134,-0.3635270307383096
323.75187273,-0.23578416179173003,0.07919927861252922,0.08777402015766812
324.253202,0.031244931688121192,0.05466389768089706,-0.19279468560955804
324.7495178122449,-0.08830014658478084,0.2044595796578013,-0.1754033162546956
325.24583372,-0.09789663287379279,-0.0005940215184325748,0.14798078767275918
325.74716239599996,-0.010271124818329645,0.04983614377808399,-0.1116823454726881
326.24849078,-0.17701557279343091,0.1824282784585264,-0.2644277016075337
326.749819924,-0.10078836504636851,0.14632576605208358,-0.05852933334858039
327.25114922,0.012984551412065696,-0.05982848014735463,-0.28738934443213726
327.75247813199996,-0.18252966380258784,0.2854757511569588,-0.05656247511665443
328.25380692,0.03839399847118155,0.06856431651517479,-0.17387537309609383
328.7501228489796,-0.001972482716427089,-0.22490822328410628,0.08575749694052857
329.24643900800004,-0.22241853480252438,0.21811892359142235,0.02892531066111847
329.747767918,0.10470994151284767,0.17335403238177474,-0.17099438292386948
330.24909679999996,0.08841881529187258,-0.15898257164173796,-0.10180077449741573
330.75042582000003,-0.3824571905791961,0.2220929573904461,0.013973150619785683
331.25175486,0.32081662310407616,0.02819031881727758,-0.07159934061957926
331.753083844,-0.0033957373833534625,-0.08565367189507768,-0.06442260841378843
332.2493995632653,-0.3348876010638872,0.10957992947306962,0.07569164205728267
332.745715448,0.23897358934630894,0.004677446857717338,-0.17290491276659775
333.24704466000003,-0.0548480968828083,-0.02115507560936063,-0.10772828419045986
333.748373792,-0.24675446064153506,0.08891145393797928,0.11098326141901174
334.249702958,0.17198460118832376,0.01111130548722205,-0.09851526609107554
334.751031974,-0.036313625433462116,0.054747850624393024,-0.22178908817281706
335.25236087999997,-0.2860473604822446,0.1753622238879742,0.07006621980898294
335.75368998,0.027354674194155236,0.09513718633109879,-0.16606593809922895
336.25000578571434,-0.06493148093409135,0.11391053950921853,-0.1613839888349984
336.746321546,-0.08656142137082248,0.10435516315024836,0.09313245011767224
337.24765064,-0.007233210795992423,-0.021503751665061667,-0.16199447348697735
337.748979794,-0.14340004233154105,0.18371322248417446,-0.15910693946113505
338.25030899999996,-0.08499973522218855,0.13411201997914152,-0.045991574856633716
338.75163815400003,-0.1122681855974508,-0.08849431245222425,-0.18950669955240834
339.25296734000005,-0.05577409838871761,0.2652786192246167,-0.12576196863980038
339.754296432,-0.06414888055462441,0.0816233575781891,-0.04970212467017851
340.2506121346939,-0.05042597393568704,-0.035736040825438305,-0.0908534106447341
340.74692799999997,-0.11974925196598944,0.23437207197596627,-0.14215787286785148
341.24825716,0.005950417518261907,0.025508061273516205,-0.0481608038950109
341.7495864,-0.04329952982919015,-0.05772065569017891,-0.06606243375129621
342.25091568000005,-0.1395580142943241,0.21907191073839555,-0.16313323213361247
342.75224479800005,0.10775302696268575,0.05319749284805571,-0.07403792175404007
343.25357382000004,-0.0781977299488441,-0.16485812464916116,-0.01162174852270934
343.7498896877551,-0.15358705161856903,0.11298346440427964,0.005221435026135093
344.24620546,0.19956525174224748,0.19813799652870273,-0.18784414594996107
344.747534788,-0.1044000913911379,-0.284780557861794,-0.026793654718148457
345.24886432,-0.2409746385097074,0.14444491351439107,0.0796838440313032
345.75019370200005,0.2804154897758806,0.08856620584125251,-0.09896236646171769
346.25152335,0.04149685084327114,-0.06923220982266333,0.027337257713549352
346.752852572,-0.2775487644872992,0.05251298907416837,0.12822065396934534
347.25418169999995,0.21847916497863945,-0.04900454681850176,-0.20519990024397622
347.75049775714285,0.028070997571495906,0.134814595737622,-0.04760242515854276
348.24681384,-0.15481689678529714,-0.0507028064143929,0.1937087108941646
348.748143288,0.01524035670309074,-0.025887554293217166,-0.07458422252391389
349.24947289999994,-0.06150584170624887,0.08245653996229572,-0.09496284762948623
349.75080216000003,0.01880644585238464,0.013085584800907506,0.07386829198177228
350.25213134,0.08652846472317371,-0.28286590891382274,0.07595302208951475
350.75346070599994,-0.26225334427006675,0.039221711858640124,0.07490425890820643
351.2497766428571,0.31285539169048343,0.0513932050038672,-0.08294729483969265
351.746092746,0.04889373697353522,-0.022217117060702334,-0.05731768026679793
352.247422088,-0.3242630042950117,0.019573623510564343,0.08727221113185285
352.748751816,0.29682735766824553,-0.055166734960842116,-0.16742493546237797
353.25008178,-0.017747060950947253,0.16163959412363166,-0.08272173161506627
353.75141148,-0.09931074523353015,-0.02425160086713398,0.17954661032338706
354.25274132,-0.10969695187197821,-0.17628256884586213,-0.04073082026861785
354.75407071200004,-0.1093307872106854,0.19215359847682478,-0.030342313997684844
355.25038654897963,0.22454280436349755,0.04445472466543499,-0.04678007703466692
355.74670311,-0.0275701936628843,-0.2997230957699086,0.04540059494916481
356.24803328,-0.1363523453524143,0.1718988046459841,0.1443732416085791
356.74936311,0.22363672471904997,0.03220688406224646,-0.08391733956891331
357.250693,-0.03163710578439307,-0.2346536470850106,-0.04658213305861825
357.75202292,-0.26311100002650345,0.129996210388995,0.06962716174715337
358.25335284,0.25363829239283464,0.0245563600023129,-0.1278931005957265
358.74966932040815,-0.015616059196277786,0.07438512772219524,-0.19216308710697094
359.24598544,-0.11516009653827665,0.013381925041948598,0.185123416828252
359.747315368,-0.013445587891239503,-0.29125459373595936,0.014751870579975103
360.24864529999996,-0.13482295370801978,0.09566504139191774,0.01791132097483742
360.74997511000004,0.2911112935794245,0.0636716367478806,-0.10525229771695095
361.25130498,0.04634247393662938,-0.1397936035914798,0.06005069882273372
361.75263484000004,-0.35028496030547385,0.11445525396862472,0.11606715674482083
362.25396472,0.28427483969414125,-0.01928685144371357,-0.1731733197118244
362.7502812714286,0.023915947811116164,0.03273876821135241,-0.09303324080028473
363.24659782000003,-0.1882261963554262,-0.01834914156672539,0.12774835110309982
363.747927784,0.05954333820716742,-0.02594836805459498,-0.09014645829647067
364.24925781999997,-0.03179504419189072,0.14683281033721945,-0.04676266520898286
364.750587608,0.14295457149420815,-0.06909502794069546,0.032424824477978655
365.25191714,0.01534136478454415,-0.2765401722645526,0.12625344686350803
365.753247156,-0.27419784257001284,0.06460389149958795,0.06894680271277678
366.249564132653,0.303904688260175,0.08441493525248685,-0.1331149082573294
366.74588050799997,0.04947705943670464,-0.13864152796931395,0.04682209315828929
367.24720994,-0.31355627436638367,0.08532528256810971,0.11800634334151797
367.74853992,0.3844663128037141,0.005724340737899332,-0.18146852818637907
368.24987016,0.014629788605887649,-0.01676249644984358,-0.07042378038530792
368.751199808,-0.2685150993352881,0.014189419475265263,0.17110816185301553
369.25252914,0.019919626201388724,0.0021561010773043297,-0.13317484248872716
369.75385878000003,-0.031012985141251507,0.06117470784649526,-0.039292643199955485
370.25017507346934,0.009401168478903838,0.02330164048634414,-0.01582971116057213
370.746491386,0.0617724335801825,-0.22201756150066493,0.07506371532146956
371.24782103999996,-0.22339251273879848,0.0869687949747508,-0.05299262839266818
371.7491506,0.16673487671032305,0.15764970111772522,-0.15102715914450615
372.2504802,-0.012980426599627923,-0.09541147043608357,-0.043244321032116666
372.75180970599996,-0.391908042223708,0.1341651514926,0.052857559401496196
373.253139058,0.2654892606912722,0.06843558763888459,-0.04096157330509317
373.74945545918365,0.07186726361175391,-0.11500763350448104,0.03401856444488247
374.24577198,-0.3168663486671592,0.13282508653835864,0.07343661684014878
374.747101578,0.27877461187858754,-0.0016682719436150887,-0.25297305947018206
375.24843137999994,-0.06929290600976139,0.11930324531876471,-0.12531151435694562
375.74976084,-0.26507730781646643,0.1120963076620451,-0.030611385457360626
376.251090266,0.07720114215200044,0.12643784243623785,-0.1863751994355785
376.752419652,-0.0702875494821701,0.11499144259152048,-0.15769962506786345
377.25374883999996,-0.15056051103566023,0.0988321858964184,-0.0298577421768922
377.7500650265306,-0.16036719455938947,-0.07679258051800736,-0.12114614450757334
378.24638101999994,-0.06836318668803874,0.3818171662974004,-0.20338874001989699
378.74771051999994,-0.09149895969155863,0.1020599228403444,-0.05756994226004942
379.24903998,-0.05233523899353684,-0.141871184786945,-0.1088864957669243
379.75036950000003,-0.1838556973599216,0.24775088307476953,-0.1221750610081726
380.25169889999995,0.06922689857008579,0.07620789823212826,0.0033032543834847915
380.753028614,0.028949671554337142,-0.22281406555781522,-0.07801624395341078
381.24934540816326,-0.19365531480437695,0.16313092229616286,0.017587083150234217
381.74566125999996,0.12031889087802622,0.12715827482652725,-0.08011278190627351
382.24698994,0.011549746619045868,-0.16956981733681867,-0.05977671374302328
382.74831936000004,-0.35023694464960264,0.12375971559126224,0.00879467382442356
383.24964872,0.2728079226819457,0.18221129961061497,-0.15183623081885225
383.750978084,-0.0680531998897259,-0.10972036987600514,-0.11700460503983527
384.25230752000004,-0.3630711088777056,0.1302981837359983,-0.046948311854825196
384.753636832,0.22252736612833432,0.22513444538747918,-0.01134439453455906
385.2499529755102,0.08407888786388974,-0.16718008753523453,-0.1489818689725425
385.746269064,-0.34771833172791694,0.14348984858967853,0.047052183844744126
386.24759870599996,0.3769702959004726,-0.004323193352699846,-0.08221175533007308
386.748927934,-0.08851789377149,-0.048901116747590685,-0.05380094774399992
387.2502571,-0.33550802274660024,0.12656305069219348,-0.003588629804921479
387.75158627999997,0.20221518263335791,0.11640165543857871,-0.16880535098506946
388.25291552000004,-0.11701431894665597,0.1459101674369991,-0.2071627625218191
388.754244536,-0.29511004963412335,0.12135621389316997,0.03974631063626259
389.25055997959186,-0.009680151671778886,0.08291050318317737,-0.1997505043705312
389.746875928,-0.044810873669385014,0.2007467640681087,-0.23141320995958284
390.24820536,-0.20558253521880396,0.17788803003045128,-0.05171806018130236
390.74953437,-0.06060955393391157,-0.05301481763199774,-0.2102727711670001
391.25086306,-0.02836768968975675,0.24166945921363503,-0.1924214620061457
391.752192248,-0.10325292387442882,0.10022953353849562,0.01441442761141333
392.25352147999996,-0.12336539267838076,-0.04577482258051801,-0.16698471196318393
392.74983731020404,-0.12195805543519538,0.22416228074546962,-0.12498089245286519
393.24615328,-0.008238172973797742,0.08882273241082891,-0.0412176698230903
393.74748217,-0.01932934309826925,-0.16322375910351325,-0.00878010250842992
394.2488108,-0.2103508545816549,0.15512518231876385,-0.04940165179896075
394.75013978000004,0.23141441573906943,0.0767366301481246,-0.03008145832293793
395.25146878,0.01920369381379366,-0.16699044050226053,-0.12603185814263573
395.752797806,-0.41375281724731267,0.17134541634715614,0.06597809478630928
396.25412698,0.42776282549648265,0.03416729789854675,-0.18722027613660508
396.75044275102044,-0.05555984740335808,0.005568522358772114,-0.09719379378434567
397.24675862000004,-0.28274135196175865,0.1057245690843449,0.09071258701144055
397.748087468,0.1322829685931113,-0.023962479477948277,-0.21211216530267954
398.249416152,-0.04711804460360614,0.0299737883624666,-0.03899902642752894
398.750745102,0.012943229184848543,-0.026869368447818114,0.19793586894665743
399.2520742,-0.02876031664816991,-0.1886820797216085,0.025875104339145114
399.75340310400003,-0.11220119183898745,0.16154098228079625,-0.09290635712121526
400.24971882244904,0.21129631133494475,0.11980761651824427,-0.0881795680259548
400.74603420799997,0.047206576676185365,-0.3201697497128141,0.10937502370972597
401.24736226,-0.39927116952884895,0.14612269158916028,0.06613922383160432
401.74869119199997,0.39811767203400306,-0.11536341926482858,-0.12545031840225382
402.25002044,0.021178968339930996,-0.007877120470215887,-0.041641768466631965
402.751349208,-0.18943021793435913,0.09190681895346577,0.17628340797249994
403.25267797400005,0.03513712246358026,-0.13600360671297565,-0.09903056717792183
403.75400687200005,-0.17183101499827377,0.07608494093895696,0.017122498999029193
404.25032274081633,0.273488798728211,0.1325880485554,-0.12189957311515452
404.74663822,0.05998500765803423,-0.14513233366112346,-0.0010739340551246502
405.24796686,-0.34678330259886614,0.024233007951278838,0.11938828600408524
405.74929554000005,0.15509197742968722,-0.03860600943314441,-0.07402870102549337
406.25062412,-0.0902477423105527,0.10116952120468918,-0.16977281443201067
406.75195284,0.12716032665863775,-0.010469082912609647,0.08969120259755192
407.25328164,0.05416213200119696,-0.3132202100149596,0.14087965396193292
407.74959709183673,-0.33728534376253405,0.20947092693836558,-0.07859506745988631
408.2459125,0.29518494615910446,0.04832106776943307,-0.09462798140751821
408.747241274,0.03843521950151423,-0.006802589947200377,-0.08921961924433644
409.2485701,-0.26401278200738676,0.035721128331644515,0.12387877155970799
409.749898598,0.041497031524618914,-0.09163974656096661,-0.10120535190602618
410.25122647999996,-0.08347629704901478,0.10368239975839773,-0.04603912970753342
410.75255518,0.13399119746422974,0.04665083555138549,-0.0025365399995121557
411.25388432,0.14425141867680044,-0.2655758942990863,0.18852100601126418
411.7501997142857,-0.3013358141666212,0.10507908412306453,-0.022943598918828866
412.24651538,0.24841297345491817,0.01291567678035064,-0.11181780891240964
412.74784396399997,-0.17956468789793567,0.16020742529443105,-0.19788217727342428
413.24917238,0.041045239419723656,-0.07060796917648342,0.11799677095186546
413.750501078,0.0633789710844275,-0.2940113544581525,0.17122550879591658
414.25182975999996,-0.26193764892892224,0.1448899858906602,0.08300542226025741
414.75315843199996,0.354452293589623,-0.04396119855409175,-0.08724482165167155
415.2494736836735,0.011014741838028618,0.015470567051722874,-0.16584582075723103
415.745789148,-0.2189373929806743,0.0022081917185475634,0.16806255140358203
416.24711808,0.05294905314142126,-0.06648213075866885,-0.029871791725362074
416.748446748,-0.08387059172661675,0.08824884034640537,0.02761633153233021
417.24977522,0.1538848226873059,-0.010223641246725835,0.02915880622922347
417.75110398600003,0.08251920320847708,-0.20399248454877889,-0.05932129522038737
418.25243264,-0.3719494051905185,0.09406885215798325,0.041290033341083256
418.753761688,0.41898819287189604,-0.02932533666490137,0.02213022106077833
419.2500779,0.037148810039784146,-0.058327332480835124,-0.17148898355411554
419.74639358,-0.27099765703401124,0.013738509869234583,0.1222604888328151
420.24772186,0.1256063734758902,0.05270999349926651,-0.06517545707247235
420.749051264,-0.046160407988855255,0.12144525412458484,-0.18611678083435204
421.25038132000003,-0.14516685151050746,0.02985457626119334,0.03271458390320363
421.751710636,0.06910237861150534,-0.27530878256295255,0.15247123995207798
422.25303978000005,-0.1997430957390719,0.13625881948727034,-0.007134992403233278
422.74935592244896,0.22316633424767618,0.04305686659776894,-0.05575342124487746
423.24567194,0.05312661024621586,-0.1441804769156047,0.022679709586382896
423.747001532,-0.36241608521869656,0.19540197074523705,-0.006147654547403461
424.24833118000004,0.2954708634424678,0.012038999993914765,-0.13454919991152287
424.74966077600004,-0.10480394640877005,0.10617852616255416,-0.2201600185383789
425.25099042,-0.19010371805020487,0.07390117520694875,0.1019117857431069
425.752319928,-0.04178755007462657,0.022752229582102254,-0.26525956208254076
426.253649,-0.08517445366922964,0.20580234268717057,-0.13135509839844658
426.7499654857143,-0.09881665984151133,0.141672502453353,-0.052642412238941866
427.246282766,-0.1535738318039569,-0.14028923143837208,-0.07768805652425691
427.747612454,0.004507971011999259,0.26999498107127773,-0.18836001140237063
428.24894202,-0.053332998463636254,0.11865612367969454,-0.08872019932596997
428.75027195,-0.06007670683049305,-0.1184146450182764,0.010305667807051675
429.25160224599995,-0.14528840359831352,0.19143129831961406,-0.055071420234051774
429.75293224200004,0.07944576608675016,0.11910329893253552,-0.15844954854375953
430.254262246,-0.04565747345120589,-0.13918296780048134,-0.07604934835183122
430.7505790367347,-0.2672970410169079,0.14812606663395733,-0.10773072582545774
431.24689568,0.07998021947240724,0.25327467695686295,-0.10249485506878672
431.748225906,0.03418324361068446,-0.15003063948878176,-0.08596944846609694
432.24955606000003,-0.4291130199452667,0.16719108573148417,-0.015185579537869252
432.75088626999997,0.30139398985251903,0.16413423450472733,-0.21648368928425804
433.25221619999996,-0.03347274570884565,-0.1100612125131418,-0.06379204308190231
433.753546628,-0.3853034194943374,0.1958604572048301,0.033322156742715985
434.24986399795915,0.32490949054825213,-0.01898456529046678,-0.12364065701348358
434.746181308,-0.001399067760538193,-0.1652013603353651,-0.00790178984340996
435.24751232,-0.3037074821009195,0.21885325377110756,0.0018336680212276719
435.74884309000004,0.279325808886283,0.11869835924941011,-0.12247187716590253
436.25017434,-0.0785707940768233,0.013889637417909384,-0.1483824082266819
436.751505136,-0.29795195885349873,0.1315667084273769,-0.017851932479606668
437.25283556,0.09158177215538696,0.03845278509149975,-0.1192370475561827
437.754166558,-0.07630403787117533,0.04103361511172252,-0.10743642674648032
438.2504842265306,-0.2371069282885458,0.1605930596450398,0.03399672616296129
438.74680209999997,0.17611236943750844,0.043142035608454726,-0.12362999144385416
439.248133844,-0.05960371829216359,0.009760865076777763,-0.12973806294896228
439.749465144,-0.15916234926280928,0.2281224302867593,0.01733567803012373
440.250796584,-0.07188167402701141,-0.1183534356862732,-0.10033988020205097
440.75212808,-0.1707821381143238,0.1954549827700088,-0.08726172152385216
441.25345938,0.09787859159051063,0.18022832097186645,-0.14405102426908414
441.74977768775506,-0.11126634703766582,-0.12856676138633194,-0.12194001376774248
442.24609622,-0.23598928980089176,0.15896138886185782,-0.09897327301624063
442.747428056,0.038143641000794266,0.24286644273043334,-0.13555459128309325
443.24876018000003,-0.018225240959914017,-0.19646847688189928,-0.05232056375903981
443.75009205199996,-0.3000944165935927,0.2706327097121596,-0.02326580785740676
444.251423378,0.16097176390211437,0.19638007045749944,-0.24066228438119608
444.75275544600004,0.025077936668962096,-0.16456320831023688,-0.07727464832224436
445.25408763,-0.426678791023761,0.24298378780153207,-0.006128866264959603
445.7504065306122,0.36016841553024714,0.11674715493142221,-0.18459325044731173
446.24672566000004,0.013543069421962706,-0.16370692357823977,0.01762396035946483
446.74805809,-0.31799527707780784,0.03993718652147679,0.016777753194227682
447.24939064,0.28478586201322126,0.009488337706384194,-0.1382942151675649
447.750723268,-0.006371643220621536,0.029301931563255935,-0.028518540070432072
448.2520563,-0.23469152573280985,0.06188159468582132,0.0054546494700818725
448.753389,-0.005786207630136945,-0.07675094526555466,-0.022881395470354775
449.2497080326531,-0.14465370816813133,0.07604334423433187,0.023552993098705174
449.74602759000004,0.2815852200602468,-0.021990943426533908,-0.03366844372464646
450.2473607,0.015211759145290535,-0.13516373803117912,0.009255876166059242
450.74869380999996,-0.3021836271939905,0.10187762237342639,0.15314138333286126
451.25002694,0.11160380263878925,0.006998440813326108,-0.19231115747392585
451.75136027,-0.11589912123471714,0.1667472002317602,-0.2286512606067365
452.2526937,0.10032018868870086,-0.07537054320372229,0.12375241391877109
452.75402734000005,0.06051196628688191,-0.3273390960389227,0.05509247632263924
453.250347377551,-0.3601996083444982,0.17912426688949218,0.09821411222905199
453.74666770000005,0.4000417955619104,-0.0044381813739516685,-0.17928362149244642
454.24800148,0.010109089913196945,0.1283714743742914,-0.10549681401207474
454.749335292,-0.10987681421868409,-0.021357963492287108,0.13314627410296398
455.250669006,0.07044605758525607,-0.29411008705048813,0.08918278793411241
455.752003044,-0.34657152966554344,0.1106730243903127,0.0403518069359107
456.25333725999997,0.39416696319670697,-0.016179174073384792,-0.15700994361808537
456.74965798775514,-0.07329532038736894,0.13619203378003678,-0.16346768635037764
457.2459786,-0.016812191308092396,-0.01899303729247233,0.10228622316466332
457.74731287199995,-0.035498299490973315,-0.21393554651435095,0.08847557448287308
458.2486471,-0.266999425392638,0.0730690340323389,0.00020093576793867195
458.749981424,0.3860340704787768,-0.0009179635553407384,-0.17387628628902377
459.25131567999995,0.017812224474985913,0.02232970143828382,-0.10380286890774121
459.75265023599997,-0.1669507985192047,0.0026212601250232047,0.18307045359654786
460.25398538,-0.026879184217473203,-0.09491741262626605,-0.02031293584805046
460.75030666326535,-0.16344950110637807,0.022339645644353843,0.03418409037297575
461.2466279,0.18809159648472706,0.08549134723406376,-0.16895366953990062
461.74796256,0.15907683719049243,-0.0387013851767498,0.004672429834596445
462.24929724000003,-0.2891424011697293,0.030638164754232533,0.1618143955608465
462.75063189599996,0.12767173810437946,-0.11807305488533752,-0.054788033459422965
463.25196594,0.02887876946105637,0.04210459567826825,-0.06937495150804572
463.75330078400003,0.03175270330744603,-0.07123570788257787,0.05593170406208374
464.24962294897955,0.022902312546935318,-0.2005699335877862,0.13674052146327442
464.74594441399995,-0.2650507205261775,0.05912938683132373,0.02528825654194937
465.24727914000005,0.31143324283947593,0.1029009595065272,-0.1521904193364908
465.74861399,0.06622807551473694,-0.015949023998578903,-0.13975496266417933
466.24994934,-0.2473161447022073,0.04710499403508649,0.18497298477460775
466.751284196,0.021003219371490137,-0.018316591849413623,-0.12563165116159303
467.25261886,-0.16052531820726226,0.08043540514657044,-0.164156285937234
467.753953692,0.16517877800947567,0.06253921885256679,0.07476281529294337
468.25027473469385,0.11315721900993388,-0.2622092971095893,0.05622019565809625
468.746596414,-0.38621586230338356,0.14735387405407877,0.026339911205377514
469.2479322,0.3368679005695539,-0.046105276606240905,-0.0997196966348243
469.749267234,-0.008726875093930744,0.10289975358296242,-0.21510402769235257
470.25060224000003,-0.16587595570013403,-0.02726700405334488,0.15245079213274326
470.751937322,0.016677926875346593,-0.16398983603466383,0.027833728308782044
471.25327222,-0.05901020894618763,0.010760916638808862,-0.018020403640398534
471.74959407551023,0.16359360600000783,0.06472836802885203,0.07002185358981411
472.24591611999995,0.10469274058773637,-0.263668273822888,0.09573035326221772
472.747251428,-0.30451912862934266,0.13450084899789683,0.05867190533096766
473.248586922,0.24741178294117513,0.05631419026449763,-0.11757990379506149
473.74992225200003,-0.003543364681328246,-0.008742616730045026,-0.06974652068132034
474.25125728,-0.3051849121559661,0.08863686882117239,0.09451133593618559
474.752592718,0.07083926443064245,0.08555026157419271,-0.21057531532308332
475.253928202,-0.16857342555074772,0.24424870344162095,-0.2214823909525584
475.75025046938777,-0.05521280851966599,0.052998010780536835,0.0390409631495339
476.246572746,-0.01656330962274389,-0.03649975811289183,-0.08384312557336208
476.747908504,-0.07199604537228235,0.22655007138833802,-0.040862148390652206
477.249244324,-0.01265363749991455,0.08858797592645747,-0.10951580555119549
477.750580188,-0.02636104847039328,-0.18578633041658343,-0.13106022278849833
478.25191628,-0.22163740712765193,0.2008284405786447,-0.1469905275365395
478.75325237,0.12244974632212688,0.24891787930128084,-0.15135220664738203
479.2495755938776,-0.08152365092905771,-0.14378484444104336,-0.12462174475856404
479.745898372,-0.40376503506150074,0.16725677744373169,-0.1430109472810925
480.247233984,0.19820845736766102,0.26209620805299677,-0.2960112132262086
480.748570334,-0.13039064590878105,-0.033609366836485036,-0.0740147269237311
481.24990702,-0.359545501316701,0.14087465325074194,0.04741128422685339
481.75124347999997,0.3688893133878494,0.042683736960534124,-0.08974928341964583
482.25257962,-0.023529908899684485,0.06798953222004911,-0.2627692024944407
482.75391626,-0.3130756212287481,0.08882987733198469,0.10847726111221474
483.2502401122449,0.01041448752984969,-0.02834345260118464,-0.14022681422836777
483.74656351199997,-0.1645338153018049,0.08743288118732537,0.004364745400855543
484.24790002000003,0.1006522967694985,0.03340144221240455,-0.004697335417929336
484.749236946,0.18296633086581568,-0.13640700106099543,-0.07778585254835893
485.250573668,-0.33701101109360665,0.060231177346283096,0.1125337204615048
485.75191087999997,0.29123156149056595,0.08285384785207561,-0.09033994794723242
486.2532485,0.021913399330251028,-0.04627891333741427,-0.04949878015245737
486.7495724795918,-0.343883555299499,0.07179481847798272,0.06303803326602343
487.24589720000006,0.20260623798273725,0.027396818619938732,-0.16158445011923128
487.747234686,-0.05469549684981652,0.12027789356572845,-0.07333743709051992
488.2485717,-0.30718637334612536,0.1213995919937967,-0.017830588971226878
488.749909378,0.036117496084005794,0.10352291780776689,-0.26549063286216706
489.25124804,-0.08430089159655252,0.1031902568978134,-0.1156964933587218
489.752585842,-0.15413031708908945,0.14883486727105863,0.0026908510083070093
490.25392288,-0.09853723868613816,0.026393896274530516,-0.14860564437048804
490.750247489796,-0.20018736984163327,0.294461045047579,-0.2855380695170274
491.24657258,-0.014528819992561986,0.025419178568985457,-0.004706873679817085
491.74791069400004,-0.03286535168815334,-0.03447763669300723,-0.19598494761844612
492.24924857999997,-0.21851208612187714,0.2565926319296849,-0.09133640543643953
492.750586692,0.04018934275167587,0.10823179932978924,-0.10097218869036267
493.25192450200007,-0.002589582366779388,-0.17178823299398396,-0.10441632996155194
493.753262704,-0.34543733347608124,0.16131588735602473,-0.06667587657784306
494.24958765510206,0.2878706110671451,0.19339738069669268,-0.143413120812188
494.74591254,-0.06964452494808011,-0.11906770686908591,-0.0077342676608663395
495.24725146,-0.4462839166371333,0.28450258841477377,-0.06287603908683523
495.74858978,0.3825718142586871,0.03063623183097629,-0.0946527253452637
496.2499278,-0.14076621108931972,0.151218514301207,-0.2614631149645922
496.75126622000005,-0.20702848621707465,-0.03503950404183867,0.13608830762058483
497.25260438600003,-0.006502536952472698,-0.19908843695730155,-0.04045982884354405
497.753942954,-0.032982221129826336,0.1836217292259984,-0.026842136836620803
498.25026864897956,0.1484570721198474,0.06685326619168218,-0.1089653661399297
498.74659398000006,0.09670425741821685,-0.14037275050698775,0.015394253612024263
499.24793302,-0.3726438310404091,0.06530514804929763,0.03168604099957735
499.74927192,0.3553796116962248,-0.08105466124901234,-0.09419185948302794
500.25061137999995,-0.11438491542435514,0.11316649544629823,-0.07468724959528454
500.75195055999995,-0.007599978896912495,-0.056064266750906304,0.10873071345330473
501.2532892,0.07330122640921508,-0.2738171083414134,0.10312461435627387
501.74961489387755,-0.21409483646637129,0.16537984508626324,0.027989360793555528
502.24594101199995,0.13945604332378156,0.03845788837816693,-0.0981355722373914
502.74728023999995,0.14550275740146149,-0.062072712978908394,-0.006229213151852962
503.24861909,-0.27056123002327825,0.05694558354849379,0.04859303362116099
503.74995845999996,0.0323741944281387,-0.028551811171539154,-0.11200990705175397
504.25129846000004,-0.08616021110961586,0.1285674194918069,-0.05395551214409352
504.75263808000005,0.15701554392889303,-0.05483637605776488,0.013812459730907369
505.25397788000004,0.09264486165015234,-0.26664658463484997,0.1614424382665901
505.75030429183676,-0.29675397426553146,0.1083313596293042,0.07452484591371848
506.246630016,0.3318398840708881,-0.030769269748024443,-0.15459584025920214
506.74797010000003,0.038768255529554846,0.06713906516762974,-0.14643956063505012
507.249310416,-0.2330752612906241,0.025004366282932695,0.13653871270225604
507.75065062,0.04758452366612879,-0.19032267138960035,-0.030628695463145762
508.25199088200003,-0.1200642261791097,0.09653915279858694,0.020277219030607075
508.75333123999997,0.07960025682592314,0.01185863043658006,-0.1301787231078406
509.24965828979595,0.18651958089634219,-0.046946620031975646,-0.003644141994992563
509.74598552000003,-0.3481502191272684,0.07292852956908737,0.07267212861597731
510.247327074,0.34739126878242926,-0.07228867466646774,-0.1481532207616368
510.748667944,-0.1881811893557299,0.195660910078496,-0.11724509651982724
511.250009036,-0.0286496290590838,-0.07939065068673395,0.19676073409657394
511.75135002,0.001931692571849577,-0.23314026090898096,0.01858902653027707
512.25269069,-0.20938190653249308,0.05215193185359846,-0.05923574320149143
512.75403188,0.32605895739250335,0.0695045242981178,-0.06644972314506653
513.2503602367347,0.10194479882794041,-0.034842548740412364,-0.04009889325692329
513.74668822,-0.29772316042910396,0.07939207369933268,0.12750731602539944
514.248028932,0.11965920003270396,-0.10468519696204295,-0.11317962375514416
514.74937046,0.001109877685155749,0.1259522214071997,-0.13210116982659106
515.250712292,-0.12303271081657675,0.017479812200440974,0.10477973937979579
515.75205416,0.06446493977566521,-0.24286899631994704,0.08920720960587562
516.253396002,-0.11849224066933044,0.06474960738015206,0.05079706994952681
516.7497245469388,0.21976003263770125,0.15132378048409367,-0.19515501708641805
517.24605356,0.012868611439428357,-0.27760396833375195,0.21405071814615695
517.7473955,-0.2686988993133872,0.0646515474690854,-0.04304712816484175
518.248737172,0.27177316883288827,0.021731699149764454,-0.06424403079107877
518.75007922,0.2177976717916984,0.017867974402575454,-0.02294247683815069
519.251420976,-0.2407268028150348,-0.012112628475754386,0.07052058307109224
519.75276312,-0.0405529404773855,-0.056456592340856614,-0.04646095242820639
520.2541063040001,-0.24659765675886022,0.10377973246059995,-0.03933970451551582
520.7504353285715,0.2684294758190554,-0.08152253659676625,-0.014934308928710447
521.2467644000001,0.08761448857052073,-0.016547918491690537,-0.1541214604162274
521.74810698,-0.1654749712018625,0.09295286663774979,0.12743183520788345
522.2494492000001,0.06292387238702851,-0.15193381405424744,0.0914436967651287
522.75079206,-0.10932540440053963,0.01758931478567112,0.0648129968708213
523.2521349799999,0.27365548702620257,0.1294852300520734,-0.04148545112382099
523.75347782,0.04423519293076412,-0.13922667383433437,-0.1186604581183019
524.2498075857143,-0.3484813960758714,0.149654496006008,0.0333751321461196
524.746137086,0.2399206292471762,0.044062702958067364,-0.1595583009924881
525.247479882,-0.2122811497913395,0.042601031802551176,-0.07833296307185579
525.74882302,-0.028866365152791392,0.14491652051114184,-0.042298104534300274
526.250166256,0.017876933393565178,-0.16185086636105112,0.015060537823950696
526.751509724,-0.3060579950118864,0.1896070290019839,-0.06980047992045478
527.252853644,0.16965254341022742,0.1900299949194737,-0.12573920460932236
527.75419744,-0.02364268558609455,0.01677870803564037,-0.31453525336004445
528.2505278142856,-0.38105036948348775,0.17265950526629903,0.1294809218304384
528.7468583799999,0.09715827936882654,0.07039528044395295,-0.35126970840112526
529.24820288,-0.19710257531380904,0.18750182913836183,-0.3055421273512392
529.74954713,-0.195192835048348,0.20515860383567128,0.0783451331916216
530.250891504,-0.08443589067325488,-0.12095915437075265,-0.13201106210557575
530.75223596,-0.27899867314168403,0.26882109741910126,-0.20833102634981632
531.25358066,0.0738737198072426,0.19194088286251051,-0.17110133424499194
531.7499119244898,0.12927592814618202,-0.10446087045562101,-0.004418531765211745
532.246243384,-0.3590211686234391,0.1357746480918589,0.10858026525895782
532.7475883459999,0.326501887561951,0.009796788841995583,-0.22244313872555746
533.248933362,-0.1000290772159523,0.07649187954472302,-0.12243327532251373
533.75027856,-0.15429984517376952,-0.006731843734717158,0.177589560807442
534.251623902,0.009553693577504452,0.026170207499194024,-0.2927023673395738
534.752969284,-0.2099887229032139,0.18760622896997287,-0.27295171008451513
535.254314784,-0.052220384224634125,0.09782515356171263,0.05214066844972527
535.7506469489796,0.04822829060935331,-0.18459026308321974,-0.13372320669225923
536.246978634,-0.3951022409998622,0.23270852686941115,0.0645146491081722
536.74832436,0.21953699264809984,0.12142865181931356,-0.15932546788154564
537.24967076,-0.17871354508067178,0.1837783370486875,-0.1911152718337171
537.75101676,0.09154342823706253,0.11989519055753815,-0.0501834183287739
538.252362456,0.02912771294622769,-0.038714242032561234,-0.09602335989813232
538.753708544,-0.3809875137480352,0.12602310634170452,-0.020030367678528612
539.2500412244898,0.040434793605553104,0.031017915655138527,-0.17914127248314657
539.74637406,-0.1850540513490844,0.2216869990061773,-0.24651674223841094
540.24772054,0.033825792816832484,0.10482743126466967,-0.06116737568528781
540.74906702,0.1172715784571842,-0.18811850274825978,0.04612640054283683
541.25041308,-0.42436119701821234,0.22881235037213232,-0.07002930338838625
541.7517596600001,0.20215150424173953,-0.04043522019613078,-0.20907974032763124
542.25310634,-0.12379590069975684,0.27666577752945515,-0.17235385967880057
542.7494396142857,0.01005318955669484,-0.008937612945358744,-0.04844590781189627
543.24577347,-0.042079046113939034,-0.14728383473173534,-0.007702861605436997
543.74712042,-0.3540001647273366,0.1225133256984439,0.01662287899870384
544.24846708,0.3699602884176006,0.1038402719871082,-0.13803899408858056
544.74981414,-0.060858109849796505,0.0259722402724336,-0.23249593079224895
545.251161558,-0.2210497552981238,0.07857527879975754,0.2079095445572036
545.752508802,-0.015101416309391697,-0.18986917578227555,-0.06554209938059287
546.253856284,-0.1588898814983673,0.0842086406769295,-0.09404679183566321
546.750190277551,0.18650985257174116,0.13001140311191978,-0.16134705159220442
547.2465240839999,0.13222828363479527,-0.08942926280670935,0.016184985866377302
547.74787166,-0.36843971539599124,0.1049194023599912,0.07398643560920756
548.24921918,0.109625326352938,-0.01727689333836345,-0.13542857940448708
548.75056686,-0.11057444404306387,0.028663435699040393,-0.053159247402610674
549.25191481,0.16667967670600028,0.05694701899054633,0.0026637063134417956
549.75326282,0.1229874742727775,-0.1998952690991986,0.08823227958040551
550.2495975163265,-0.39368963963837744,0.06112485896609196,0.05774670335363462
550.745932202,0.25173927828946574,0.051845517290087226,-0.250317977195678
551.2472804619999,-0.16965934260188972,0.08839392779031663,-0.19797614065736885
551.74862878,-0.009042915709997514,0.04183665673238991,0.12852414287863512
552.249977506,0.13987622516055112,-0.331436284798264,0.1793809176862556
552.7513259020001,-0.28237489219324785,0.0669510367237295,0.04002990533493322
553.252673842,0.3782635619115333,-0.08683803560776351,-0.13336341371969523
553.7540221200001,0.032772937032852424,0.06079837943675251,-0.03408743952887412
554.2503576979592,-0.1048219675697485,-0.04135848817045631,0.2712628484318186
554.746693024,0.11987555092313132,-0.24617598529199186,0.028207807072319496
555.24804237,-0.17321859481015772,0.030046467123118977,0.053056099652072745
555.7493912599999,0.2509278834743334,0.022450308760881256,-0.12698219989323606
556.2507391439999,-0.002991228045951315,0.005509722862617441,-0.12338522614306104
556.752088,-0.1237384431031513,0.07523200042072255,0.12341729416224818
557.2534377439999,0.046828402238086424,-0.20870913096166124,0.000260650934741139
557.7497734571429,-0.2771304004159597,0.04456407272387677,-0.04042786728782113
558.2461092240001,0.36437535222600237,0.14466946917606965,-0.07129621912374744
558.747458262,0.05271121987189555,-0.00981560191187229,-0.14894694644752082
559.2488068,-0.2972273375600432,0.05871712833246558,0.18494461299065976
559.7501559799999,0.04875327678878531,-0.14603164127966667,-0.09835684070886536
560.25150582,-0.14191339312846174,0.026351062644147695,0.08547166130147076
560.7528549,0.2752100826464576,0.027764625358256873,-0.08323549016854281
561.254204284,0.10422402861967506,-0.2322825353586961,0.17741383885374254
561.7505401999999,-0.32782439700028976,0.12197973225275936,0.02098280223175864
562.246876116,0.26974737021559236,-0.04169192983801429,-0.09390914375082896
562.748225746,-0.22098685354769976,0.15881464150636135,-0.15288342143295355
563.249575436,0.1627081010761082,-0.03913377095605469,0.12483932545089411
563.750925242,0.07629508909520537,-0.2605528600679523,0.05256757690941003
564.2522740640001,-0.39742139367783286,0.1579087419982994,-0.014825895690305258
564.7536235,0.35570508558739816,-0.06452350948304632,-0.14570102930655632
565.2499602897959,-0.09511036851337781,0.15111201651938172,-0.09193859499980263
565.7462961,-0.10703649570688331,0.07924540255168397,0.07875871326232188
566.2476457939999,0.023970171022150905,-0.2507226421049432,-0.09460850500409848
566.748995324,-0.2684891682612242,0.07282571614639018,0.042826986969145296
567.25034531,0.30385289780324554,0.09122763612621236,-0.07404479069556395
567.7516954,-0.04443439368513184,0.08299555078279003,-0.2749692268849283
568.253044516,-0.12485279655465956,0.15013917565272383,0.07555119066415482
568.7493805,0.044904458184202974,-0.2907560508389665,0.09202636092214375
569.24571658,-0.35439099077342634,0.1339899111717878,-0.014522786219182078
569.7470661,0.26879133190019094,0.09994906944176923,-0.09198386272903931
570.248415416,0.10060348085942356,0.006129548972190562,-0.09271083065754211
570.7497654,-0.29292318557167474,0.08936343199986943,-0.0045653438270622125
571.251115904,0.036730894122447795,-0.054135560283134446,-0.1548812983052919
571.752466,-0.177295171084198,0.18139351141818263,0.025025954412324553
572.25381621,0.18952408087021871,0.1080649187621856,-0.20328289190841567
572.7501527469387,0.005846516704947196,-0.15450566941445726,0.031110499061219106
573.246489374,-0.4619031080692045,0.21043241153817685,-0.0027631478381424947
573.7478394,0.2517743077592197,0.03608742347104414,-0.2501071177929191
574.249189064,-0.12647823404147374,0.15721527180895417,-0.2198647873787707
574.750539,-0.15313021802151172,0.11206897626960939,0.022696716339534427
575.251889476,-0.11259420607012677,-0.17648210948425166,-0.07412731589540059
575.7532398999999,-0.1695459759347285,0.1216045225999286,-0.07597273934751889
576.249576689796,0.2601720034925234,0.21154971863356062,-0.17099282200804178
576.745914186,-0.024950956572771656,-0.07580040170964752,0.011080871246681716
577.2472641640001,-0.3677810397274065,0.07520662590519037,-0.03131577896113777
577.7486149,0.15543709764919447,-0.15114364526145826,-0.23865444474401742
578.249965496,-0.3630948256996684,0.42368294156125846,-0.11911865367022503
578.75131616,-0.027536267982201483,0.1092846889470579,0.01137534867409658
579.252667144,-0.08929723272809359,0.06873964025961879,-0.06280452550702054
579.7540181,-0.10732120607230348,0.2339010581512524,-0.3829414440891149
580.250355289796,-0.1743570177298082,0.1798944566756746,-0.09231516248303184
580.7466928,-0.1704030050062167,0.10880764128041875,0.09869726158111208
581.248044678,0.004768860658118661,0.03540893106961537,-0.10653568657136227
581.74939602,-0.14336812090389406,0.2945872956216769,-0.5429139139317699
582.2507470740001,-0.3183641384325683,0.3254644011024489,0.11783879414235113
582.7520984199999,0.03574834378135265,-0.11054430919116885,-0.13886031943356536
583.253449966,-0.12774636149102192,0.2067764115441846,-0.3412896799624371
583.7497882265305,-0.2892534362157847,0.2698085028314258,-0.19846973550588937
584.246125542,0.08615519651375897,-0.026902397631235368,0.15626618477934198
584.7474770800001,-0.0017115932115700882,-0.009391192048785723,-0.11858327976855935
585.248829308,-0.05420107145304536,0.13454179557143864,-0.5347482509267633
585.75018132,-0.27650617609267825,0.05127834361236272,0.17692662365591907
586.251533012,0.007216052302258692,0.02661688168833166,0.12476330308783982
586.7528851,-0.6765366341497939,-0.3026542138769541,-0.10044414137386999
587.25423789,0.7847811450459163,0.3960467863611518,-0.5228585592047214
587.7505767653062,-0.46346014308723277,-0.18693146853388928,0.30868237043356883
588.2469152680001,0.09196341694155033,-0.11868126165002621,0.16412289225662458
588.74826766,0.3849075594303666,0.5308352319698538,-0.08037358650159077
589.249620576,-0.7480184002479191,-0.4535343778786413,0.12867045286385412
589.750973266,0.6586176335731373,0.11114815178899289,-0.12276821489050241
590.252325844,0.10418015743763138,0.19233620202787197,0.20950976174443883
590.7536785,-0.7760317287826155,-0.5000466967501216,0.1304122311943704
591.2500174183674,0.8701752695734507,0.5020032675366594,-0.20451282589772124
591.7463566600001,-0.13661043938952278,-0.028867262161666685,0.23448504098337908
592.2477102600001,-0.5258539539051305,-0.37483786614171616,0.22307323361338796
592.7490634000001,0.8632461284473284,0.3969416148837088,-0.3854355527699309
593.25041604,-0.4449530903864715,-0.06911515203723151,0.3022637508701711
593.751769,-0.09837333867989895,-0.2278026950827684,0.16528459886850144
594.25312224,0.584560880103282,0.4345883960623892,-0.36912062527023964
594.7494619040816,-0.8706297695602188,-0.3964956009056437,0.30855147590702864
595.245800818,0.6129065711706253,0.03754300295700133,0.03106745235467904
595.7471538,0.06283486306334657,0.41904152542352135,0.04164879883113321
596.2485076,-0.7186700997309439,-0.4001828344229474,0.07079219877768743
596.749861,0.7680177597821798,0.15217796556605426,-0.1283233132645293
597.25121432,-0.11687904098047998,0.14895034976933963,0.1449183432230177
597.7525676399999,-0.6917766840398051,-0.28311481577756015,0.20808615049245213
598.25392108,0.9226457573364963,0.46085381629529565,-0.3478942064683747
598.7502609081632,-0.3759229454891134,-0.0022339850966827507,0.21315603233551247
599.246600428,-0.34983144713300696,-0.050271038204279944,0.13275566872961286
599.74795382,0.5832030013660746,0.5607146679019052,-0.6386081094956955
600.249307746,-0.8075778815070136,-0.15637414538874847,0.2467076084223264
600.7506614,0.09185839137599877,0.11951691640382713,0.02989698003481562
601.252014548,0.30353949992189244,0.7444405602777406,-0.20921704751953185
601.75336798,-0.8149302684168771,-0.1265364967964483,-0.08778753496535797
602.2497076204081,0.40764485019619173,0.2841287422111657,-0.11616890130265271
602.74604758,-0.15306597262024219,0.48100027685268587,0.016404446500177836
603.247401568,-0.8016492513575533,-0.16481686637634108,-0.24114608964010725
603.74875526,0.7219373595015282,0.40474068787586376,-0.2943177900691841
604.250108624,-0.22298493997000995,0.16304623145327163,0.05493101137733646
604.7514622399999,-0.6330032612610961,-0.17885628688225338,0.06945329943785737
605.25281537,0.6510692730362095,0.5363323383807138,-0.448210196658416
605.7541688599999,-0.5939115059390764,-0.11564964969988244,0.13650847939949703
606.2505093857143,0.20825174140033265,-0.09726360947066551,0.07321808777825368
606.74684956,0.12814285413409818,0.6418425013978026,-0.2197582277371019
607.24820324,-0.848326104861831,0.008989195822886282,-0.17490591720250354
607.74955676,0.4254509811123333,0.32526413802420495,-0.1817251382341739
608.25091006,-0.0754692062976195,0.6110135948821949,0.06693081144179171
608.75226356,-1.0074290485480977,-0.27232869175321683,-0.13460514683806538
609.2536175099999,0.6600573654698682,0.5422938076691195,-0.38634468302521213
609.7499577244898,-0.30989107936595633,0.19051522754443073,0.038805424164532726
610.2462977800001,-0.2616311519237422,-0.173836232662381,0.07794445250922633
610.74765142,0.6222129975974279,0.5221506730299165,-0.42963868896062907
611.249004548,-0.7223481483251838,-0.3789181213788326,0.2685432280571105
611.75035796,0.390255571050762,-0.015166660004248805,-0.004210133970390446
612.251711848,0.1504574974398429,0.5285629188724608,0.021038496383244808
612.75306544,-0.754494595919677,-0.5286030544384839,0.2055474017454484
613.249405844898,0.8560860306937522,0.44193387858615085,-0.37034978455361794
613.7457459,-0.14328224829737402,-0.010065768389430818,0.2126212142020942
614.247099272,-0.45949521245016345,-0.5139793295442151,0.26027991364159997
614.7484526000001,0.7308522521597763,0.43365659795661093,-0.42234898257672726
615.249806004,-0.4598256490943722,-0.19322808742676809,0.399559920934843
615.75115938,0.0199183261163411,-0.06130820958880265,0.2432813023718709
616.25251318,0.43261007325364803,0.6702119006303486,-0.3606541867216524
616.75386672,-0.8830538655170131,-0.11546649766901605,-0.016769088363006196
617.2502063285714,0.48315953300250003,0.21202091034013568,-0.023461395826252333
617.7465462,-0.033313402597447285,0.5643873567607908,-0.07269836066064377
618.2478989140001,-1.1497602764520416,-0.08582007232313278,-0.10701288439308364
618.74925208,0.7601033228205328,0.5036983383754936,-0.36936197128797793
619.250605736,-0.3872057368125219,0.3626584975046352,-0.11170161614759505
619.75195918,-0.6697209186729377,0.04682497866114131,-0.1155971582666608
620.253312856,0.7540088693236965,0.6243582954731589,-0.5837495570018014
620.7496528285715,-0.7013363585932856,-0.3175423420017601,0.3228049759511877
621.2459926399999,0.2979073486762241,-0.04819551606205889,-0.08359418040808238
621.74734612,0.2226984737189143,0.5397010437782975,0.015377978176596283
622.2486998960001,-0.8453843081173952,-0.6394460764140029,0.033765086191481546
622.75005354,0.7949158738508616,0.5121013082176007,-0.22285943346464432
623.251406356,-0.11848312894973383,0.07511624177936428,0.19645496002387894
623.7527592600001,-0.7339118770156403,-0.03414506539321203,0.09687132806463737
624.254112586,0.722092730853269,0.3336055207464446,-0.3650400089340773
624.7504520285714,-0.7164601083396186,-0.03569887648589515,0.11879795280668118
625.2467908499999,-0.03683918779853235,0.3144767181160872,0.014872880782647068
625.74814356,0.12187895552241704,1.0525489047260392,-0.42551889839807594
626.24949652,-1.1077828887385233,-0.10236222540441312,-0.19397068089651953
626.75084944,0.6357097145274917,0.4712145288884232,-0.3335424184117883
627.2522026080001,-0.1565303231986166,0.13488828114641163,-0.028109923723375795
627.7535557,-0.6486474298340283,-0.20146352370697826,0.09595477131789465
628.2498953102041,0.8771586279232377,0.45087962364475237,-0.4280213017156198
628.746234922,-0.4104550737595315,0.0014200829510936507,0.25413506802237695
629.247588142,0.09020847502001252,-0.30974647737785976,0.1068941143614181
629.74894136,0.34134763526021333,0.5688695976135172,0.05078774943545616
630.250294804,-0.8988215666929061,-0.47313705029932557,0.07571042212097912
630.75164814,0.8467259049190933,0.2804725989525021,-0.18060155925296967
631.253001208,-0.1784078689930625,0.024325047873496982,0.05412356665470783
631.7493407877552,-0.6014158532478301,-0.21966548314611953,0.3569661052137013
632.245680452,0.9354070798134001,0.4267759772214226,-0.38763769411017
632.74703366,-0.548606535301372,-0.28566259590938514,0.3223789834463894
633.248386756,0.19490290940517074,-0.13458831947556793,0.1741243658853424
633.74974014,0.21865388168579364,0.6548817340720567,-0.04356873825838191
634.251093476,-0.9296804210748085,-0.3204435144207112,-0.03300084823062059
634.75244704,0.6212103475440581,0.4213445665258192,-0.25361536558582887
635.253800688,-0.2211534914307981,0.2525774097695345,-0.004726505801672971
635.7501409387755,-0.7691791063606662,0.05477697882024041,0.06773963908233023
636.24648199,0.7603848823213132,0.7289460959849469,-0.575799261518603
636.7478363,-0.6826125182583486,-0.09017648883633948,0.0059141474215981225
637.24918995,0.036293034585650516,-0.04590692273040716,0.017861245686587132
637.7505439199999,0.24285569544891644,0.6421435667412669,-0.06195679837619142
638.251897984,-0.8157750379261212,-0.1699994034758181,-0.15232612552409408
638.75325228,0.6377626122652242,0.1457607769605697,-0.11110134777215375
639.2495936244898,-0.1380108203981094,0.32558434387179813,0.03501963452450649
639.74593486,-0.721105022732784,-0.2521494751001257,0.15085549990805733
640.24728953,0.8337739944127323,0.6915329952789296,-0.36252122342720194
640.74864428,-0.824034415806553,-0.2099684515466329,0.15912483733966215
641.249998844,0.18277423770425585,0.13419666590758905,-0.19190608496673064
641.7513536040001,0.012689306555880974,0.6774764920885878,-0.05377693293908062
642.252708614,-0.8172962838987268,-0.028152845633370675,-0.3185247154164156
642.7540638,0.5417771342264222,0.43171889629175886,-0.12596153639381127
643.2504058857143,-0.28044805796556055,0.31145650881392556,-0.17951307554689036
643.7467478220001,-0.9242264737227164,0.10165350576025917,0.036524680895034356
644.248103246,0.7474428322133032,0.46280469217442627,-0.5144957750277063
644.74945874,-0.5675204950367571,0.11735250337684791,0.19801724008674065
645.2508136399999,-0.20816668606178304,-0.14677526271835167,-0.02219322000867047
645.752169,0.4891211516338388,0.7343218229408861,-0.29650180543700044
646.25352464,-0.8165194212383358,-0.2281648665471025,0.05525414778526974
646.7498667755102,0.58735480150418,0.2634512412964391,-0.1198514963778802
647.246209292,-0.08865858492751234,0.4243869146830365,0.10383566115056383
647.74756532,-0.9666744142512417,-0.3017350963023875,-0.19869149816939513
648.248921308,0.7577782387345523,0.6566014808051942,-0.3532885788615846
648.75027732,-0.4978622468069215,0.1019047760498573,0.04774423140352173
649.251633176,-0.23451954697568717,-0.149807771754911,-0.06924679855857152
649.7529892,0.4646143727471458,0.7552543172304993,-0.34432205984294517
650.2493320959184,-0.8835024251286039,-0.36375113927618236,0.15921276314130012
650.7456749,0.5871075829925283,0.2453823180480626,-0.07781587530489795
651.2470308520001,-0.054122346552793486,0.34991697165411323,0.05659996316113967
651.74838714,-0.9634653405366594,-0.1818098816508055,-0.04296708758709861
652.24974364,0.7766295187201717,0.636846033574904,-0.2897176801770767
652.7511003,-0.44475442604568427,-0.02383501603663096,0.021003827716471843
653.252456952,-0.559414937010228,0.15551062309855868,-0.02812433349951623
653.75381372,0.7139986973021486,0.4763254471951822,-0.47712153036676364
654.2501571122449,-0.7007185742410249,0.06019353989783457,0.14181306405284833
654.74650064,-0.011697697370386723,0.07081313920464843,-0.012403313801136533
655.2478580759999,0.2382552808848601,0.7679386893117335,-0.29363524117768236
655.74921536,-0.8865325557820184,-0.26304875596364474,0.01977517565192285
656.250572452,0.5775857208384064,0.2864513889577134,-0.15735610404745942
656.75192966,-0.19252561084508912,0.3695300164267152,-0.046965779504895756
657.2532868999999,-0.6990086052505798,-0.28342450926876717,0.06358316585651055
657.7496306040816,0.8876697553634089,0.6984371867273413,-0.47375730844154607
658.245974308,-0.835277887228739,-0.18903516601258738,0.25971630026826187
658.7473316400001,0.367342417652067,0.038871553267899726,-0.040377484341620626
659.248689094,-0.034881733210193326,0.7089059385574022,-0.10045479535793879
659.75004662,-0.8513161486000478,-0.20554125395698683,-0.11714642533478963
660.25140453,0.7196156328656081,0.3872934663987515,-0.1939027981600902
660.75276244,-0.2924945930384916,0.26265540686513955,0.039023257417117714
661.2541197840001,-0.7737722224336018,0.016767793980645828,-0.05947570811060878
661.7504637959183,0.7253823504338315,0.5747218170712516,-0.5928969810097919
662.246807996,-0.759592820744471,0.0393041676615209,0.1672437934109022
662.74816592,0.14677612615323388,0.22336292029431348,-0.11294514254908822
663.249524356,-0.026754050235114537,0.7759987627989879,-0.20253690861896256
663.7508826400001,-1.1269746738429267,0.16761186935213182,-0.3549116736438463
664.2522406740001,0.4684810616629539,1.0481518468720195,-0.6049721757141184
664.7535988000001,-0.9424025959696494,0.12352419980551341,-0.21294041283763615
665.2499436122449,0.11810715186299045,0.49769040845764695,-0.39531887047632136
665.7462883200001,0.13928892636314416,0.46422835951982544,-0.02752682017189655
666.2476461519999,-0.8421953266236389,-0.5380269817102415,-0.024472856229835954
666.7490042400001,0.901909212140319,0.41847810792307916,-0.26358535524843485
667.250363044,-0.31840257767136343,-0.06443643029738189,0.24018484449800037
667.7517217599999,0.028185973473306262,-0.27193222044523524,0.1802542264281774
668.25308022,0.3454070949503611,0.6431754335687403,-0.19047772279229302
668.7494251122449,-0.929172228983191,-0.47297132271636216,0.1230386748305417
669.245772038,0.7792846095250385,0.3957558903888993,-0.27252374885553715
669.747131684,-0.11927743039527705,-0.051807806188301254,0.24422011300262486
670.248487706,-0.22988145284242126,-0.33971703914360346,0.16929543674676112
670.74984484,0.5887631025131127,0.5633831671060067,-0.28843839569102725
671.2512039759999,-0.7748315957352129,-0.5357283688492532,0.20041139537296526
671.752562908,0.6455769578442149,0.22092008196371846,-0.09844533362659501
672.253921342,-0.023856179783556242,0.07876411386788275,0.26155334137268627
672.750266277551,-0.41363088114686597,-0.4453557981788223,0.14489520021243824
673.246611264,0.8081624161216583,0.6394374095221225,-0.4128557591796518
673.7479698660001,-0.9094509563151908,-0.6120255402013407,0.48399703564264457
674.2493283700001,0.7850574561951909,0.19983166167440636,-0.27259980480022783
674.75068696,-0.10925374565727433,0.0845910562782377,0.22910361965099224
675.25204602,-0.4573462307269056,-0.46071139994437693,0.22988384169611006
675.75340492,0.8758934606671329,0.6176897210694551,-0.3918919077291678
676.2497504326531,-0.7284891670317076,-0.5846344525112713,0.4034235812677762
676.7460958,0.6438687825804087,0.14658266210417537,-0.05933248914699133
677.24745425,-0.04292633236286972,0.18134862494341739,0.2638641666544606
677.7488129999999,-0.8720670162615294,-0.25855353962158206,0.030677398642915008
678.2501719899999,0.791173171419715,0.8409194691677502,-0.4166314340019601
678.751530804,-1.0624383341509662,0.10552656299630116,-0.0566248719249585
679.252889192,0.20102431537464205,0.4750673121644597,-0.2663391265423888
679.75424752,-0.1023378996149323,0.8586882569610533,-0.19914380647613217
680.2505920816326,-0.9466823255418607,-0.26041231211301635,-0.2737146568133129
680.7469367399999,0.8343242175050049,0.6494327234375744,-0.5045407185747197
681.24829604,-0.5984667355964273,-0.12784528215859003,0.26843895866142625
681.74965516,0.05855919734538352,0.19036801959794353,-0.08468690524270629
682.251013924,0.05213545844120501,0.743616083391109,-0.006748013985031478
682.7523729039999,-1.1108581493015515,-0.2032208201468216,-0.3315766204359034
683.2537320800001,0.6775646185278771,1.0412041237341696,-0.5157883611538652
683.7500778632652,-0.6900008071272994,-0.10842764628200462,0.08973554536616164
684.24642326,0.10854666968133964,-0.06601950963793596,-0.10170246078420206
684.74778264,0.2856494258242793,0.7243536454907713,-0.09761593735467428
685.2491425200001,-0.8437764825633444,-0.4112987002667108,-0.0376223645285863
685.7505026,0.7591039494693334,0.15039344748653072,-0.07369206102520494
686.2518628199999,-0.05325242981339564,0.054368346803417004,0.1970334797483726
686.7532231,-0.5489067998906682,-0.30214904358793737,0.1424346322292864
687.2495699163265,0.7505135480740777,0.41200892263025185,-0.331145864435575
687.74591684,-0.5834139202310665,-0.04101314077352678,0.11542230445121746
688.24727758,0.4669785353058733,0.2180230288282139,0.18694101244086322
688.7486383600001,-0.26505584767122936,0.11915722732183286,-0.17606440774457713
689.2499989219999,-0.20426115408112688,0.5519380472462191,-0.4413385461275789
689.751359644,-0.282844456103492,0.6159853402207226,-0.5666824219762541
690.252720838,-0.15119250449538504,0.06569735321413267,-0.4443250412933174
690.754082,-0.29879352592622516,0.34352275273722266,-0.3591973418898261
691.2504292285714,-0.135465757417518,0.26917521330849764,-0.2521157741002588
691.74677648,0.11635429946404599,-0.06131186078689001,-0.13230118517878992
692.248137052,-0.43706257106878366,0.0465069566037438,-0.05599111183374426
692.7494977599999,0.32000418085079263,0.18494637121261956,-0.02044682845697683
693.25085846,0.12835429225508466,-0.06973368211837962,-0.06772762003909792
693.7522192199999,-0.3129109015730287,0.050558112041074084,0.1033458640915312
694.25358064,0.18295109967021406,-0.08034856327982104,-0.109878902819908
694.7499282530612,0.10053375600491342,0.05721562060574052,-0.14206473040047654
695.2462754420001,-0.14251740540118013,0.025480104539839683,0.15582723465318693
695.74763616,0.024721635370937765,-0.3437686903290615,0.05728153926249008
696.2489966500001,0.01790477837054266,0.2583404733235502,-0.0347627064598583
696.75035714,-0.0103115059375101,0.07079924439989703,-0.026078422507503828
697.2517179920001,0.09370992033666833,-0.2117271677434621,-0.07757512676189643
697.7530787600001,-0.3400069473754506,0.10427925233598963,-0.017477961955962854
698.2494258530612,0.12651307467926468,0.041494112590333254,0.07637119489516564
698.74577286,0.31097514414272087,-0.08702719241586847,0.02408106482565069
699.247132908,-0.4150832993626111,-0.032787998066833204,0.13525935662777747
699.74849296,0.4545772534847071,0.10725522877035802,-0.18075472943235713
700.249853256,-0.07579324838222466,0.030072984721567986,-0.11661638195046599
700.7512134,-0.24400368753170562,0.022978281500063716,0.11793363117660935
701.2525734,0.007762828402313737,-0.2318417669338043,-0.19010819185760522
701.7539333999999,0.27617474095528394,0.017792643164651744,-0.106305525738216
702.2502796285714,-0.16337444675740503,0.04410123488758386,0.35514469353898714
702.7466258000001,0.028891562668099443,-0.31095627424403643,0.15522934090372467
703.247985636,0.41645096245866264,-0.013465682028652688,0.04947235366706585
703.7493454400001,0.053029243971489975,-0.19092410557960643,0.24221754801542936
704.25070514,0.44246512213262595,-0.5560761412942871,0.2664738469544546
704.75206476,0.2698376222162574,-0.16174569068060887,0.4343462646191302
705.253424032,0.4897992288640921,-0.25991414622009323,0.47669920522639314
705.7497696959184,-0.6860954527020855,-0.7704347320622508,0.08360235066789705
706.24611578,0.7105075360543249,0.540422483912435,0.047919741570627464
706.74747536,-0.2847395912258098,-0.3939004407631587,0.20712309940430265
707.24883462,-0.11790710537390545,-0.09021827307632782,0.11338491172717954
707.7501938,0.5785206942163865,0.40991807834250393,-0.0009333330358817271
708.251552992,-0.5849663442033625,-0.7291989682348646,0.09478943288110753
708.75291208,0.6712008365175502,0.3923321584125325,-0.11084016725832191
709.2542709280001,0.08905070454344824,-0.07087850199339037,0.24228538699439736
709.7506161551021,-0.19030044624775824,-0.4229776269576145,0.23067295544161107
710.246961218,0.6533836650303718,0.23266462548660571,-0.23942038641330332
710.74831986,-0.8681062392210869,-0.9232238820890193,0.44452967087458406
711.249678344,0.8892273104593263,0.3958599791223474,-0.21973867310873782
711.751036826,0.3207545588860047,-0.27491402281299554,0.20770894534941203
712.25239575,-0.41233058747741586,-0.5028204524401173,0.33143820039204536
712.7537546,1.1379379762700021,0.11581436240183395,-0.2609349398567855
713.2500992612245,-0.5943507802537753,-0.5883270579253255,0.44700258737010923
713.7464439600001,0.5429535425401714,0.0352583095329146,0.10328671995008915
714.247802202,0.2876342956340236,0.0887505198353481,0.27812172067944085
714.749160404,0.06804661218421758,0.13146314052340244,-0.13540294246189752
715.250519318,-0.1132305961880058,-0.17944764699701193,-0.14876977381261372
715.7518780400001,0.08646445780082516,-0.10373473168855706,0.24458394772083722
716.253235882,0.13774102012297595,-0.23686248197261547,0.36847516859383345
716.7495801408163,0.1974852237597371,-0.24182922223450096,0.11166102674576771
717.2459248419999,0.09232889185322285,0.05427610061218268,-0.05387353548188617
717.74728302,0.11652009071283377,-0.21359237735541256,-0.08864212380279517
718.248640838,0.003985282113409561,-0.3092506147530706,0.3936347981880137
718.74999856,0.18495049427824906,-0.25862374452263626,0.3272070675313629
719.251356758,0.26958325088699014,-0.20119863568412055,0.15442338097093042
719.7527147999999,0.17351522725768803,-0.10396004578569422,-0.13174327149431764
720.2540723120001,0.15721569837186405,-0.12652615582459098,0.005768511661028977
720.7504161714286,0.059804773218736576,-0.44279494323531327,0.3559844673919156
721.24675972,0.35849635657328605,-0.14304653541698314,0.5735196349740266
721.74811684,0.28208604015627137,-0.26048686012215966,0.3011553786760889
722.2494742480001,0.02239446229091284,0.035903829109676495,-0.08436728540872986
722.7508315,0.1801721253980263,-0.2548224743092307,-0.09235473789384717
723.252188368,-0.01481249952448442,-0.06629904259569454,0.22320640901350697
723.75354516,0.00047056543057885316,-0.1536629457584226,0.4445462852217112
724.2498882163264,0.17584725651834648,-0.3191350435241365,0.13405687770135394
724.7462311,0.20378049260249032,0.007005350132107422,0.012077863452651534
725.247587458,0.11910554613002013,-0.211150517169085,-0.24733803227880538
725.7489436200001,-0.09685245831855692,-0.17387366827357084,0.40257945636900716
726.250299924,0.1182887095030037,-0.15564741826431797,0.44402724782585
726.7516561,0.32144170109059383,-0.1916862209280032,0.09490487588518252
727.253012184,0.11170261096716194,0.0837191064977295,-0.058334667406864445
727.7493545632653,-0.022833128096323825,-0.17332112330092722,-0.12199517980193259
728.2456964,-0.0807634816665279,-0.04029415750535323,0.0559816262601361
728.7470517400001,-0.10734567664536922,-0.03318473113532396,0.2597217695531192
729.24840744,0.15695756240611092,0.027314312752048403,-0.014647232519703726
729.74976312,-0.11156415870280582,0.33546955125553674,-0.2709458040784324
730.251118572,-0.29823275135744276,0.06474722121502613,-0.5317454693417252
730.7524739,-0.06738090212380428,0.1444760333111296,0.0245569579652319
731.2538283440001,-0.07270492960766156,0.0037638592708847175,0.031867604387378436
731.7501691387756,0.021739892341956075,0.041766916271934705,-0.04940086855860565
732.2465103,-0.06334782562022703,0.33808870892000376,-0.3132039436868025
732.7478648399999,-0.2057206968773558,0.026441365078942257,-0.4341162732452984
733.24921888,-0.09254818804972166,0.14331714294337702,-0.002489601145216591
733.7505728199999,-0.15335120741630853,-0.00990575386576493,0.009413338594894124
734.251926942,0.046920153358574634,0.24868849599855672,-0.15296236590818782
734.753280904,-0.04611769238151406,0.3897575127416233,-0.5165131559277439
735.2496209979591,-0.2374580220539805,-0.05525742102741237,-0.2703166081531907
735.74596104,-0.06043047390013971,0.20463164845499765,-0.020210928237610094
736.24731453,-0.1432406686904465,-0.005211359722151216,0.05599590756413081
736.74866788,0.045268328977638904,0.1346112602136224,-0.1766887038112036
737.2500207200001,-0.07772371605141022,0.38067973336831196,-0.35984971143978456
737.7513734,-0.15144151309288184,0.058743604040239504,-0.4796359596322184
738.2527259799999,-0.11575099991085665,0.07124273600217651,-0.02347546330981021
738.7540784400001,-0.16249177664718753,-0.0029139430447221925,0.142354201394587
739.2504171693878,0.1275820178689695,0.0019477762105860994,-0.030080683256138243
739.7467559060001,-0.04008337303254481,0.2761313193597716,-0.24967040538778307
740.2481084619999,-0.09524421721351492,-0.023843770515811817,-0.38439121350991234
740.749460926,0.01299075747993745,-0.013630603391876208,-0.0348344888428238
741.250812578,-0.5024853940612289,-0.26356775854448977,0.1901403036007634
741.75216404,-0.037546374125646056,-0.06578120836119589,0.053806650583562515
742.2535153800001,0.41478670891384867,0.5749905514115222,-0.1297202375891692
742.749853122449,-0.8291330381447588,-0.7019152260509519,0.05113646981856842
743.246190834,0.700536219349231,0.7117373776016808,-0.1426499619852566
743.74754174,-0.4247027661143283,-0.03368442057259217,0.09832011957234381
744.2488928240001,-0.32244308496812,0.07943575171138458,-0.06775385067907813
744.7502439000001,0.3190069133195303,1.0016312650796544,-0.24886291115711628
745.2515947640001,-1.1010417748883186,-0.46237280539805076,-0.162931570611322
745.75294522,0.6239641029538242,1.0078802031691467,-0.5280447970635949
746.254296084,-0.6338672569668165,0.17372897362205772,-0.00494417502004679
746.7506324999999,0.19503050858879112,0.37620201607996384,-0.0762937052783412
747.2469689999999,-0.139958001535793,0.6964330195724616,-0.4704775014375649
747.748319,-0.11190073508406012,0.23270532337734537,-0.7034902045891345
748.2496689520001,-0.2675334611110019,0.09129952577668461,-0.388556977125773
748.7510182999999,-0.22568011890715634,0.10149964303036395,0.07448735461310264
749.25236748,0.06654585582738604,-0.09644926110625435,-0.0858453188415224
749.75371636,-0.13612572642354315,0.1935392112311367,-0.14850683410559293
750.2500521408163,0.09958943813848442,0.14650485950232806,-0.21775251708131557
750.7463878399999,-0.08506445627535779,0.02257978644593685,-0.45881770670529176
751.247736614,-0.1507449460946849,0.06400754116717987,0.19301600125265178
751.74908536,0.10445980177030632,-0.11487270843047587,0.18531104731293208
752.25043417,0.012019782633078893,-0.2596125498958388,0.05446805666479072
752.75178294,0.08544431542755565,0.15616385331699134,-0.05946448196343629
753.253131222,0.005762990759941911,0.04399781760448779,-0.533758610596646
753.7494660081633,-0.286821865042775,-0.01386921077777592,0.1431565610570671
754.2458003840001,0.1812970881051399,-0.16893567287671193,0.27011894958371824
754.74714832,0.06152210455367523,-0.25371728780937003,0.22717007387086638
755.248496572,0.14946492192912214,-0.05907745392935757,0.033556531810439265
755.749844722,0.09587824202626784,0.04014601705136938,-0.4605886888921507
756.251192912,-0.19753167894108103,-0.0353472879024378,0.2441340745597617
756.752541022,0.1328789709273318,-0.07754754559960783,0.22649358108062428
757.25388842,0.11009030695907888,-0.347257875893587,0.19871383262506942
757.7502222040815,0.4328437273563114,-0.31858427434724046,0.23556082501122177
758.246556488,0.600533860415603,-0.12329180868430142,0.29401550231915585
758.7479041800001,0.32450813360527325,-0.7454063810593452,0.40265040614365544
759.2492517679999,0.42509160044682487,-0.23030525886500774,0.5334328785847833
759.7505992600001,0.19956822247260675,-0.5784590906256958,0.7096289832022116
760.25194668,0.34881914735050273,-0.11145582946646168,0.39960591737936524
760.75329394,0.11510928517070894,-0.2959904318620408,0.16044059128769683
761.2496277755102,0.21044512985566827,-0.091359172942859,0.11740890013303144
761.74596164,-0.08549494432712645,0.2471106580593909,-0.15602209658046365
762.24730878,-0.06108162562592735,-0.10947304644579121,-0.15084326958206884
762.74865592,-0.1330708037634186,-0.0462220007734807,0.08791897001970614
763.250002952,-0.053486149401722756,-0.06108012230267175,0.26449618719839274
763.75134994,0.2322761746453782,-0.009053106749727037,-0.03136256256784944
764.25269724,0.07424202424205967,0.07149286025385079,-0.08784913963944774
764.7540446200001,0.06850826777167845,-0.08760365695406286,-0.10545728124120103
765.250378077551,-0.11560000155103099,-0.11085607201764147,-0.20366529261780858
765.7467114799999,-0.24364415174128345,-0.016943505356033183,0.14775878940637227
766.2480583319999,0.12196931499183516,-0.0017094053977245339,-0.010928488835433047
766.74940508,-0.03919596840204192,-0.1151484793734111,0.06953399424580392
767.2507517700001,0.2229163592241215,-0.03877921308788118,0.03910648259590612
767.752098442,0.007405512517342538,0.32205020773953885,-0.23743092161292986
768.2534453119999,-0.12334676271562632,-0.08914962497118227,-0.30005464873989807
768.7497787061225,-0.23832545589347778,0.22751969818418105,-0.149611195086393
769.246111914,-0.2833403585343477,0.033211846888677496,-0.03401344445419195
769.7474584820001,0.019933477328169004,0.1633114195468263,-0.21043392198690714
770.248805502,-0.09219400387228,0.1847921697944744,-0.12383007681360862
770.7501526,-0.1437262055885952,0.2934460742994551,-0.11890393854345774
771.25149876,-0.15406108341445474,0.7549940010025905,-0.5484628819088592
771.7528448600001,-0.21592034058996032,0.058448105684906375,-0.5809991658941448
772.2541917540001,-0.3497898746105064,0.36785059111515284,-0.39174053093586303
772.7505253163265,-0.26678313153596467,0.20770180985382405,-0.07616484484265894
773.2468581720001,0.07314884199683121,0.2685594228018406,-0.2096949963316915
773.7482043199999,-0.048600641771167644,-0.07070215526192339,-0.23172318722156862
774.249550838,0.03811654046866513,0.17579548562384356,-0.2623325707854848
774.7508972200001,-0.09780826286146319,0.07316626532519478,-0.3042827616713081
775.2522438640001,-0.3099616811718726,0.1489496500232013,1.9038507291671004e-05
775.75359038,0.18962693168953007,0.003117876669606037,-0.1429253210602633
776.2499233428572,-0.024406340293686102,-0.042714735934632896,0.16986044361354807
776.74625612,0.10478131460402215,-0.23515777430929244,-0.0013079747949024973
777.2476027600001,-0.08032698645820321,0.30321876470679976,-0.23166945735217193
777.7489495,-0.289106150804521,0.22159654488845465,-0.09308802465583943
778.250295758,-0.08981096018706962,0.09899192541642365,-0.237346132328069
778.75164206,-0.1725168193442123,0.42195217116969547,-0.13280991698497238
779.2529882739999,-0.07643624749865849,0.24439071617266278,-0.7531614453065001
779.7543343220001,-0.3225048464003188,0.12537340303928945,-0.08485659579245837
780.2506671653061,-0.07347794504623963,0.23999657649065698,-0.022548298250241083
780.74700002,0.03280590264311164,0.29189828944137003,-0.3960083129259788
781.24834586,0.0032161860727664537,0.02912539320336864,-0.28269231103979986
781.7496916599999,-0.14600445929906525,0.029482094927102968,0.1455150924074647
782.25103794,-0.19131559627850808,-0.004088864937491705,-0.10559522173551816
782.75238426,-0.29347859789275604,0.3191303654335273,-0.030030130510688303
783.2537304000001,-0.1567330163332198,0.3872649560214397,-0.229078697083471
783.7500631448979,-0.0201270209794219,0.6457506674979913,-0.3395998194359582
784.2463955379999,-0.31823392181391197,0.17818822876853355,-0.5724371812718458
784.747741346,-0.13074867816484098,0.1351028445731542,-0.06479946570340483
785.2490870280001,-0.3857711628570546,0.29828711736593577,-0.20304910031830317
785.75043254,-0.13352065135294722,0.4305041357161579,-0.23085502286059678
786.25177838,-0.07168228058979652,0.7055691726936911,-0.5477374713648775
786.75312418,-0.3364183267536351,0.4240927757521595,-0.422727396338076
787.2494565224489,-0.2398533356627503,0.03042198910789093,-0.20363250567375754
787.74578894,-0.23376217179389921,0.3325647436441994,-0.16087639848563134
788.247134696,-0.20679724891523704,0.597574442015352,-0.30951729908801684
788.74848042,-0.06779211400671746,0.46348982079372875,-0.5810597336679688
789.2498257940001,-0.10767386353223758,0.21745441903041457,-0.18357918165070944
789.7511709,-0.360128337314902,0.13541790132775386,-0.3638684214287637
790.25251657,-0.24629080581370824,0.3550720278014749,-0.07407414360209073
790.753862326,-0.19352345946540925,0.3778149735252252,-0.37671707351250483
791.250194312245,0.09182725278663546,0.33429753933749046,-0.3542201698029296
791.746526346,-0.2994956842305725,0.3685649203450653,-0.23801851671721402
792.247871686,-0.39941037023284,0.2848237949917708,-0.36196687811092687
792.74921696,-0.1550121006707007,0.5341227638011453,-0.11788556326356234
793.2505625140001,-0.11297144198966383,0.46915683759805304,-0.4856692668130351
793.75190802,-0.08829826284591778,0.4572900774848385,-0.45007171704193716
794.25325363,-0.025918877114446685,0.24111478719983764,-0.2950519070484237
