Time_interval,Time,Acceleration_x,Acceleration_y,Acceleration_z
0,0.25670012400000003,-0.017794151691326532,-0.003410845388551019,0.00928222889802041
1,0.7517001240000001,-0.03661160171346,-0.18842852593444,-0.0429765129032
2,1.251700124,0.14905325913514,-0.15841259956748,0.1486583995976
3,1.7517001239999999,-0.11643570704936,-0.30362018583904,0.11710209844
4,2.251700124,0.010580857689020005,-0.2948976707486,0.13976097106436
5,2.751700124,-0.0066208738103200005,-0.09563950538364001,0.0085811996482
6,3.251700124,-0.058120156529519997,-0.048871335982625996,0.04231401443468
7,3.751700124,0.07238245010606,-0.065897784231136,-0.006698131566799999
8,4.251700124,-0.04766266823244,0.049358482361259996,-0.005680103300482001
9,4.751700124,0.012743538619972001,0.00905249595617,-0.015595016487279997
10,5.251700124,-0.01506622910558,0.0019198465352400001,0.02351932525135
11,5.751700124,0.015998384951,0.02674215793518,-0.0321781349159
12,6.251700124,0.06887679755674,0.332305507658,-0.10364912032896
13,6.751700124,0.05416053473518,-0.022201972004719996,0.074011268615
14,7.251700124,-0.0444533604401,0.192757596969698,-0.167480239858686
15,7.751700124,0.0225244253832,0.020416107183340002,-0.08898285865342
16,8.251700124000001,-0.03688591360604,-0.1522908067726,-0.021559886937399998
17,8.7516999692,-0.1426606166332,-0.670632276538,0.13531764984327999
18,9.251699737000001,-0.067497880458,-0.39232333660494,0.12250177383406
19,9.751699737000001,-0.0462512004356624,-0.17056023598296,0.01625438689866
20,10.25169974,0.01949838936306,-0.09057179927526,-0.013627243039020005
21,10.75169974,-0.0191195189968,-0.021332511904659998,0.06586126328492
22,11.25169974,-0.0840948462546,0.05272557735532,-0.066635799408758
23,11.75169974,0.2485057339108,-0.08043365239733999,0.05314266202970001
24,12.25169974,-0.10202262834260001,-0.12500129938308,0.14682552336340002
25,12.75169974,0.007993251979379999,0.004317979812660001,-0.047457542417799994
26,13.25169974,-0.010180355307959998,-0.026694045069739998,0.1276795768776
27,13.75169974,0.022859823741139998,0.03021826267524,-0.1049855518324
28,14.25169974,-0.02838377111194,0.012259411813960001,-0.0823904037494
29,14.75169974,0.037723628941599995,-0.0114063358236,0.0946869659586
30,15.25169974,-0.003076780140300001,0.007059583663591999,-0.045265531537800004
31,15.75169974,0.018465916670260006,0.0064136695874260005,0.08195828437979999
32,16.25169974,0.0927489560888,-0.07502510070287999,0.10655849459762001
33,16.75169974,-0.010972466842994001,0.06229377746769,0.054328050616856
34,17.25169974,0.060515917091708,-0.024666333197044,0.1182514190658
35,17.75169974,-0.01724665135014,0.003568429945406,0.04322893143106
36,18.25169974,0.011131408515799999,-0.00731186866864,-0.0384505271898
37,18.75169974,-0.006714128250360001,-0.00431404590318,0.025942716602279998
38,19.25169974,-0.071768007877512,0.0026926422097599966,-0.140748224258752
39,19.75169974,-0.07654801845428,0.042134375572460005,-0.07514013290273999
40,20.25169974,-0.049278783799263995,-0.07495550155491999,-0.01576301574286
41,20.75169974,-0.096689370273494,-0.4333414602298,0.18779968262368002
42,21.25169974,-0.02507481753794,-0.1791617727294,-0.0073002052328599975
43,21.75169974,-0.0014153754706000016,0.0036206054687400015,-0.03794808386424
44,22.25169974,-0.07182300210023661,-0.32963037490408,0.19334539413119997
45,22.75169974,-0.1445489583926,-0.44095131874300003,0.2595233344978
46,23.25169974,0.06352649183520001,-0.5791114139461,-0.00010998727880000559
47,23.75169974,-0.1225692105251,-0.35897459507199997,0.0659493637084
48,24.25169974,-0.012745162848959999,-0.17030804633924,0.05659420013822
49,24.75169974,-0.0178570300296,-0.03982558250039601,0.054463787080639994
50,25.25169974,0.05959913730634,-0.02136845588444,-0.05262592316202
51,25.75169974,-0.018237814309400004,0.03574362754542,-0.16454552650180002
52,26.25169974,0.1360554122806,0.08629864454354,0.0420583343714
53,26.75169974,0.112605489191474,0.1475551629046,0.023039932245200002
54,27.25169974,0.21486310913596,0.1259881925596,-0.2148451995732
55,27.75169974,0.18969949372046,0.1489317846286,-0.34783590317159996
56,28.25169974,0.20223540738068,0.23446681976028,0.0192359542833
57,28.75169974,0.202188036141,-0.020368480686400004,0.2213785934424
58,29.25169974,-0.1359358179466,0.1121592712348,-0.5169905567256
59,29.75169974,-0.06346547932596,0.21519339083334,-0.2219801616743456
60,30.25169974,-0.020594441001,0.2699804210712,-0.0469458580047
61,30.75169974,-0.08856019496625998,0.20502627372780002,-0.149806709308
62,31.25169974,0.045419754389242,0.078627796174654,-0.1780029392216
63,31.75169974,-0.08809552848183999,0.124100351332138,0.034280700681199996
64,32.25169974,0.04262503207024,-0.013053674700960001,-0.14506168365566
65,32.75169974,-0.0119663614038,0.10505189895523999,0.10632072447900001
66,33.25169974,0.90196036844148,-0.16942544460410003,-0.15749491692353998
67,33.75169974,0.11793880937614,0.021738672258879998,0.28884127618082
68,34.25169974,0.6346508514829999,-0.14383534431414,-0.337586402875
69,34.75169974,-0.21695516145618002,-0.027543258666800005,0.0724008464944
70,35.25169974,-0.36404282256982,-0.006824455257250002,-0.17224631308625998
71,35.75169974,-1.1302112635748,0.4057689571454,-0.1416541576448
72,36.25169974,-0.13145079673774002,-0.080256404869174,-0.3121348667174
73,36.75169974,-0.7323604226326,0.33968965530332,-0.012056531888599991
74,37.25169974,0.25910099565798,-0.0324348545113,-0.12600555419662
75,37.75169974,0.05540120422421999,-0.0014355945636440012,0.0014472389270000037
76,38.25169974,-0.0271307074991,0.009724283219196,-0.053577785495560006
77,38.75169974,0.05240133941356,0.03459297179806001,0.03123558996619999
78,39.25169974,0.03543709933776,-0.026455307003799996,-0.026568546301199997
79,39.75169974,0.05407816231388,0.027933087352062,0.0556153297698
80,40.25169974,-0.03107136011306,0.0680649471322,0.06225462913199999
81,40.75169974,0.080449652075,-0.024056425096348,-0.010554695144799993
82,41.25169974000001,-0.004900137786119997,0.485016727446696,-0.39269625661299995
83,41.75169974000001,0.13332704186058,0.949693346066,-0.46642742160219397
84,42.25169974000001,0.3108789384524,0.928562736548,-0.6471397876656
85,42.75169974000001,0.15202360301778,0.42540291786038,-0.25408212663208
86,43.25169974000001,-0.0600924909144,-0.04814760208708,-0.048458633420633994
87,43.75169974000001,0.08704976707904001,-0.08872052191968001,0.1189184474956
88,44.25169974000001,-0.06610309868446,-0.04688507080472,0.007337789537799997
89,44.75169974000001,0.007584690453439997,0.0671518802666,0.018712854386799996
90,45.25169974000001,0.063150397243184,-0.08159973144661999,-0.009971427919659997
91,45.75169974000001,-0.005167503358080001,-0.04039996146939,-0.08722317695480002
92,46.25169974000001,-0.11167979061416,0.055793266297960005,0.12984856605588
93,46.75169974000001,0.158581309912402,0.12014678954908,-0.029261808414600004
94,47.25169974000001,0.0042484265552,0.42562330246,-0.19775506975412
95,47.75169974000001,0.12960594624176,0.33632257461599996,-0.09226452827579999
96,48.25169974000001,-0.07229717731294,-0.04386869431234,0.009717292779359996
97,48.75169974000001,-0.049162930844599995,-0.14343398094108,0.136629152301
98,49.25169974000001,-0.07037829697318,-0.071955175397866,0.009772224437400001
99,49.75169974000001,0.02770229637938,-0.06151874542492,-0.01775855064558
100,50.25169974000001,-0.03259009420754,-0.004516086579880001,0.0068014717129
101,50.75169974000001,0.04836555242876,-0.04392458915556,0.02183110237298
102,51.25169974000001,-0.096981029509642,0.031125011445420202,0.03385572434466
103,51.75169974000001,0.054583423133624,-0.1337897682202,0.01716083526576
104,52.25169974000001,-0.1524952530906,-0.3010428237886,0.21919324874718002
105,52.75169974000001,0.032479894759212,-0.37063659190998005,0.14055843352973998
106,53.25169974000001,-0.127295486325556,-0.06275251388658,0.11820562362892
107,53.75169974000001,0.133474773167092,0.06394703864668,-0.13175074577682
108,54.25169974000001,-0.03405602276712,0.27177018165414,0.0035337734221999972
109,54.75169974000001,0.050450913903899997,-0.1502784728936,-0.13627628324374
110,55.25169974000001,0.29144519150246,0.1169393253302,0.111068735113736
111,55.75169974000001,0.22612562418012,-0.14497421264606,-0.08519299507578001
112,56.25169974000001,0.12490635812399999,0.22863963127,0.0481906986288
113,56.75169974000001,0.34507795717400197,-0.1031080341351,0.0852534103498
114,57.25169974000001,0.1511690243868,-0.33479692936896,0.1129037189518
115,57.75169974000001,-0.056105023142800005,-0.17177279949420002,0.0669091892292
116,58.25169974000001,-0.31020887739738,-0.05516732215788,0.08130367277818
117,58.75169974000001,-0.26468833267144,0.05445590972992,-0.013802738236520009
118,59.25169974000001,-0.09062794029886,0.52085577011,-0.28919317245521997
119,59.75169974000001,0.12236392289012,0.7897551154999999,-0.5385379791142
120,60.25169974000001,0.05083108573642,1.03460083958,-0.6386591816058901
121,60.75169974000001,0.1794947293404,0.8580797195600001,-0.542087020897
122,61.25169974000001,0.03157300859634,0.643578214642,-0.44895146367960004
123,61.75169974000001,0.2820838326306,0.5268032646206,-0.3848804951014
124,62.25169974000001,-0.02403961926460001,0.12446263313243999,-0.0924337864
125,62.75169974000001,0.05680800706536,-0.01759743690132,-0.030501623150999996
126,63.25169974000001,0.02735534087306,-0.031444416044030005,-0.03718856811380001
127,63.75169974000001,-0.04849061340534,0.209072580336242,-0.0919777870416
128,64.25169974,0.07518597215634,0.0522976303096,0.03483305931224001
129,64.75169974,-0.029895504414,-0.045471353532767995,-0.00018471718688000126
130,65.25169974,0.036260930302200005,0.041426658629780004,-0.047763538352
131,65.75169974,0.00671121864898,0.063041629787414,-0.025830879210179996
132,66.25169974,0.016279531718200003,0.03647713661226,0.0020961761580600012
133,66.75169974,0.01016294360322,-0.007237863544280001,-0.047960071559400005
134,67.25169974,-0.04000097274372,-0.158138818739896,0.086611738199454
135,67.75169974,0.01496957302002,0.06226713180632,0.019751205444539996
136,68.25169974,0.01850397884816,0.13031914710188,-0.034968328488399994
137,68.7517000288,0.0484961590132,0.11873966216968,-0.11044831272354001
138,69.2517005,-0.0142531791324,0.021332101819359996,0.020425806055959995
139,69.7517005,-0.03851701617224,-0.22056702613860002,0.07690829278000001
140,70.2517005,-0.05216789424735999,-0.1434035396604,0.1725740337322
141,70.7517005,0.038413888814000006,0.20526316642738,-0.04136782645936
142,71.2517005,0.024361237883120005,-0.03059326171804,-0.0834883689856
143,71.7517005,-0.09690161973320001,-0.3496885967184,0.24906057357696
144,72.2517005,-0.08474291682484,-0.39728125572000006,0.18440813066779999
145,72.7517005,-0.08302449792618,-0.3698337364226,0.2259474086962
146,73.2517005,-0.06922209113522,-0.28580258368940004,0.17705044746948
147,73.7517005,-0.026970722672428,-0.14790498734239999,-0.0034279251079799987
148,74.2517005,-0.010977021455572,-0.07005295753520001,0.013524951936188
149,74.7517005,-0.01147951245332,-0.029897994995046,0.02275466918858
150,75.2517005,-0.004214500188760001,-0.019682321547970002,-0.0006369781490999999
151,75.7517005,0.00012165665612400012,-0.0008372211453800001,0.008350048065220002
152,76.2517005,-0.00794370234132,-0.005383758544440001,-0.0025652313223600005
153,76.7517005,0.006572782993506,-0.00237562179551,-0.000250339510624
154,77.2517005,-0.00376094102905,-0.002221460342244,0.0033220672601000003
155,77.7517005,0.0033594620232319998,-0.000157566070374,-0.005395755767862001
156,78.2517005,0.0020897591137700004,-0.0023941516880599998,-0.011924457548360006
157,78.7517005,-0.002400195600899998,-0.0045841121687219995,0.02355417251660001
158,79.2517005,0.0010062074621400012,-0.0017146587387959988,0.0387139988184982
159,79.7517005,-0.00247395395996,-0.003990936276699999,0.0418932247146
160,80.2517005,0.012819938655412,-0.0221945953367348,-0.008825893412000008
161,80.7517005,0.011979752182798002,-0.01374287605224,-0.0918051624372
162,81.2517005,0.012353268264960002,-0.0136951637264,-0.038484125153999994
163,81.7517005,0.003958762286599999,-0.005949716569079999,-0.006920204167459998
164,82.25170050000001,0.005641996262919999,-0.00496522903342,0.03604775429092
165,82.75170050000001,0.0029767340389880003,-0.002999153137327999,0.026132392848719998
166,83.25170050000001,-0.00034639895241999957,-0.005789928436442,-0.03596416473354
167,83.75170050000001,-0.0017919659608720002,-0.0047575378415720005,0.0028031539894800006
168,84.25170050000001,-0.07851687610154,-0.37569396495760005,0.1797321128832
169,84.75170050000001,-0.04581830322968,-0.3004859733592,0.15997518539874
170,85.25170050000001,-0.05264046549634,0.01142781734518,0.109410629278632
171,85.75170050000001,0.08352388263006,0.16723216056885998,-0.2221900939846
172,86.25170050000001,0.03237098574332,0.1447303390496,-0.08244325637900002
173,86.75170050000001,0.04042540371976,0.13448148727536,-0.1221715927122
174,87.25170050000001,0.005388656849399999,0.0718867015842,0.0052262592290000034
175,87.75170050000001,-0.00727814912592,0.031954650879619996,-0.07860471725922
176,88.25170050000001,0.01616922140146,0.01651670455976,0.02109712601422
177,88.75170050000001,0.028202784065,0.03199817657752,-0.06141270637284
178,89.25170050000001,0.0066817846894,0.16695624351398,-0.0165893077942
179,89.75170050000001,0.03681872904572,0.11393567085666,-0.061469621662959995
180,90.25170050000001,0.011730552317017,0.051507463456304,-0.024611587523559998
181,90.75170050000001,-0.03117620110302,-0.18878072738791998,0.08174390792425999
182,91.25170050000001,-0.09428824007544,-0.43253296852399997,0.215048713686672
183,91.75170050000001,-0.08049221455701999,-0.48475507735999995,0.24449007034491999
184,92.25170050000001,-0.0553559595414,-0.24511577129319,0.109421653745058
185,92.75170050000001,-0.01148911893272,-0.11813455104698001,0.06799646377724
186,93.25170050000001,0.0006603753540600009,0.1128573751455,0.007317867271840001
187,93.75170050000001,0.03867746353378,0.12238295077902,-0.14067447662073998
188,94.25170050000001,0.0011037969559999973,0.33812524318678,-0.1882669639542
189,94.75170050000001,0.053217745126220004,0.2158431720769,-0.10036754607954
190,95.25170050000001,0.024775532632040003,0.1415322971348,-0.0350370597836
191,95.75170050000001,0.004663766662820003,0.083604679105348,-0.07367775915876
192,96.25170050000001,0.009981401119960001,0.105299744608662,-0.108304967877
193,96.75170050000001,-0.08089472904317999,0.13637882709979998,-0.0646978091736
194,97.25170050000001,-0.038077127339599996,0.192795987124962,-0.11593251229258
195,97.75170050000001,0.0379081455726,0.14686800956406,-0.1314680576174
196,98.24172846744186,-0.0999188045375814,0.20622878851453488,0.11866992015993022
197,98.74896122733333,0.06523197906062222,-0.1306638770722222,0.11494826212486667
198,99.24645924065217,-0.002330727402173916,-0.00043954019195651745,-0.014525828149347842
199,99.74942426826087,-0.010110734082869565,-0.040252053214782604,-0.06701536805367392
200,100.25238931956522,0.08892981469999998,0.006519255440217391,0.05238612839195652
201,100.74988739333334,-0.03537060618297778,0.005269606914444439,-0.0748291015628889
202,101.24738549782609,-0.12548956795391303,0.03131595902586957,-0.08197833145108696
203,101.7503506521739,0.0005067654920217309,0.012717697918108698,0.05341439662891304
204,102.25331583695652,0.023506264715652175,-0.049972093626695656,0.13472001444041307
205,102.75081402444444,0.013038097859577774,-0.07622535493688888,-0.13682396145235554
206,103.24831228043477,-0.10976625817826087,-0.1402170865451087,0.3114820770506522
207,103.75127758043477,-0.12699820469256523,-0.34388984804217393,0.07136137588232609
208,104.24877592,-0.010016925461073335,-0.16709117889477776,0.10096157924797777
209,104.74627429347827,0.1239645869818913,0.08137735594556522,0.013571200181739136
210,105.2492397152174,0.02687387248530435,0.031426870316347826,-0.09603361461758696
211,105.75220519130436,-0.28689312753456525,-0.6653667325541305,0.4941699608439261
212,106.24970369555557,0.03609854909628889,-0.5957364612133333,0.32996813456288887
213,106.74720224130434,-0.08055885460358043,-0.389083712,0.2301735670625435
214,107.25016786521738,-0.036530614707673915,-0.06036041612265218,0.031968407006739134
215,107.7531335304348,0.06301808082,0.027769301252673913,-0.023977652828043487
216,108.25063224888889,-0.060940233203377776,-0.12988406817626666,0.03712501526377778
217,108.74813100869565,0.0017526350583021743,-0.04438073738997827,0.06376011475030435
218,109.25109685434782,0.031439515559234785,0.027319363927304347,0.01785106244586956
219,109.74859576000001,-0.040012958807977776,-0.001798735724355554,-0.1526818593288889
220,110.2460947,-0.012200989803913037,0.11287991897129783,-0.011706352215652175
221,110.7490607326087,0.06906866112686956,0.12905644851813045,0.043027857066347826
222,111.25202682391304,-0.09473137752586958,0.23741176335847827,-0.08075878932326087
223,111.74952593555555,0.20095640339368886,0.1372931957211111,-0.16548027462393333
224,112.24702511739132,-0.11282418239173912,0.20660307096565217,0.009547192114195652
225,112.74999136304348,0.15898992530426087,0.057278114820173906,-0.07070997487045652
226,113.2529576521739,-0.07437864189171957,0.1713058585626087,-0.010913579355217386
227,113.75045698000001,0.11522783388065111,0.22555020650288887,-0.17029758029955555
228,114.24795636304347,-0.04258951281760869,-0.0908235311473261,0.08063563056371521
229,114.75092283695652,-0.005105404663739129,-0.23656708261434783,0.14626679212913044
230,115.25388938695652,0.007199464086526087,-0.028718844704615217,0.05277839950468043
231,115.75138896888889,-0.01819406896957778,-0.0737869474588,-0.0700997034676889
232,116.24888863260868,-0.07102684450426087,0.023595825489,-0.013865864798695641
233,116.75185538478262,0.035621387155086955,-0.008403275323930431,-0.045110308605999995
234,117.24935518222222,-0.06219037573275555,0.05002355575868889,0.07355632783177778
235,117.74685505,0.08100946604286956,-0.0006543346133478266,-0.021184641381630433
236,118.24982202608696,0.0927092578735,0.03350727972676087,-0.022593705552608694
237,118.75278906304348,-0.00016104462239130787,0.4487841699493043,-0.1408044255152174
238,119.25028913999999,0.2614360511282667,0.8710938665155555,-0.4564256456224445
239,119.74778929565218,0.15318845957552174,0.560547082326087,-0.13830800679108696
240,120.25075656956521,0.07863445433626087,0.267605978505,-0.14363411199239132
241,120.75372393913044,0.016259921307260873,-0.23523003121526087,0.04748493693086957
242,121.25122436444445,-0.13646038936402222,-0.18860489527531113,0.040886020642666665
243,121.74872489347827,-0.1493428164842174,-0.10417882256474566,-0.0008254569569565113
244,122.25169254565218,0.006713568998043478,0.19200851607080435,-0.1124062849052174
245,122.74919322222223,0.016151504913177777,0.14515329996606,-0.08662639195184445
246,123.24669397826088,0.006111437272936958,-3.972260813043539e-05,0.051012049547478254
247,123.74966184565218,-0.027825902662739127,0.01568487415895652,-0.08243748417586956
248,124.25262978695652,0.06922344858510869,0.159614055053,-0.10466830626391305
249,124.75013074888888,0.01026086875826667,-0.030144415966333337,0.09990385903244445
250,125.24763177391306,0.0056931428742173894,0.09684544024434782,-0.17124098281173913
251,125.75059966086955,0.03278585628304348,0.030123430750673915,-0.11945359605065219
252,126.25356752608695,-0.0070407053683239134,-0.081345008772,0.06583258378543479
253,126.75106868888888,-0.0881381870910889,0.016354433693422224,-0.07303724288822222
254,127.24856989347826,0.040426636412239134,-0.03752420259108696,-0.0027011892004782548
255,127.75153819130435,0.012080342407673915,-0.04394935524826087,0.011631488800978258
256,128.24903946444445,-0.051312705289800004,0.009686353478422224,-0.015440379252666666
257,128.7465407521739,-0.0329834748012174,0.0002046564311956546,0.03164714316586958
258,129.2495091326087,-0.02709086467841304,0.059361447464782606,-0.06146311759934782
259,129.75247752826087,0.01216794388158261,0.052017906434478255,-0.00315691077021739
260,130.24997889777777,0.02762342128162222,0.010200479295733334,-0.014380412626711116
261,130.7474802804348,-0.024857730562391305,-0.23102578909217392,0.12212101273456522
262,131.25044870434783,-0.051589802072547826,-0.4480196859456522,0.17990960245782608
263,131.7534171521739,-0.10936436219136957,-0.5706389676065218,0.2733868723354348
264,132.25091854,-0.1311920984781511,-0.6363072395311111,0.20100390115777778
265,132.7484199108696,-0.09393101331276087,-0.4405271644217391,0.24755886326541304
266,133.25138831956522,-0.08464427842786956,-0.16901592586232608,0.13918733596704347
267,133.74888964444446,-0.06575983231926666,-0.053533803093688895,0.0003089057070222242
268,134.24639095,-0.06934834627847826,0.012236278986173915,-0.00013698703217391114
269,134.74935927391306,-0.0853613339663913,0.2576024273118044,-0.06115202279521739
270,135.2523275652174,-0.10832510888520869,0.3946338529195652,-0.17483135928086954
271,135.7498287711111,-0.10151435170359999,0.30199128256955554,-0.09557174046155556
272,136.2473299347826,0.09538958417208696,0.5211063882565218,-0.29418047614326087
273,136.75029810869566,0.18477221287263043,0.2479812114137174,-0.1324682028367826
274,137.25326619565217,0.1379258098181739,0.07330075036267392,-0.10112194398326085
275,137.75076719333333,0.19159664909295557,0.12684402466222222,-0.05314846037888887
276,138.24826813913043,0.04886841903363043,0.12471676909328261,-0.174650876435
277,138.75123607173913,0.08881934181130434,0.07158811195991305,0.012787456112608706
278,139.2487369088889,0.05980510943444444,0.06007903416464444,-0.056865946464933335
279,139.74623767608696,0.041867801349173915,0.1974746403563913,0.0007062683985652155
280,140.24920543043478,0.08863640285569564,0.33477907595,-0.25067494225608694
281,140.7521731347826,-0.025824508423847824,0.4499258891421739,-0.0294786950873913
282,141.24967375111112,0.2700588977148222,0.17578983836933335,-0.25289898976266667
283,141.74717431086955,-0.1684628291242174,0.40295375948380435,0.09633723549347825
284,142.25014186956523,0.19337144218613045,0.6141577855217392,-0.4122996122915
285,142.75310938478262,0.1141300961041739,0.6480395068326087,-0.21932371801152173
286,143.25060983333333,0.048714923199533335,0.3294634819039333,-0.07289758257368889
287,143.74811025869568,0.07901156546152174,0.28027045207326085,-0.22498881303747828
288,144.25107768478262,0.021480565283913046,0.08078055796217391,0.08171554233456522
289,144.7485780577778,0.09159897094082221,0.1953806188309111,-0.2949748038977778
290,145.24607842391305,0.021675098840652173,0.04429182798889131,-0.06162177999197392
291,145.74904579130435,-0.04422211565813044,-0.27938164835804785,0.08058927371304347
292,146.25201314347828,-0.0731216777601739,-0.4977845109002174,0.15548712274478263
293,146.74951346444445,-0.10077205036037779,-0.609138732477111,0.19743225309444443
294,147.24701377826088,-0.12284145829086957,-0.5357868930608696,0.25871142096030436
295,147.7499811347826,-0.06802086418406521,-0.39548420387304345,0.136907245796
296,148.25294851521738,-0.05116835544134783,-0.23993643470173914,0.13204273967686958
297,148.75044888,-0.06421875921008889,-0.20124645233453334,0.13942066831013333
298,149.2479492673913,-0.00851570005282609,-0.24020151988693478,-0.0047533201313043364
299,149.75091674347826,-0.05532594575367391,-0.20380582498434782,0.051409348197502175
300,150.25388425217392,-0.024950103923434778,-0.14693316169499998,0.06462784435391304
301,150.75138478666668,-0.018685743543533334,-0.1453358226323289,0.012949456107933336
302,151.24888535869565,-0.011360112899173913,-0.07849178107171739,0.027481659612391303
303,151.75185304565218,-0.004273549045304349,-0.06775634185393696,-0.0418847747447826
304,152.24935374222224,-0.021424808769466664,-0.048164484235800005,0.0013778580520000016
305,152.74685450652174,-0.0026892875513043484,-0.05831520971795653,0.032140078782826084
306,153.24982237391305,-0.007245168739456523,-0.05719751378823478,0.05673528755391305
307,153.7527902978261,-0.013087403191978262,-0.05134538982041304,0.04325566085254348
308,154.25029124666668,-0.01227400120855111,-0.051368082896555554,0.026880158318871115
309,154.74779224565216,-0.02145757217923261,-0.02318475557412435,0.07158479482706522
310,155.25076035434785,0.0019305664228913015,-0.06517037619604348,0.005901336671304355
311,155.75372852608697,-0.00351314376852174,-0.05685311297708696,0.08740498711652175
312,156.25122972,-0.025051278792822224,-0.03288695017351111,-0.004734590318444442
313,156.7487309652174,0.004332981117591304,-0.043789661446826084,-0.009701832486739132
314,157.25169930652174,-0.01138844405795652,-0.06175333002034783,0.02398615300419565
315,157.74920065111112,-0.018204530910222224,-0.007766464034602215,0.12907774178333334
316,158.24670203695652,-0.026534675899249998,-0.03438063290521738,0.017938779727391302
317,158.74967052173915,0.0167252409995,-0.08807084871591304,0.05670761025413043
318,159.2526390326087,-0.014440083316239133,-0.03257415087641304,0.01702819700369565
319,159.75014050666667,-0.021954112582577776,-0.007143984900955556,0.03949947356933333
320,160.24764203913043,-0.007492994161413044,-0.01073624776652174,0.025857510775108696
321,160.75061060434783,0.03742503552606522,0.0388706041396913,0.0042120684776087
322,161.2535792,-0.00405737093882609,0.16958264682536955,-0.012379117643478273
323,161.75108076666666,0.09486512260097778,0.2904506471266667,-0.22943371666697776
324,162.24858234130434,0.08540212557156522,0.44507576070739135,-0.10246042583543478
325,162.75155095,0.07058781012849566,0.2839552630543478,-0.11079588143823912
326,163.24905251333334,0.03997385352772889,0.0343853950506,-0.0299127472786
327,163.74655410652173,-0.016151943933608696,-0.058528464772391306,0.031095525490902172
328,164.24952274565217,0.012174233873630437,-0.09249931833293479,0.06465884912849999
329,164.75249135,0.008672232213695652,-0.033137342200626085,0.00699697371282608
330,165.24999289333334,0.06772343864433333,-0.06347276899377777,0.02087667253162222
331,165.74749439565218,0.054409762920260875,-0.03453525253234783,-0.008936830194195652
332,166.25046293695652,0.085347673129,-0.04073711063331935,0.052089628962478256
333,166.75343142173912,0.02609211068771739,0.01667606311814565,-0.09784752389808694
334,167.25093281555556,0.08006378946306222,-0.05171481238437778,0.09164449903904445
335,167.7484341478261,0.019604851931434783,-0.011740850366626957,0.002377188722295656
336,168.25140246304346,-0.018385939381043482,0.04951631504630435,-0.033322894059152175
337,168.7489036577778,-0.03529284223946667,-0.06496236589177778,0.05274357266295778
338,169.2464047826087,0.01252978173526087,-0.06199295624728261,0.04465221324195652
339,169.74937288913043,0.04413819835541304,-0.025411771691652173,-0.02232483160086957
340,170.25234090434785,0.04900947043417391,-0.018683630488695653,0.004775980249999999
341,170.7498418,0.005112458230266667,-0.01310655806091111,0.027019712663155553
342,171.24734261521738,0.08113024570223913,-0.0026117822396086966,-0.030131132706304346
343,171.75031039130434,0.06023000067156521,0.06878679731565217,-0.013355897822391305
344,172.2532780695652,0.04802337434241304,-0.1113437206787826,0.0576459014025
345,172.7507786422222,0.0902011159395311,0.08834093941573334,-0.03666281169933334
346,173.24827913913043,0.030065007178673914,0.08808827400154348,-0.039536766386695656
347,173.7512465652174,-0.143583648076,0.04555075065179783,-0.014568370323695653
348,174.24874689333333,-0.2450098541022222,0.11245282491131112,-0.07714710235111111
349,174.7462471326087,-0.10806484708634784,0.04670618928021739,-0.023346237514934785
350,175.24921433695653,-0.035635236123723914,0.17748597393784782,-0.09719100205978261
351,175.7521814673913,-0.079817112697,-0.06691436145828673,0.05470723690621739
352,176.24968149555554,-0.03947397329793333,-0.057052156663399994,0.02279281616
353,176.74718144782608,-0.22510544956304349,0.14304862852256522,-0.04366404077643478
354,177.2501483521739,-0.22610759022647828,0.10604436501299999,-0.07409468941116738
355,177.75311520652173,-0.17592474236047825,0.11320010475434783,-0.06993676268893478
356,178.25061497111113,-0.10234141283939556,0.15769875844022221,-0.09147029453255556
357,178.74811466521737,0.12347081367804347,0.3685148591641304,-0.15860469444908695
358,179.2510813304348,0.043782311935884784,-0.0756308410501087,0.00868866754341304
359,179.74858091777776,0.09368333683733332,-0.06880150900795556,0.053163231747644445
360,180.24608044130437,0.02397860845784761,0.10165686192315217,-0.053031029910565214
361,180.74904694130436,0.11064038393146304,0.11650054351458695,-0.038324439008934785
362,181.2520133826087,0.14062019534934783,0.25701399471086955,-0.1423232866436261
363,181.74951274444444,0.17732985880904445,0.13819677565137778,-0.06247693167195555
364,182.24701204130434,0.12721891571565216,0.07371546911736956,-0.032607306607608695
365,182.74997830434785,0.07260733032763043,0.05356224723636956,-0.03926258501369565
366,183.2529445152174,0.171572667420395,-0.18900512612519565,0.06906440983943914
367,183.7504436511111,0.09920086984333333,-0.09610793855377776,0.068819448682
368,184.2479427173913,0.1456289286132826,0.25945862480486953,-0.1510297422830652
369,184.75090874565217,-0.00906313016869565,0.2731827963852826,-0.10161249536986956
370,185.25387470217393,0.22023116327180434,-0.4083542305456522,0.09008758996565217
371,185.75137422444442,-0.030687016408422224,-0.5709512604644444,0.27308644189000003
372,186.24887398913043,-0.02532127493283261,-0.2824625347,0.08668339770697826
373,186.75183972608696,0.0032339982067826093,-0.13537775951630435,0.056383029273
374,187.24933837555554,0.0007666159846666671,-0.0719367874967111,0.030039087933577777
375,187.74683695869567,-0.053242569342208695,-0.015956215235239567,0.01831763723107391
376,188.24980248913045,0.1795985041095652,-0.10561806740956521,0.035175644818586954
377,188.7527679347826,-0.20940201598608696,-0.14784902075543477,0.08094475580047826
378,189.25026630000002,-0.14870464801,-0.5753938303977778,0.3645507176551111
379,189.74776460652174,-0.15250482183652175,-0.5297280290726087,0.026329621021956528
380,190.25072984565216,-0.3316077226987391,-0.3251550974976087,0.2852159375673913
381,190.7536950173913,-0.2649077345486304,-0.42314816818043477,0.15485599766982608
382,191.25119308444445,-0.030952323143022223,-0.22201876640666668,0.1268152236944889
383,191.74869111086954,-0.05965773955617392,-0.10344803074200436,0.00623873005593478
384,192.25165604130436,-0.054755255582565214,-0.05352868981976087,0.04182305544057392
385,192.74915390444443,0.036598046625355554,0.005767801083866667,-0.06464580959875556
386,193.24665170217392,0.06278841781043479,0.04210091155630435,-0.04643363537652174
387,193.74961641304347,0.06359891335478261,0.053253308582578256,-0.15184370334586958
388,194.25258106086957,0.03450614894291305,0.1948738201771739,0.1310775591048913
389,194.75007862,0.03029222554355556,0.07584011290013333,-0.07591620549637779
390,195.24757610652176,0.04962689364778261,0.13011354985202175,-0.002485337467565219
391,195.75054052608698,-0.019173576461369565,0.14249705230823914,-0.041919335074963045
392,196.2535048826087,0.014536868620217394,0.030658462779130435,-0.07479748518652174
393,196.75100213111114,0.06896184351800001,0.08661467234624444,0.0016024589563777786
394,197.24849933913043,0.0385128298475,0.05578347911478261,-0.04637839483021739
395,197.7514634673913,-0.023625069821630436,0.0691399056027826,-0.06706240902797826
396,198.24896055333335,0.0004405517543333348,0.06367704073446667,0.017395231455111113
397,198.7464576,0.13410227408869566,0.17613825072545652,-0.13291201383313042
398,199.2494215847826,0.02617572569483478,0.35079232506086955,-0.2195840814778261
399,199.75238552608695,0.13442613815915216,0.2612661900652174,-0.09912341573804348
400,200.24988246444445,0.029478742017311113,0.016706032225911112,-0.09868701298933333
401,200.74737937826086,-0.08425381973865217,0.008811929951326087,0.1011129047561674
402,201.25034327608694,0.08346351446369565,-0.04634129482647826,-0.050796529517891306
403,201.75330716956523,-0.054583714140130433,0.027717911679630433,0.09799734405804349
404,202.25080406444442,0.04496659884753333,-0.020768472886444445,-0.07589575449577778
405,202.74830095217393,-0.06432579635782608,-0.06327720311108695,0.01951416679113043
406,203.2512648217391,-0.038865126913476086,-0.23046855822826087,0.16930478553826087
407,203.74876166666667,-0.04854065129751111,-0.2400116549526667,0.036920547484000005
408,204.24625851956523,0.05165915442130435,0.19112964298793478,0.07110340698910869
409,204.74922234347824,0.24241190274063043,0.2611322558426087,-0.19605256163036955
410,205.2521861630435,0.1370112215683261,0.1955336798767391,-0.16677240705086957
411,205.74968304666666,-0.021812132665377775,0.2663834889734889,-0.168439865098
412,206.24718,-0.06765504408326087,0.23250286475286955,-0.14140058599130434
413,206.75014405434783,-0.010711979607130434,0.6212486184108695,-0.17861033520660868
414,207.2531082456522,0.07458110153943479,0.1837935965991848,-0.1356341631473913
415,207.75060557111112,-0.04621905270444444,0.14907977845946666,0.002176094051333329
416,208.24810302608694,0.09608415724695653,-0.08358826844782608,-0.008439406105869563
417,208.75106760869565,0.02668090552913043,-0.011479968610217394,0.03185490940438043
418,209.24856531111112,0.08144505454688888,0.06055749257102889,-0.038292831839777774
419,209.74606312608697,0.06206624436343478,0.019953841747097828,-0.020347470816130434
420,210.2490280326087,-0.009694580800086956,-0.04950179223880435,0.018797895175476087
421,210.75199307391304,0.03182151200815218,-0.04198353186776087,0.0031748647231304356
422,211.24949117777777,-0.05695209370815556,-0.16663636101433332,0.11784660551555556
423,211.74698940000002,-0.05466179160871739,-0.1536542954622761,0.056896095692956526
424,212.2499547130435,-0.02523623309825217,-0.03719093488332609,0.003726917761797827
425,212.75292009999998,0.02124296128552174,0.059333365895171526,-0.025230003435217394
426,213.25041850666668,-0.07740549048005334,-0.3061161676977778,0.15714501274533332
427,213.74791697173913,-0.037875610527826085,-0.1401252746541087,0.05276451940506522
428,214.25088249565218,0.05469576625713044,0.17854042674804346,-0.09205060420341521
429,214.75384807173913,0.020969461809180433,0.09432672417582609,-0.02706095447280652
430,215.25134666888889,0.042448420988053334,0.1252468109143111,-0.09088243908366667
431,215.74884532391306,0.02462594696922174,0.1055599399211087,-0.03106083040633261
432,216.25181105,-0.03353869817552174,-0.12843008663484784,0.04845373527069565
433,216.74930982,-0.05239626698835556,-0.166473335688,0.08752056757415112
434,217.24680863695653,-0.045336202272958696,-0.15671259423869566,0.0806679932941087
435,217.7497745347826,-0.04475098832219566,-0.1726305277412174,0.09208807737982609
436,218.2527404847826,-0.052098094279309566,-0.17106131885413042,0.0533756380472174
437,218.75023947111112,-0.0303467003044,-0.11303346951804445,0.019407961096888894
438,219.2477385,-0.03178184503828261,-0.08868338750543478,0.06278784378734782
439,219.75070460217393,-0.01724347609862913,-0.054899972417821734,0.020049509793391304
440,220.25367072173916,-0.005020878804089131,-0.01981790169452174,0.005958412004269565
441,220.75116986,-0.005884103270062222,-0.009225251939282222,0.0003798166904888884
442,221.24866902173915,-0.0023046058151956527,-0.005201267159682609,-0.0010074739870217387
443,221.7516352195652,0.000723505837592391,-0.0006250920502869563,-0.0021435281521304346
444,222.24913442666664,0.0029804842342222226,-0.004340436723185111,0.0054784138998
445,222.7466336478261,-0.004728565883236957,-0.0056340487096586955,0.009581254878926087
446,223.24959986086955,0.001969734935456522,0.0015974666765543482,-0.00973664158926087
447,223.75256609347826,-0.0009722414070326089,-0.0026125285931043476,-0.000717411871108696
448,224.25006528666668,0.0038509397873113336,-0.0008027818461711109,0.0010151969064888893
449,224.74756445652173,-0.003382767348552174,0.000388052152295652,-0.0025919831313630437
450,225.25053061086956,-0.0008966804523304348,0.0019522542534260875,0.006346412327962327
451,225.75349675434782,0.003478806465611739,-0.0032046463181956523,0.0038416281992021744
452,226.25099583333335,0.0002550441358666666,-0.00042264726390444453,-0.003265041775551111
453,226.74849486521737,-0.0012094906487478262,-0.0013027191162880434,0.0024777495346717388
454,227.25146086739133,-0.0003056038658282611,-0.0005795333697717393,-0.0005400906440891302
455,227.74895981333333,0.0021295819016333333,-0.0018730799354466667,-0.0018507427629555558
456,228.24645869347825,-0.003087784851893478,0.0019954598470869555,-0.000813753707845652
457,228.74942453913042,-0.0002470534781956522,0.0018591984463260868,-0.0019125316491304344
458,229.25239032826087,0.0002324299321702174,-0.0021703346913326087,0.0035792848357391297
459,229.74988902888887,0.00034886548957237777,-0.0025713496738617777,0.0003965377811866669
460,230.2473876695652,0.001024358136501522,-0.0005488499348978261,0.0015698308530652171
461,230.75035325000002,0.08283261087363043,0.00429567047134783,0.07508489358028261
462,231.25331877173915,0.3308790481473913,-0.2057436289919565,0.14685394454934783
463,231.75081718222222,-0.1456599765371111,-0.2867581049422222,-0.6638191382101556
464,232.2483155369565,0.006994941954456512,-0.15796869733891303,0.3694756445703696
465,232.75128084130435,-0.17205729693673913,-0.535470226535,0.29815897734308694
466,233.24877906444445,0.07794982327433334,-0.31201190948222224,0.272013303976
467,233.74627721086958,0.03601936671356522,-0.12061780432065217,-0.0804599938004348
468,234.2492423152174,0.06771932996193109,0.18725045867904347,-0.26223294631021743
469,234.7522073521739,0.056316358895021734,0.12527217036052174,-0.13715193582691304
470,235.2497052822222,0.014802045288311111,0.08004710938775556,-0.06975920995537778
471,235.74720315000002,0.0022755679850195647,0.01048519300346087,-0.04088517893796522
472,236.25016796956524,-0.02262464813547826,0.041428286101478265,-0.019349253691639135
473,236.75313270869566,0.054022954861956525,0.22883140523958695,-0.20711193913413042
474,237.25063038444443,0.030127546523266668,0.13283300400015555,-0.1124974674622
475,237.74812800434785,-0.012358740618391303,0.010155356448173914,-0.01171687375202174
476,238.25109256521736,-0.01491636815232609,-0.1507075558547174,0.1329459314779348
477,238.74859008888888,-0.018915777736155555,-0.11488153669022222,0.08723794089668889
478,239.24608753478262,0.003473981569002174,-0.07351251270508696,0.055195569993184784
479,239.74905195869565,-0.008027457672832609,-0.039042877114119565,0.031231206396239133
480,240.25201634130434,-0.0028362351915,-0.014045300691182608,0.011763209881695652
481,240.74951368666666,0.0017316818238511111,-0.008100573221632889,0.0097169134348
482,241.24701101956524,-0.036187608593065225,-0.024871712142856522,0.05777506206347826
483,241.74997535434784,0.11904841404100001,0.022736062174217392,0.0056011054869130415
484,242.2529396869565,-0.03010338803695652,-0.014677006260413043,0.13598417196745652
485,242.7504370288889,-0.008563119840666666,-0.006599987878444444,-0.1080704477171111
486,243.24793439130434,-0.05832834865086957,-0.011160964552284781,0.08663502983391305
487,243.75089877608698,0.0009401401791304351,0.0010674518080869592,0.023236938143913043
488,244.2538631673913,0.05227989735602173,0.011848968007304346,0.05634590854652175
489,244.75136058,-0.011882297200844444,-0.004811064407844446,0.005445586311333332
490,245.248858,-0.008870251794413045,-0.005448559055326088,-0.028765004610826084
491,245.7518217021739,0.034674122280869565,0.010078720422086957,0.017770756842391305
492,246.24931808444444,-0.08262179427555555,-0.017069265580333334,-0.15673514472711111
493,246.74681554999998,0.0018972650854347855,-0.010903120038195652,-0.00680338816826086
494,247.24977999130434,-0.007340613913413044,-0.0010174771998234771,0.014021448464500003
495,247.75274445869564,0.0448300035061739,-0.008925541587130435,0.03660390687552174
496,248.25024189777776,0.014311701718800002,-0.003576670749799999,0.00924188826708889
497,248.74773934130434,0.038484193715652176,-0.01225834307621739,0.007188817732195661
498,249.25070378913045,-0.019592230741195652,-0.000904166179391305,0.051199881925891304
499,249.75366821086956,-0.008321395384456521,-0.0008234148432608705,-0.01400898848506522
500,250.25116564222222,0.017313286986888887,0.005093246035066668,-0.05273394054911112
501,250.74866308913042,-0.0009309208920869562,-0.005294115645978262,-0.034894207250804346
502,251.25162753695653,-0.0031792495575434774,-0.0033919292946304348,-0.0157375232091087
503,251.74912501555553,-0.027414488785933333,-0.13839933607652444,0.12623874876646665
504,252.24662248695654,-0.04099259428226087,-0.40872097015413045,0.3440741248841304
505,252.74958696521736,-0.04146666630246956,-0.4157946731760869,0.34844556061760873
506,253.2525514847826,-0.08633774000304348,-0.23636422986369562,0.20683646201458697
507,253.7500490266667,0.045614788271111116,-0.11894777085380667,0.18309672673777777
508,254.24754658913045,-0.00726248129169565,0.05306878297291718,-0.1286074493241761
509,254.75051119347827,0.011265941285326085,0.04315706958371739,-0.03796418853506522
510,255.2534758347826,0.029639780522652173,0.06253666463036739,-0.04662821604273914
511,255.75097350000001,0.0022195710068622205,0.06896677016846667,-0.06618775262071111
512,256.2484712021739,-0.0026486671526086956,0.08068066058241304,-0.04797744751673913
513,256.75143594347827,0.0224291449045,0.15780359765413043,-0.14854493348365216
514,257.2489337088889,0.05029464032937778,0.15454197989244445,-0.1422639105056
515,257.74643150652173,0.04715178064367392,0.13900920619391305,-0.10669421112863044
516,258.2493963673913,0.057566717915652175,0.16723506346586955,-0.16098312709782608
517,258.75236124130436,-0.08457402820375436,0.13732774361073913,-0.16497312421184782
518,259.24985914666667,0.09532226058711112,0.08493766784444445,-0.07592740588842
519,259.7473570869565,-0.018692743525065218,0.046615538389130434,-0.030621269475086955
520,260.25032208695654,0.051026646209304354,-0.0862031086652174,-0.006906146592091301
521,260.7532870869565,-0.07682053550860869,-0.27112354402565214,0.3237440482393478
522,261.2507850777778,-0.02814780341446667,-0.345172564188,0.3756277190322222
523,261.7482831,-0.0769679559278261,-0.1780698921312609,0.10280755291158696
524,262.25124817391304,0.11369418838763043,-0.09181902720173912,0.1298645061009565
525,262.74874623777777,-0.1175190740212,0.051398870683666664,0.029236390853600004
526,263.2462443152174,-0.07113010596652174,0.0011591496965217434,-0.07572975365021739
527,263.7492094152174,-0.5064275653380218,0.08975285032565218,-0.4213285860765218
528,264.252174523913,0.12778142420434782,-0.06889056641239132,0.4479304189236957
529,264.74967261555554,-0.07325116283822222,0.10519428252253334,-0.3297456105793333
530,265.2471707173913,-0.039303420679782604,0.1515807379823913,-0.16902668580283695
531,265.75013582608693,0.09040269190900001,0.11009613327521739,-0.124184888345
532,266.2531009195652,-0.21926468738826088,0.10734401578181521,-0.03302387571586956
533,266.7505989977778,-0.04013310736808889,0.09306973350745334,-0.053025892047555555
534,267.2480970804348,-0.09555854875586957,0.07994687039397826,0.020881072332326087
535,267.7510621304348,0.1068899974915,0.04115814747907826,-0.15350346979804347
536,268.24856018444444,0.03521799908577778,0.04582488801935556,0.01730498207417778
537,268.74605817826085,0.022772966518000003,0.008685651038673912,-0.13220982965630435
538,269.2490231826087,-0.013392607797695655,0.06645651485191303,0.09368463184621956
539,269.75198817608697,0.06598256204695653,-0.015606258226891306,-0.0519382642676087
540,270.24948610444443,-0.027749180790444448,0.03581114874824444,-0.008427333826577777
541,270.74698401086954,0.02975227003673914,-0.017894268038108695,-0.06270001245804348
542,271.2499488804348,-0.062011838600608694,-0.019670735232869566,0.0063449196211304345
543,271.7529137217391,0.07131706502434783,0.22383826712293478,-0.022434618164760875
544,272.25041152222224,0.10766657260071111,0.2834326850068,-0.38436307906835554
545,272.74790927826086,-0.03401111520043478,0.30754051001130434,-0.22157840106286958
546,273.25087402608693,0.043156226689760865,0.09226988709828261,-0.1558831359995
547,273.75383872608694,-0.013268369043478266,0.08336648733880435,0.09579483322017174
548,274.2513363888889,0.07744881708533333,0.10795245700382221,-0.15272960663022223
549,274.74883401521737,-0.01902766460819565,0.1471232227654348,-0.12815919129263043
550,275.25179860869565,0.12137598901019564,0.17978292962045653,-0.17813349806956522
551,275.74929616888886,0.006884207333311112,0.060242282020266665,-0.09323680665471111
552,276.24679368478263,-0.1452682368091087,0.14085220253665218,-0.04268174586008695
553,276.7497581978261,0.3549957930596522,-0.13946532166521738,0.09963391138543479
554,277.25272267391307,-0.26971993432913044,-0.018352684767391304,0.050687002096739125
555,277.75022010888887,0.1385030375551111,-0.0667929649334689,0.02149061626555556
556,278.24771755652176,-0.1558288433480652,-0.34123872673695654,0.3063393468469565
557,278.7506819586956,-0.05043887314918261,-0.20206068909456523,0.1055424731752413
558,279.25364633913046,-0.06363732918165217,0.009460231535497824,-0.035518687705043475
559,279.75114369333335,0.13622824383684445,0.07930047777066666,-0.10865320629397779
560,280.2486410021739,-0.05264235612119565,0.08254358043054348,-0.17664812958739132
561,280.7516053173913,0.22006289207695653,-0.15017677389806522,0.19183341315178262
562,281.2491025977778,-0.2868535121447111,-0.2825785213022222,0.20212973487666666
563,281.7465998608696,0.04836276173608696,-0.266646468123913,0.20987563547173912
564,282.2495641130435,-0.01932899848304348,0.08971828999847827,-0.032775142921521734
565,282.75252835,-0.06788344746058696,0.11529857179891304,-0.029085884916104355
566,283.25002556888893,-0.025454145003933334,0.028224595385399995,-0.10541924370844444
567,283.7475227782609,-0.1329256037021087,-0.0999647223382826,0.1428890642935652
568,284.25048694130436,0.1447592118597826,0.24228203814630433,-0.35185297677043476
569,284.75345109347825,0.024631882488913043,0.31061882558347825,-0.2856357719626957
570,285.2509482377778,0.04259034527904444,0.14453081554650887,-0.13170345094373334
571,285.7484453413044,-0.001256779481195652,-0.026759178741695647,0.03858919765897826
572,286.2514094282609,-0.005291249443413043,-0.11681911220108696,0.046319184094782605
573,286.7489064977778,-0.03667418030128889,-0.15115588505815555,0.12963483595688888
574,287.24640357608695,-0.022852700692608693,-0.010483783226630435,-0.008540360821521735
575,287.7493675978261,0.059085716376173915,0.09399376744956305,-0.07504047518043479
576,288.2523316,0.006616644237413041,0.022261277489739127,-0.035360896067239134
577,288.7498286,-0.05105990038575556,-0.21963993708895554,0.1746995290168889
578,289.24732560217393,-0.09150312516999999,-0.3880215935108695,0.30949704543295653
579,289.7502896,-0.012323198114347825,-0.26771174307043477,0.20497816541884784
580,290.2532535978261,-0.02435687313815,-0.12652778625413044,0.09105828534326087
581,290.7507505488889,-0.016372950871911113,-0.07150368160666666,0.10530320273377779
582,291.2482475,-0.0023478684202260874,-0.03065273036181087,0.012509885049782614
583,291.7512114673913,-0.007649551269304348,-0.029207312545097824,-0.011566628577804345
584,292.2487084,-0.007151534820444444,-0.019221284653555555,0.052239619361511114
585,292.74620536086957,-0.0009608787031739136,-0.00021965607271739324,-0.047357548839347834
586,293.2491693,0.0016518183340869556,-0.017542704292847825,0.07750343237847827
587,293.75213322173914,0.001079561918556522,-0.00556839030718913,0.00932843788823913
588,294.24963016444445,0.01053425470911111,-0.0019151051855266668,0.02578341165844444
589,294.74712709565216,-0.025043674137695652,-0.015474879217878258,0.0095231740446087
590,295.250091026087,0.007238805293413043,0.0067889172084347835,-0.03142691695608695
591,295.75305498478264,0.007711301678723913,-0.002415771069723913,0.015345697818065216
592,296.2505519133333,0.024895074633688886,0.002993647257777778,0.007598919332599999
593,296.7480489,-0.031088238175869563,-0.01577184511276087,-0.03919499853486304
594,297.2510128673913,-0.028546465485260873,-0.0068012009438695635,0.030555051305195657
595,297.75397682391304,0.021365408014804348,0.006523536593965216,0.014356623519934782
596,298.2514738,-0.02861478063246667,-0.013319587706733332,0.013566589355755556
597,298.7489708,0.0021483146609217393,-0.0028134843578478262,0.022734445070673914
598,299.2519348021739,-0.019878314886521736,-0.00818900440126087,-0.01796279782769565
599,299.7494318311111,0.005445543926147335,0.005122682782613334,-0.010968229505933333
600,300.24692888913046,0.0028546893073065215,-0.0011905690899173915,0.008683671121630437
601,300.7498929173913,0.0744777490262826,0.013032467468741303,0.044672851976823906
602,301.25285699565217,-0.1556432933873913,-0.04125664545286956,-0.04232252163760869
603,301.75035408222226,0.0605882313428,0.002275964950333334,0.0848370763968889
604,302.2478511652174,-0.0206715425725,-0.010022059727,-0.014089729472630435
605,302.7508152847826,-0.006526032216782609,0.007571230763152174,-0.04695720257682609
606,303.2537794043478,-0.037386365560869564,-0.017638610757608694,0.03149331134808695
607,303.75127654222223,0.06028148862399999,-0.026238568619999996,0.006509145101364444
608,304.2487736891304,-0.02428052736193478,-0.0009928578890652168,-0.046541276190456525
609,304.75173785869566,0.006197328155384782,0.0020709970720434777,0.002655993335413044
610,305.2492350511111,0.00897421836858889,0.00343878004254,-0.0084835370408
611,305.74673251086955,-0.0043287018072391305,-0.0021383866016956524,-0.006131099619195653
612,306.24969712391305,0.004259013611230435,-0.0064866542814630435,0.0009785527774565225
613,306.7526614043478,-0.18292231663408695,-0.1013874592995652,-0.023321535280652173
614,307.2501587133333,0.3926601807335556,0.12967238955654,0.046495109129666666
615,307.7476560347826,-0.040568512419565224,-0.15774507107847827,0.15412064221730434
616,308.2506204130435,-0.11163872998915217,-0.34169040555217395,0.2890583328552174
617,308.7535848434782,-0.03126641330658696,-0.1708463378541087,0.11586282564115001
618,309.25108228666664,-0.04806165165795555,-0.10218770768920224,0.09854519101975556
619,309.7485797826087,0.017440066389391305,0.0060928386204130444,-0.041246849557913044
620,310.2515443173913,-0.10478457160695652,-0.1505361225308261,0.14312421757263044
621,310.74904187777776,-0.026289082903577777,-0.1483002026865778,0.05873874028088889
622,311.2465394869565,-0.06893781734465218,-0.059171801026086955,0.013728888135891305
623,311.74950413695655,-0.005682434729543479,-0.09049302599176087,0.058500673463043475
624,312.2524688630435,0.07195891375502174,0.02885860982313044,0.05144551527704348
625,312.74996665333333,0.020113216505777777,0.20189698537126669,-0.2991417460888667
626,313.2474645282609,0.0627744327376087,0.44807313836739127,-0.2626844177923261
627,313.75042945869563,0.05141978678571217,0.24607773448673914,-0.17212234372473914
628,314.2533945,-0.00721448659652174,0.07119805916231305,-0.01951298506173913
629,314.75089259333333,0.04340971046291111,0.06029937532368889,-0.01703695721215556
630,315.24839079130436,-0.038952176986832614,-0.1271062104602174,0.06804673567893478
631,315.7513560978261,-0.006915403452876087,-0.03211569786556522,0.010470639102695653
632,316.24885448,0.02392913500682222,0.20513351227977775,-0.10716685189504445
633,316.74635297826086,0.03949782123319565,-0.061007468603478256,0.03487884479978261
634,317.2493185978261,-0.06731223023169565,-0.20829711790415217,0.1572325540604348
635,317.7522843347826,-0.04464372085180434,-0.06978257842552174,0.014908189358543477
636,318.24978316222223,0.02998148865548889,-0.012105994755555556,-0.03950006696648889
637,318.74728210434785,0.004154949085189131,0.14853998889536957,-0.07673085253802174
638,319.2502481978261,0.11881013538365216,0.37962315393347823,-0.23304596154513044
639,319.75321439130437,0.12274426999086957,0.4272260976936304,-0.3323016166693478
640,320.25071368,-0.03247377342924444,0.18971197340450666,-0.16242667304400002
641,320.7482130760869,-0.015636322287515002,0.028485515846863044,-0.014991832809869567
642,321.25117961304346,0.03549575546252609,0.2994599653352391,-0.21779205487760872
643,321.74867921555557,0.04571551747206667,0.14556151495711112,-0.11508599387257777
644,322.2461789239131,0.030046991683108697,0.11604156701623912,-0.11580276489608696
645,322.74914576521735,0.003707144570565215,0.04690169252315217,0.042946763663521736
646,323.2521126652174,0.07457441868780434,0.04400152744958696,-0.03903717580304348
647,323.74961262,0.0034736553795555536,-0.04482894473622222,-0.004489093357177778
648,324.24711266086956,0.05042987155108696,-0.12133844002413044,0.07708124492043479
649,324.75007978043476,0.12196073454256522,-0.35293097081152175,0.3951005831855652
650,325.25304697173914,0.44467095966152176,-0.4422450687630435,0.4122380899258696
651,325.7505471666667,0.21140698592355556,-0.3538350635128889,0.37793940440644447
652,326.2480474130435,0.08944460231036958,0.2033216331195435,-0.11192759222282608
653,326.75101473478264,0.4622069354259565,0.02163434028517391,0.01841365772413044
654,327.2539820956522,0.10209028034019565,0.03181954051897826,-0.012716345166086957
655,327.75148247777776,-0.13542824254453334,0.037932321762444446,-0.017231877643555556
656,328.2489829,-0.35363099300717393,0.17230191438256523,-0.19817945231123915
657,328.7519503913043,-0.34533056876,0.26479743874965217,-0.20677880618934785
658,329.2494509,-0.331993240772,0.08656507068342223,-0.19124355316137778
659,329.7469514434783,-0.12110049828304348,0.011947248291413044,-0.007364283436282608
660,330.2499190673913,-0.12473024751804349,-0.23215488765630435,0.12298248125342608
661,330.75288673695655,-0.1684050404541087,-0.06844049950914348,0.02925307854130435
662,331.25038739555555,-0.07753616969471112,0.1381397141434111,-0.14079808128784446
663,331.74788810217393,-0.46080494185956516,0.03733742754956522,-0.13507163007152173
664,332.25085590869566,-1.0063687407498914,0.1382530461176087,-0.3438617768495652
665,332.7538237956522,-0.8137093678776087,0.16216813999891305,-0.24485647164369564
666,333.2513247333333,-0.39978683923977776,0.3308732668579556,-0.32387445236466667
667,333.74882576304344,-0.7207207265455434,0.18516147654686954,-0.15537381171843478
668,334.25179393913044,-0.5293898258404782,0.314423032428913,-0.27950102351043477
669,334.74929514666667,-0.13012557162586666,0.2962024582751111,-0.23695642683355556
670,335.2467964347826,0.42888408512039133,0.22352854065397826,-0.1688383454799348
671,335.7497648152174,0.29738209558319567,0.032017531603543474,0.05633299247021739
672,336.25273325652176,0.15489034419595651,0.4182071374841304,-0.2468468624603261
673,336.75023469999996,0.5333477563362222,0.3066923035556889,-0.22458113564911109
674,337.2477361695652,0.09627997615862827,0.20280207758021737,-0.1363285417156739
675,337.75070474999995,0.05504976666982609,-0.10053160916071739,0.056457001229539124
676,338.2536733869565,-0.066989661558,-0.2022405603678261,0.16968471070717392
677,338.7511750244445,-0.11433060431588889,-0.08428201675648889,0.09995340769977776
678,339.24867671521736,-0.10236495865260871,0.13547937248108696,-0.38126899885652177
679,339.7516455086957,-0.5629776197986956,-0.12554174920006522,0.08289377587130435
680,340.24914730666666,-0.5009623924843556,-0.08248992495953777,-0.10693173938022223
681,340.7466491847826,-0.2679461888767174,-0.07409085397543479,0.10070718888826086
682,341.2496181673913,-0.009433878531956522,-0.0465132671935,-0.011189947967434777
683,341.75258723913043,-0.2514430776821739,-0.0564708087732174,-0.02777340104189348
684,342.2500893355555,-0.34484841028755553,-0.009932539199555562,-0.05636261834486667
685,342.747591526087,-0.2059060412946522,-0.0995692688471739,-0.014883424931086959
686,343.2505608478261,-0.24010103292630436,-0.08589099283130434,-0.02060870502713044
687,343.75353026739134,-0.29721353494448044,0.07718289416569565,-0.10284292179113043
688,344.2510327311111,-0.11800015237795555,0.15004890230333331,-0.1511292457606667
689,344.7485352804348,-0.33586718984,0.1954014301274348,-0.18936862116169567
690,345.25150499565217,0.2668278579863043,0.14786423287454348,-0.13036931077804348
691,345.7490077244444,-0.18654848204893335,0.29927178489244444,-0.07136082119357777
692,346.24651057391304,-0.20005343787652172,0.3671873652285,-0.16561476046152174
693,346.74948056521737,0.045225640986826084,0.4504664462779565,-0.10699113551065217
694,347.25245063478263,0.07718845555304348,0.6517978750913044,-0.5388409262075218
695,347.7499537377778,0.3590438154195266,0.34744080439244446,-0.28139702478755557
696,348.24745693478263,0.32094004879,0.6336519510890217,-0.2020249055566087
697,348.7504272782609,0.8736531009162608,0.29264919652369564,0.1854155789230435
698,349.2533976978261,0.40881873214252173,0.47626577257434777,-0.548930463611087
699,349.7509011355556,0.7001115004042222,0.12533596623177778,0.5942518446397778
700,350.2484046391304,0.5779113043867391,0.3003543148802174,-0.25762373467550004
701,350.7513752739131,0.6278127250591087,0.22790853872750216,-0.08026729458876088
702,351.2488789066667,0.4539332416424444,0.2923199865573333,-0.10744580163333334
703,351.7463825978261,0.35964361221826086,-0.07252555307571738,0.21170197362869567
704,352.24935342173916,0.22332490527391305,0.02282764601043478,0.03884776778043478
705,352.7523242913044,0.0483696408858913,-0.5671458918065218,0.40616232416847825
706,353.24982813555556,0.036983446281244454,-0.48121843867111114,0.2999724705949556
707,353.7473320130435,-0.0403661876866087,-0.37071864501967394,0.31934216747608696
708,354.2503030043478,0.04751949595036957,-0.024561508846239127,0.026035764941369565
709,354.75327403260866,0.03774228562128261,0.27720634833891306,-0.1262491474946087
710,355.25077802,0.07538920176875556,0.3683517668,-0.287969663404
711,355.7482820413043,-0.027767542592130434,0.36612538669782607,-0.18469376149626085
712,356.2512531695652,0.05784096665426522,0.0903212920451087,-0.08506575873854348
713,356.7487572688889,0.020864651596533335,-0.04900788201536889,0.048250007635102225
714,357.2462614043478,-0.049466220899978264,0.01615248555130435,0.007202573449347824
715,357.74923266956523,0.0704234550195,0.1913067257912065,-0.20784100242413042
716,358.2522039847826,-0.013140178085652173,0.15180806491554347,-0.06453019640217392
717,358.74970827333334,-0.005755385423777778,0.08131949106977777,-0.07401875389706222
718,359.2472126021739,0.010990923833260868,0.03486727632108695,0.009608496799673915
719,359.7501840652174,0.05169706661934782,-0.023911776754782607,-0.006015238555304343
720,360.2531555869565,-0.06494787302543478,0.0593578193473913,-0.01019815776708696
721,360.75066009333335,0.0599189846882,-0.007529343505666667,-0.02080452176677778
722,361.24816461739135,-0.031688432618586955,0.05864046968021739,-0.027644219604086955
723,361.7511363043478,0.01886693967195652,0.01961398124878261,-0.028393755785478262
724,362.2486409511111,0.005407401506957777,0.13025787140751113,-0.08850326538666665
725,362.7461456456521,0.00122285903223913,0.23413627043869567,-0.15551445795865218
726,363.24911748260865,0.03221161287369565,0.11602367525476087,-0.0533576011703913
727,363.75208935,0.02106198927552174,0.032007974125032604,-0.022431674206141304
728,364.2495941866667,-0.007887731076644445,0.012527169121022223,-0.004455926682244444
729,364.7470990630435,-0.0022206167983913044,-0.006557163984717392,-0.010872053063630434
730,365.2500710978261,1.2852822521738313e-05,0.01473833166652174,0.005565767700521739
731,365.7530432369565,-0.019210675487847825,-0.14821475485021737,0.08641279261878261
732,366.2505483977778,-0.03732632833833289,-0.37975698046888895,0.2512212753288
733,366.7480536913044,-0.014279550221079563,-0.35454303285869565,0.2295833359565652
734,367.2510262369565,-0.024963638785565217,-0.2376204573673913,0.16512610601146085
735,367.74853185999996,-0.01295512525552,-0.08296227984755555,0.05736568239232444
736,368.2460376391304,-0.0027355510413304353,-0.051167954569543476,0.03134172895704131
737,368.74901066521744,-0.003429523627956521,-0.01652959118545652,0.01788993503434783
738,369.2519838217391,0.004142272245908044,-0.008950150530934783,0.004285542861304348
739,369.7494900288889,0.007071190326253333,-0.005032295651577779,-0.0016093571982288902
740,370.2469963130435,-0.010792031641478262,-0.005422187887821739,0.009505976803043478
741,370.74996980000003,0.0014561307824130438,-0.0006162083661413042,-0.004439364309178262
742,371.2529433673913,-0.0005444422684565227,-0.0038232596017608697,0.005682271461413044
743,371.7504499,0.010879504184822,0.004739962684474445,-0.002735784320160001
744,372.2479564978261,-0.010657414793059086,-0.004583027052145652,0.006455784257913043
745,372.7509302478261,0.007717962254982608,0.001934061880036957,-0.002561206403526087
746,373.2539040543478,0.0019959469691956523,-0.0030333995817608695,-0.007671283638302174
747,373.75141079555556,-0.0035606246025622224,0.0007237646319111113,0.007663355933124444
748,374.2489175695652,0.010689076927069566,-0.00037105187147826077,-0.01127485607118261
749,374.7518915021739,-0.0108924135565,-0.0009290031761086956,0.010300408238391304
750,375.24939837777777,0.0031470845136666666,0.0002002292205333334,0.0024233076313457773
751,375.7469053021739,0.010208374941586957,-0.00021216143741304347,-0.004835916601608695
752,376.2498793652174,0.00013342207735217286,-0.00351654965002174,0.008419990538717392
753,376.75285344130435,-0.014917419647826084,-0.005838798442315218,-0.01587359801478261
754,377.2503604622222,0.005611540874177777,-0.0008705986852222209,0.014452531600444444
755,377.7478675282609,-0.01864323796767391,-0.009663830629565218,0.014980461306260873
756,378.2508417304348,0.027675022248478263,-0.010397651920673911,0.010618303133913048
757,378.7538159630435,-0.08693020239684782,-0.020206150800456523,0.062482284461460876
758,379.25132311333334,0.0009365108280822222,-0.005695936415033333,0.08902022043995557
759,379.7488302782608,-0.06154241250913044,-0.16304078309502174,0.07244087300580435
760,380.2518045847826,-0.10388312132630434,-0.5125328872478261,0.39134901502502173
761,380.74931181777777,-0.08177777926193555,-0.5054473876933333,0.37295291688666665
762,381.24681905652176,-0.002303735065413041,-0.21117394904173914,0.19517052692004347
763,381.7497934369565,0.00024226955852826013,-0.0611142593906087,0.004611274475652176
764,382.2527678478261,0.005823726238978261,0.14443063735526088,-0.10672998428047827
765,382.75027516222224,0.037925672530666664,0.41356782913555556,-0.2839584350511111
766,383.24778249782605,0.05428422016021739,0.2649897388805869,-0.15972786364173913
767,383.75075697608696,-0.026890148288960216,-0.15256693052230436,0.08249885103302174
768,384.25373147608695,0.02251318226376087,-0.20316989525543477,0.16649536464708695
769,384.7512388888889,0.23838435543866668,-0.0001407517353333304,0.06381857130755555
770,385.24874632391305,0.03710210323169565,0.09813052674573912,-0.027757271477217394
771,385.75172089347825,0.2710960455554369,0.009455214376391298,0.10635316889465217
772,386.24922836666667,0.5547356287511112,-0.030243757032073333,0.20366011725355557
773,386.74673586521743,0.30392849575152175,0.22850803707,-0.1892107362326087
774,387.24971050652175,0.24657894345756087,0.317213245068913,-0.20482679033586956
775,387.7526851586956,0.3964355400140109,0.27452475091293477,-0.17931603347673913
776,388.25019272444445,0.2621031595617111,0.13918464448666665,-0.06293830871555556
777,388.74770031086956,0.06188890985623913,0.10031279273673914,-0.05556870543695652
778,389.25067505217396,0.1517306524146739,-0.00010262364973913178,0.019372079685432607
779,389.75364981521744,0.03581447024351957,0.0003662834983336936,-0.014068686446086956
780,390.2511574888889,0.17356465160355555,0.12140264511377777,-0.02505943509511111
781,390.74866521086955,0.2695465160058261,0.2160911352745652,-0.19334600282702172
782,391.25164008043475,0.3953020248836522,-0.207929320954,0.2398636237367391
783,391.74914791555557,0.07766959865695555,0.010274855294666667,0.028439044956955557
784,392.246655776087,-0.23515599349576088,0.23655839587786956,-0.2623717888480435
785,392.74963079130436,-0.6052386028586956,0.028853696326521735,-0.050539607583891304
786,393.2526058347826,-0.41722697667097824,0.10860970745284783,-0.21691566964717393
787,393.7501138288889,-0.2523423724671111,0.10050161150215556,-0.034955639312778
788,394.2476218608696,-0.044485254131934784,0.0012264873645869544,-0.05353709925673913
789,394.7505970673913,-0.11299389470799999,0.02400057212326087,-0.009612860886891303
790,395.25357231521735,0.02895186647045652,0.016303881354130433,-0.04817963683032609
791,395.7510804911111,-0.04632814592911111,0.01665893130363889,-0.0048623085
792,396.24858871521735,0.019795701558673915,-0.009945745052178696,0.0008740010486521741
793,396.75156409782613,0.012963866410728263,-0.041116082149217394,0.029838375421956526
794,397.2490723977778,-0.010385444433755555,0.015334987639322221,-0.010678757557133333
795,397.74658073043474,-0.00752432061343913,0.08938505338717392,-0.060903144921
796,398.2495562195652,-0.01628299510678261,0.026082816338456525,-0.009932227760391302
797,398.7525317413043,1.5333941267390644e-05,-0.029692888259856522,0.015777546427608695
798,399.2500401622222,0.06322234339322222,0.04887738757337778,-0.018133735656
799,399.7475486152174,-0.0021516214189347825,-0.008543055984695654,-0.0593839935623913
800,400.25052422608695,-0.027038067580689135,0.08844151704026088,-0.003013185840108694
801,400.75349984347827,0.011028535985630434,0.037230709325413044,-0.0796835837162174
802,401.2510083711111,0.023498091436599998,0.020752885612133336,0.00030998654199999957
803,401.7485169043478,-0.019931329329326085,0.00583604108369565,0.029365601745434778
804,402.2514925978261,0.019387070251760872,0.04649917975565217,-0.076679882805
805,402.74900118222223,-0.042226343688266665,0.03683562808377778,-0.024163903125664448
806,403.24650978478263,0.13587290956323914,0.018313024356260872,0.02063793721586956
807,403.74948553043475,-0.04315729439882609,-0.008447812952391304,-0.04252613108347826
808,404.25246130217386,-0.23139786330847825,0.05204960574160869,0.03195567752843478
809,404.74996996444446,0.26494345930022223,-0.09627882639355556,-0.11903346380968889
810,405.2474786369565,-0.03044275744558696,0.046785354612434785,0.10639265308678261
811,405.75045446086955,0.02302033551802174,-0.01194054147104348,-0.05635616053647826
812,406.25343029565215,-0.1345430690330435,0.05165401748716956,0.06271843287913044
813,406.7509390133334,0.10744180546193333,-0.03570736779002222,-0.05634847216977778
814,407.24844774347827,-0.016509034062434782,0.043265881745000005,0.03542095681436957
815,407.75142362173915,0.0038747897640217365,-0.06760662534597608,-0.0440552649346087
816,408.2489323777778,-0.030941139982888888,0.03192613389804444,0.060738913217555555
817,408.74644115434785,-0.020291923178260868,-0.044451941613630426,0.018122279122147825
818,409.24941706521736,0.037940649885000004,-0.11781309997886957,0.07537888443782609
819,409.7523929956522,-0.04474947504673913,-0.020520915152826086,0.02930384096132609
820,410.24990182,-0.0661529885448889,-0.24767736857937778,0.18608551024895553
821,410.74741066304347,-0.1344021714251152,-0.4739831945152174,0.2304925918599348
822,411.2503866673913,0.038727594462130435,-0.12404725862847826,0.05757026049789131
823,411.7533627021739,-0.05513312246708696,0.07314365843286956,0.10606245371586956
824,412.25087164444443,0.06559776729966667,-0.11201178233151111,-0.09604799482257778
825,412.7483806369565,-0.05762370254851739,0.21716760552260866,-0.05884902373830434
826,413.25135681086954,0.027479941431326087,0.2590553760552174,-0.20935072069586957
827,413.74886590222224,0.08558691607182223,0.10299528969484444,-0.16036207411722223
828,414.24637504782606,-0.059751423804063036,0.07576546462176087,-0.05549116756173913
829,414.7493513913043,-0.34778900251676087,0.23079771580652172,-0.0030355038846086903
830,415.2523277565217,0.36420290459695653,-0.21671923343391303,-0.46277221909347827
831,415.7498370488889,-0.5484973647504444,-0.3860271559744445,0.04944073358866667
832,416.24734641086957,0.42700593528391734,-0.2547379680297826,-0.261713338921087
833,416.75032295434784,0.25031795061304346,-0.8912227542136957,1.3902868395737173
834,417.25329955217387,-0.43309561395,-0.42462844951369566,-0.8257128985173914
835,417.7508090688889,-0.4134860383435556,0.15933098268222218,-0.5848008897577778
836,418.24831861739125,0.5238630413630435,-0.06216118648326087,0.3363821195230435
837,418.75129537173916,-0.309903300276087,-0.1132390292073913,0.04832273981217392
838,419.2488050466667,0.24619914423697778,-0.09025109608977779,-0.3775719324584444
839,419.7463147804348,-0.16632802588804346,-0.10749191824721087,0.2029460305873913
840,420.249291723913,-0.17062154800695653,-0.5262094321467391,0.40136566370586957
841,420.7522687347826,-0.18834732666717394,-0.22474997976869562,-0.00251177083717391
842,421.2497786644444,-0.08084323539688888,-0.2899536821562222,0.1672649171651111
843,421.74728863913043,-0.023963451386608693,-0.07593210365739131,-0.1303994863071739
844,422.25026582608695,0.14188362204000002,0.12555628237802174,0.06276948555547826
845,422.75324305,0.10312146207518261,0.16039409844823913,-0.3506931014723913
846,423.25075317555553,0.12061846256015556,-0.03622181150918667,0.23238529631199997
847,423.74826333695654,-0.12223236521876085,0.03832538231130435,0.3377327193391304
848,424.2512406717391,0.10631035234784782,-0.39387967275108693,-0.7496776891752175
849,424.74875088888894,0.034199246439333336,0.2275767220213111,0.1621696366224889
850,425.24626113913047,0.030123683436413043,-0.037536693648695656,0.508814283026
851,425.74923820652174,-0.26893970823565216,-0.4481749275360217,-0.10876201546291304
852,426.25221514782606,-0.06716554576913043,0.12269671067415218,-0.00020292530478260973
853,426.74972547333334,0.5493992302162223,0.07003395292444445,-0.2732055134102222
854,427.2472358130435,-0.2070253621056522,0.41646902457391305,-0.29507261772445653
855,427.75021333043475,0.5629156322618782,-0.002909660335000001,-0.09346506905734348
856,428.2531908652174,-0.27533886160452176,0.4228941046647826,-0.1450412791476087
857,428.75070127555557,0.42801412707711106,-0.0688049210408889,-0.23075758616666664
858,429.2482116956522,-0.25101989458869567,0.3487015496022174,0.06272195733086956
859,429.7511892543478,0.20075734541652174,0.017117749086782607,-0.06697615332830434
860,430.24869968,-0.12774075335715554,0.14377642737431112,-0.025067996973288896
861,430.7462100826087,0.055186745914565224,0.03331965985191304,0.0064814090726087025
862,431.24918764565217,-0.08129080546947827,0.08423849810108695,-0.02731776237323912
863,431.75216518043476,0.12131380678516956,-0.05257387783465001,0.05684566497913044
864,432.24967555999996,-0.08981698751111113,-0.012470711600022222,-0.12324830162700001
865,432.7471859173913,-0.021749709941521738,-0.011807120364173916,0.031165164489999987
866,433.2501633934782,-0.10919238821276088,0.07510180058763044,-0.0412068574373913
867,433.7531408456522,0.12787206259952608,-0.09466233460697826,-0.04260925624986956
868,434.25065113777777,-0.14751504858402223,-0.0163577821488,0.07860663732222223
869,434.74816138478263,-0.04583535149291304,-0.09031448156823914,0.07285423901219565
870,435.25113874999994,-0.0524815411693913,-0.049135094107999995,-0.014180276704304346
871,435.7486489488889,0.014961760569533333,0.05035281711477777,-0.016712474821555558
872,436.24615911086954,0.07394886696752175,-0.03917967754904565,-0.016985945073978267
873,436.74913638695654,-0.0786680183943913,0.07447965248686957,-0.008644684501108694
874,437.2521136282609,0.21731685068956522,0.12576928345923913,-0.08372972322073913
875,437.74962370222227,-0.0559409201173111,0.06826124191308222,-0.031723615857444445
876,438.2471337347826,-0.0446730625412174,-0.13879833014413043,0.02321472375611957
877,438.75011088043476,0.10729562198652173,0.209860076078,-0.037015417349434795
878,439.25308800000005,0.09387673016397827,0.09881285999606523,-0.0663659468968913
879,439.7505979311111,-0.019933818775488887,-0.05043927299153334,-0.007883029512866664
880,440.2481078456522,-0.18925574648526086,-0.01548419828304348,0.0968956843728261
881,440.7510848630435,0.24372518079108693,-0.06819946868958696,-0.13677136794108696
882,441.24859469555554,0.08748182455789778,0.09110525978952223,-0.081398932144
883,441.7461044869565,0.08983354334804348,-0.09070500083326305,-0.04153925439358696
884,442.24908139347826,-0.14566582699986957,-0.11204664603293478,0.1236943991273913
885,442.75205825434784,0.031614659924260866,0.013591341353217391,-0.02118136572356522
886,443.24956794444444,0.1455459462296,0.11865764193209778,-0.12605809104906668
887,443.74707758478263,0.12864548226826086,0.16218869582804346,-0.11766415056952173
888,444.2500543260869,0.1325374284311087,0.08685662435602173,-0.00431418420369567
889,444.75303102826086,-0.05332008522858696,-0.02283278755498261,-0.006203392279130434
890,445.2505405466666,-0.24967710176466665,-0.28877914216422224,0.1627066294363778
891,445.74805003043474,-0.14334587430391305,-0.20063037456739133,0.22810433222766957
892,446.25102660869567,-0.055225485051289123,-0.28607717804934785,0.08007761705413044
893,446.74853602444443,0.01070483790348889,-0.07672385109866667,0.02095119687951111
894,447.24604540869564,0.20568130197869564,0.04483580589128261,-0.05394917983452174
895,447.74902186739126,-0.058959372667304354,0.19336962700391305,-0.2109342554367391
896,448.25199829347827,0.002141486042652174,0.18899567231041303,-0.3601978654450652
897,448.74950752666666,0.12223816977624445,0.1552338282311111,-0.20836710400244446
898,449.24701672826086,0.13759357256630436,0.24970375972673914,-0.334874904669
899,449.7499930239131,-0.004464994321521738,0.06853972310430435,-0.09495398272843478
900,450.2529692782609,-0.022880139557065214,0.021178193709152172,0.010862516321108694
901,450.7504783622222,0.18330987263622223,-0.13905462688666664,-0.187650087134
902,451.247987397826,0.21887145936545652,-0.04883711234641087,-0.07862377166376087
903,451.7509635086957,0.3379832253630435,-0.16759068033391306,-0.08063570313967391
904,452.2539395956521,-0.19457710954934784,-0.07191784485217391,-0.1215595265921739
905,452.7514485222222,-0.3422375202218222,-0.23865495258355554,0.10602161089111112
906,453.24895746739134,-0.33060522182413044,-0.29984382961086953,0.17828191361447826
907,453.7519335608696,-0.15166718026506523,-0.20171417360865215,0.12187179275369565
908,454.2494425244444,-0.06907277107562,-0.07770201365044445,0.05342787636315556
909,454.74695151086956,-0.014631179364108696,-0.05525719601239131,0.042617206991673914
910,455.24992765,0.011128104249869566,-0.037242277808308695,0.03216862678548261
911,455.7529037956522,0.011783034905254218,-0.018318964087391306,-0.019052640255326086
912,456.25041283555555,-0.011494285529044444,-0.0062226825290666666,0.007774119906668889
913,456.7479218847826,0.0027970736446086956,-0.0029787395301673907,-0.015244017470326086
914,457.2508981043478,-0.002782944101478258,-0.019249542900971087,-0.001749484434999999
915,457.75387435434783,-0.014740446985326087,0.1101101584981739,0.11698696925413044
916,458.25138350444445,-0.014738199859282222,-0.14326909381833333,-0.09649865892622222
917,458.74889269782614,0.007456590781804348,0.01183302506130435,-0.09838392423478261
918,459.2518690695652,0.006037763357152173,-0.011120070586328263,0.008865097313695652
919,459.74937833555555,0.025602530596266666,-0.019473648071644444,0.03661835987333333
920,460.2468876826087,0.013010022533960872,-0.01716122419976087,-0.0015983166902608695
921,460.7498642130435,0.006762415940434783,-0.006757238637282608,0.0029533324032847822
922,461.2528407891304,0.006186922485954347,-0.008222600687693479,-0.0027584096645652183
923,461.7503502844445,-0.00269266077206,-0.0002442783781644446,-0.004425811765755554
924,462.2478598413044,0.0013265616427391306,-0.002644093140606522,0.008911184642
925,462.75083658695655,0.0003269810331413042,-0.0018163867616934784,-0.015685879665934783
926,463.2538133847826,0.0009134825035260871,0.0001421596689260869,0.013171766116913045
927,463.7513231022222,0.0075425568124,-0.002690410613577778,-0.004631063671022224
928,464.2488328695652,-0.003220450958434783,-5.694057730434801e-05,0.012037878451323912
929,464.75180981521737,-0.0008411164419369567,-0.0025945331741608697,-0.009788181469530435
930,465.2493196711111,0.004940876685344445,-0.00022452672304444472,-0.005691379971022222
931,465.74682955869565,-0.0030204067500304347,-0.0008042584293934782,0.006767231485252173
932,466.2498066347826,-0.0006313571091021738,0.0008321948675217392,3.7079272595652365e-05
933,466.7527837434783,0.00047979083803043494,-0.003244617710602174,0.0008982990095767392
934,467.2502937488889,-0.00034377616268444416,-0.00021436479392666644,-0.00012484656426222274
935,467.7478038,-3.0631194323915407e-06,-0.0002485980153499998,-0.0017972199811782609
936,468.25078101739126,-0.001362223138934783,-0.0002153541730056522,0.005660958911819565
937,468.7537582717391,0.032797565723673476,-0.0047446022855,0.041181004565836954
938,469.2512684088889,-0.046803594285155556,-0.01160742442031111,-0.06021136177754444
939,469.74877857391306,-0.07099509239452174,0.026537325070873263,-0.05586133832808695
940,470.25175594565223,-0.11238976406271739,-0.11790585518208695,0.10637306129697825
941,470.74926621111115,-0.06880351172604444,-0.06697705587015555,0.06311683654622222
942,471.246776523913,-0.07389583017330652,-0.09967658830619565,0.09839002982658697
943,471.7497540369566,-0.048231093779282606,-0.06111702711704348,0.03534949344678261
944,472.2527315934783,0.029826949473543477,0.04109318360004348,-0.014413833619130434
945,472.75024205555553,0.1058123906446,0.14797777599513334,-0.14418227937873332
946,473.24775256956525,0.07100036351798478,0.08659260169543478,-0.09741785215067392
947,473.75073026521744,0.024625412797773912,0.04623929313706087,-0.04494525038976087
948,474.2537081195652,0.01935062719611087,0.012085385944326088,0.00890391805352174
949,474.75121868444444,-0.002657983036599999,0.008030986780868223,0.012538697994444448
950,475.24872935217394,0.01004039463913261,0.003942095715630436,-0.030114588538195656
951,475.7517072304348,0.04751241466167391,0.06592676950727391,-0.053196616798043474
952,476.24921797555555,0.052428657494222215,0.07513867484555556,-0.18363415932326665
953,476.7467287630435,-0.20971725038784347,0.14995418424317392,-0.2651604362145652
954,477.2497067565218,0.10573709702889131,0.06942652619595,-0.10917438629891305
955,477.75268478260875,0.049979476705108696,0.06819307285593477,-0.002458199215999999
956,478.2501956933333,-0.009286051655511112,0.020205190449335556,0.057014571298511105
957,478.7477066413044,-0.02890793979302174,-0.055789543234,0.03268074989263044
958,479.25068478695647,-0.029930602595891306,-0.05756342928905978,0.03913184870817391
959,479.7536629717391,-0.03448736991549348,-0.03504853663414131,0.040197206583695654
960,480.25117405777775,-0.022925087479308,-0.03199086719316178,0.02672150929657778
961,480.7486851478261,-0.01385859367639565,-0.026162883510139564,0.026315129320586956
962,481.25166344130434,-0.0066013595334108695,-0.006240938017326087,-0.00960883886952826
963,481.74917459999995,0.006661929687977777,-0.005657874216044445,0.02859208849047111
964,482.24668580217394,-0.0039977379439130436,-0.00803996169123913,-0.009288518328565218
965,482.7496641869565,0.0031939686647630434,-0.0008215489651086958,-0.0005267184713043455
966,483.25264259565216,-0.0016858350993760871,0.0024158125361282592,0.007542589436065218
967,483.75015386666666,-0.04050316777355555,0.017483403947888887,-0.009322441954222223
968,484.24766515652175,-0.15611541400806522,-0.3242528749555,0.2511439530756522
969,484.75064361521737,-0.3356315998928261,-0.4264712748369565,0.3942289974391304
970,485.25362208260873,-0.19833948884117394,-0.29963777375956524,0.2532769597152174
971,485.75113348888885,-0.07627298169526223,-0.10777989493197777,0.09250746833462223
972,486.2486449282609,-0.04497581720295652,-0.029612717423941302,0.05120992660654348
973,486.75162342391303,0.050684935373326086,0.014930621438260868,-0.02959099023097826
974,487.24913475555553,0.1275644858676889,0.18208031124059998,-0.1459405687208889
975,487.7466460956522,0.12657322443231087,0.3005978439152174,-0.2641210970659348
976,488.24962458478257,0.23939160969891304,0.25497773418239134,-0.27533855644347827
977,488.7526030869565,0.1393418959876087,0.15935247877130435,-0.09201807561500001
978,489.2501144511111,-0.03562864694268889,0.03751504686597777,-0.028416644273333333
979,489.74762579130436,-0.21173533893913046,0.15916965319291304,-0.1282916068752391
980,490.25060430869564,0.03518158521443478,0.015984048009130444,-0.10328950048456523
981,490.75358280434784,-0.07908923940282608,0.0032262594830434837,0.11179488644695651
982,491.25109414444444,-0.06490967837822223,-0.004513761749006663,-0.19590895967044447
983,491.7486054869565,-0.1308872443608261,0.12159640891838673,0.14268450624630433
984,492.25158396956516,-0.037712792988043475,0.03049514602108696,-0.18203222229695648
985,492.74909529555555,0.028932833339555555,-0.04045604068317777,-0.004896111003555555
986,493.24660661304347,0.06033262026967392,-0.27999077671434786,0.17088851717130432
987,493.74958508260863,0.017249250861652177,-0.06684856829369566,-0.005846987599565204
988,494.25256354782607,0.022499618002347826,0.14519878056606306,0.1583813894628261
989,494.7500748511111,0.13897356721584445,0.024323982657955556,-0.13191955357222224
990,495.2475861434782,0.0991687470176087,-0.00911271054302174,0.035839464356999993
991,495.75056459130434,0.10638282771191303,-0.027819706047739128,-0.10997736972891303
992,496.25354303478264,0.0041609098702608685,-0.004753485971478262,0.12661135715226088
993,496.75105430222226,0.04801633821844444,-0.011143377097600002,-0.12392950055733333
994,497.24856557173916,0.08756878162367392,0.1312395075123913,-0.01516000085891304
995,497.7515439782609,0.25378030684086955,-0.19179369055641307,0.12105320851217391
996,498.24905522666666,0.2008439126908889,-0.2698640187526667,0.27547840536875556
997,498.74656647608697,0.09332225633176087,-0.1647634920886739,0.17121041337980436
998,499.24954486739125,-0.024140363800000002,-0.004217241123630437,-0.013600712234782599
999,499.75252324347827,-0.04770128607326087,0.18058890881282608,-0.10733087166976087
1000,500.25003446,0.016831714578244446,-0.003948646127975556,-0.05823124778904688
1001,500.74754566739136,-0.08742967847480435,0.0944535213913174,-0.061754838275521744
1002,501.2505240152174,0.004957292879543477,-0.014817123830195652,-0.0009256756798217393
1003,501.75350235869564,-0.22273813057352174,-0.21035742759913045,0.17125956906430434
1004,502.2510135333333,-0.3065056330612,-0.5558531019466666,0.3280054304448444
1005,502.7485247,-0.3038148873517391,-0.4120011122347826,0.3190243244228261
1006,503.25150300869564,-0.030854494679108696,-0.05617912956219566,0.05592166859413043
1007,503.7490141511111,0.0034981469319577785,-0.026122962099766667,-0.03350372314288889
1008,504.24652527173913,-0.012946559036913042,0.008363910347391304,0.07097672378556522
1009,504.7495035347826,0.0009070025823021738,0.0014196789782173914,-0.05420024498835217
1010,505.25248175869564,-0.0038856358645869573,-0.020216900370586956,0.004605365833043477
1011,505.7499928155556,-0.03439724643508889,0.01578487820091111,-0.002659479782022221
1012,506.24750385000004,0.04670295507822826,0.013499104459065216,-0.04180383682478261
1013,506.7504819978261,0.0583397940415,0.07563008432678262,-0.01831164566695652
1014,507.2534601391304,0.08480288800689131,-0.006934777550152173,0.04004023385706522
1015,507.75097110444443,-0.12443050278622222,0.017616134217308888,-0.14042729270328888
1016,508.2484820413043,-0.10759543595130436,-0.0050020839834782616,-0.05655548883054348
1017,508.7514601369565,0.10334789882499783,-0.05893406660132609,0.00923487414330435
1018,509.2489710755556,0.03808901441963555,-0.0019409497600533336,0.019462288750777774
1019,509.74648201086956,0.026852881128043477,-0.002447449642897392,-0.039080744204347824
1020,510.24946009130434,0.06801903118517391,0.03433096927341957,-0.0018038749721739139
1021,510.75243818260867,0.10698063800847826,-0.13525664288323913,0.08519248340623914
1022,511.24994912444447,-0.22685612705844443,-0.15328538683551154,0.2140274471617111
1023,511.74746007608695,0.11938389553869566,-0.11509347998213043,0.013291877258478258
1024,512.2504381630434,-0.27744713166891305,0.16315877956652172,-0.21615388082082826
1025,512.7534162652174,-0.2407097641486087,0.14795659935897826,-0.23383542765570217
1026,513.2509272333333,-0.03186095223977778,0.255805163918,-0.12585820093711111
1027,513.7484382065217,0.08421581659943696,0.03531700631902174,-0.05479779449978261
1028,514.2514163695652,0.16452760282711304,-0.1598656903165913,0.04846211101326087
1029,514.7489273866667,0.27520447613666665,-0.5202365186357778,0.39574104942488886
1030,515.2464384326087,-0.24672078566173913,-0.364579817546087,0.2344051444002174
1031,515.7494166434783,-0.17109792037630436,0.6206321561065218,-0.5432127040730435
1032,516.252394871739,-0.4215881836140435,0.36666674724830434,-0.4645673554932609
1033,516.7499059644445,0.3514792846304444,0.3781528154946666,-0.15218429569
1034,517.2474170630435,0.13481184395776086,0.23717535060376085,-0.34403587422173915
1035,517.7503953369566,-0.31313494059086955,0.37077349164630435,-0.11544589381086956
1036,518.2533736217391,0.2354404970040326,0.14009043444543479,-0.22664027627402175
1037,518.7508847488889,-0.13422761661675556,0.21388955646113333,-0.17583934995764444
1038,519.2483959021739,0.1314974224778261,0.16003412786086957,-0.029886784744130434
1039,519.7513742239131,0.00446092985469565,0.16246181467847826,0.044072213375369554
1040,520.2488853911111,0.03960506121422222,0.1028492026848889,0.01086845397822222
1041,520.7463965826087,-0.07911254530043478,0.08907713059885436,0.04246865147919565
1042,521.2493749456522,0.16135474601541305,0.14461465503852172,-0.05173985854673913
1043,521.7523533108696,-0.07970125714054348,0.2748785226173913,-0.1268064353801087
1044,522.24986454,0.025655939515811108,0.05809694926072222,-0.06466926999177777
1045,522.7473757782609,-0.009865805671782607,-0.0792083947547361,0.08634391038386957
1046,523.2503541869565,0.0053554013750217394,-0.08873715608217392,0.002638111933869566
1047,523.7533326043479,-0.012718689829369564,-0.0208203999879,0.012796267214130432
1048,524.2508438755556,0.0516023478611111,-0.044911003116000006,0.009842703081777775
1049,524.7483551521739,-0.07767666778686957,-0.08169279927782608,0.07667380831043479
1050,525.2513336282608,-0.09204617822245653,-0.00861388704,-0.03876729633145652
1051,525.7488449888889,-0.11819782456153334,0.08668926026924444,-0.007661692300328891
1052,526.2463564304347,0.11280224051221739,0.042846130288565216,-0.10178655126804782
1053,526.7493351434783,0.09811201141135652,0.023968883183478264,0.05117134427108696
1054,527.252313976087,0.053922726081782606,-0.0481365141655,0.00301393218982609
1055,527.7498257866666,0.2713443183811333,-0.1692131254324,0.08356276617793333
1056,528.2473377152173,-0.09473407462630436,-0.011544662974630434,0.023094488222130435
1057,528.750316926087,-0.02665960334745652,0.007699904237586958,-0.016495269281673913
1058,529.2532962369565,-0.15764250606780433,0.24944641279021737,-0.10503578185789131
1059,529.7508084711111,0.0956486531371089,0.11656271616493334,-0.06600377823476666
1060,530.2483207804347,-0.018332310014413045,-0.06216609995867391,0.04538948639263043
1061,530.7513003130434,0.053403432605456526,-0.1324090387523913,0.03223120647869565
1062,531.2488127177778,-0.006776489149799997,0.06382055282377778,-0.012328741272222214
1063,531.7463251500001,0.041254894886608696,0.06044764104263043,-0.04722383747308478
1064,532.2493048,-0.009339456325,-0.1224398820316739,0.06261732266978261
1065,532.752284473913,0.04433099989847826,0.014377075692586954,-0.03634830143369565
1066,533.2497969955555,-0.02929167813946667,0.09674034118444445,-0.03673596911811111
1067,533.7473095347826,-0.0009676075512826079,0.09922542779341305,-0.027278941609760864
1068,534.2502892543479,-0.023032714491695652,0.009882916577173913,0.005579523418260873
1069,534.7532689760869,0.02976788450991087,-0.05440511910789131,0.010452291238847826
1070,535.2507815133333,-0.014122614595143333,0.11478070152777776,-0.054082510202155556
1071,535.748294023913,-0.018346997707608694,0.06871650530021739,-0.03065479320006522
1072,536.2512736913043,0.026322158135652172,0.029447659203282607,-0.036807215727173916
1073,536.748786168889,-0.021957302757733336,0.09911255306537778,-0.027412340376533333
1074,537.2462986304348,-0.012121009435413043,0.06287658732869565,-0.03852416121395652
1075,537.7492782326087,0.00994905894373913,0.0878614757376087,-0.05793380737160869
1076,538.252257823913,-0.01501400509895652,0.06223977130219565,-0.01357725392152174
1077,538.7497702177778,0.018069828214918666,0.019356049431966667,-0.008871205643333331
1078,539.2472826065217,0.04428411825806521,-0.034804116122507396,0.04060736946408696
1079,539.7502621347826,-0.10783674147060869,0.021447274995313046,-0.09658253711304349
1080,540.2532416543479,-0.032480423864241305,0.006624045578819565,-0.007427143009347825
1081,540.7507539844445,-0.029252722527955556,-0.012602074942799999,0.006119770474155555
1082,541.2482663021739,-0.0010778929895673916,0.004291990531326087,0.01946282387119565
1083,541.7512457630435,-0.007156379846413044,0.007578279659152177,-0.03541894581382609
1084,542.2487580577778,-0.006738040181104445,-0.09269771576004446,0.047585127089555555
1085,542.7462703434783,-0.013432686743652177,-0.16558069768545652,0.09603125116191304
1086,543.2492498108696,-0.01167100408673913,-0.2588855391033261,0.2290882649621739
1087,543.7522292956521,-0.00011628347858695351,-0.21857053300586957,0.11499363441630435
1088,544.2497415977778,0.0020368364127955558,-0.14724159240717777,0.11629675758991112
1089,544.7472538891304,-0.02436624402491304,-0.05261894930965217,-0.04309427220760868
1090,545.2502333630435,0.022526524633695654,-0.07186161953634781,0.12810594101636957
1091,545.7532127804349,0.03903291277269565,-0.05684699182723913,0.03050595780747826
1092,546.2507250088888,0.025947401253691108,-0.007655376858477778,0.01677343580612889
1093,546.7482373347826,-0.006748463791704348,-0.023258831187565217,0.008589744567934782
1094,547.2512168630435,-0.007564994944456524,-0.020791914156847828,0.05704168651791304
1095,547.7487292288889,0.034916661173066674,-0.017755879291422222,-0.09290267097666666
1096,548.2462416173913,-0.07394489256347826,-0.2903860496376326,-0.179541225035
1097,548.7492212,0.13714247941260868,0.2556385786644348,0.11267513817565217
1098,549.2522008065217,-0.265675382445,0.03148677037826087,-0.024236855307891304
1099,549.7497132955556,0.41921602489464443,-0.05802104737533334,-0.006762599952444445
1100,550.2472258173913,0.076248879665,0.0048682171433043495,0.030170544331117388
1101,550.7502055695652,0.04297720867268696,-0.0006302232306608692,-0.039060914002076084
1102,551.253185371739,-0.03189719678815217,0.010267288790282608,0.021664121877913046
1103,551.7506980666667,0.19127559365252444,0.05241289138173333,-0.1930912865631111
1104,552.2482108173914,-0.26258925544189127,-0.2700590154423913,-0.12072979882065217
1105,552.7511908195652,0.17540888713993477,0.20023915041667392,0.09772098580130435
1106,553.2487037266667,0.006696621577422223,0.0005292998426488877,-0.004796451993333336
1107,553.7462166869566,0.011437410894173912,0.009872322495552173,-0.017617692114608695
1108,554.2491968782608,0.0022597092629130433,0.00038614480591304343,-0.013220403493199997
1109,554.752177126087,-0.02389412211504348,-0.21093635973414782,0.13894104957204348
1110,555.2496902755555,-0.015213767690466668,-0.4101729604888889,0.25022939045955556
1111,555.7472034934782,-0.018087775813426087,-0.25811561293891305,0.14993153447342392
1112,556.2501839521739,0.002173360272126086,-0.09696975998656522,0.06100289717956522
1113,556.7531644782608,-0.006106551576748479,-0.06873729954273913,0.05681251442869566
1114,557.2506778844445,0.0030730062067777773,-0.08189356061853334,0.045871416728955554
1115,557.7481913565217,-0.01741876938969565,-0.06265466109646804,0.045291962830326084
1116,558.2511720913043,0.005381590645986957,-0.1881496284323913,0.12274339925178261
1117,558.748685708889,-0.006009426381217778,-0.07615733676646667,0.04530120425877778
1118,559.246199373913,-0.05330901560276087,-0.0035099983188369567,0.03190123516782608
1119,559.7491802847826,-0.00023162106358695522,-0.04812168038789131,-0.0021495611730217444
1120,560.2521612543478,-0.20387384425173916,0.23383663011341305,-0.1424645444471739
1121,560.7496751,-0.16329490608526667,0.33722529941466667,-0.26408967972266667
1122,561.2471889608695,-0.18681529553304346,0.40862622468913046,-0.25430030408973914
1123,561.750170076087,-0.07145081655309783,0.08239893291225217,-0.08321795255956521
1124,562.2531512326087,-0.208908819642963,-0.10731755131973912,0.09946577445818479
1125,562.7506652622222,-0.04203618367255778,0.13707104788977778,-0.041351021661155556
1126,563.2481793195652,-0.034093887911760865,0.15417458700279998,-0.06845520889586956
1127,563.7511605956522,-0.019385309322434784,0.06875395774876086,-0.10225979142258697
1128,564.24867472,-0.12827877203488888,0.12598448858822223,-0.08234760496022223
1129,564.7461889021739,0.06146487205019565,0.022166811903173912,-0.09383803865152174
1130,565.2491702956521,-0.025392781134969563,0.16313995485623914,-0.16479894389230434
1131,565.7521517391305,0.4164681797456087,0.3101865104995652,-0.27555710339115214
1132,566.2496660177778,0.3389279524488889,-0.017764748472,0.4873702366998
1133,566.7471803630434,0.33074651075869566,-0.26502443396152175,0.35565123350521743
1134,567.2501619086956,0.30600883390717387,0.006261556046685,-0.028789509901565213
1135,567.7531435108696,-0.17604213694115217,0.39771263495652176,-0.06159300390239131
1136,568.2506579644445,0.09305975436913333,0.41034757826133333,-0.2935348192733333
1137,568.748172476087,-0.02846756188491304,0.22490535611891302,-0.11976083464804348
1138,569.2511542173913,0.12552029671469564,0.010570629784543477,-0.02694712515043478
1139,569.7486688355556,-0.06006407207844445,-0.0007647514367111086,0.01914983325644445
1140,570.2461834891304,-0.01554593314152174,0.05193075926936956,-0.02175656608326087
1141,570.7491653978261,-0.055960085084500004,0.011335217425456519,0.058699670049434785
1142,571.25214735,0.16306033859047825,-0.06058777933540218,-0.12167679745497828
1143,571.7496621666667,-0.18988962968097778,0.012112882402222221,0.07401283052088889
1144,572.2471770652174,0.19479250907682608,-0.01973584423684783,-0.020698547328913044
1145,572.7501592543479,0.030417105427434782,-0.0812505224467826,-0.021016162371760874
1146,573.2531415673913,-0.003540484801471741,-0.0386913548335,0.03765520842276087
1147,573.7506567866667,-0.0828562789456,0.024200778531888893,0.08170128928822222
1148,574.2481721086957,0.17564719656217392,-0.08644266750506521,-0.0910425704427174
1149,574.751154747826,-0.05540447390217391,-0.00022136646882608545,0.029835390020652167
1150,575.2486702799999,-0.07781369420877778,0.013412655727777776,0.052954652569333335
1151,575.7461859217392,0.11100531661063043,0.010952928793057612,-0.02552672052230435
1152,576.2491688543478,-0.0020845351016260875,-0.04135999472469565,-0.05236863053443478
1153,576.7521518652173,0.060219966847694345,0.002376577129881303,-0.04037169788413044
1154,577.2496677533334,-0.007328356635866665,0.02860887315562222,0.032933266956804666
1155,577.7471837086956,0.032082272616260864,-0.03758872073828261,-0.01515666298565217
1156,578.2501669652173,0.016277214755760872,-0.027059461757586955,-0.04100244978173913
1157,578.7531502739131,-0.03015624440304348,0.29574457459615217,-0.0941009417913261
1158,579.25066646,0.11323210795257778,0.387058024936,-0.11417806414451111
1159,579.7481827130434,-0.005562078699130434,0.2297496173695435,-0.060124977778217396
1160,580.25116625,0.032375026003913045,0.03560641538810869,-0.07417629076065217
1161,580.74868266,-0.05473931364995556,0.027203724110222222,-0.010062620335977789
1162,581.2461991130435,0.1240024695973913,-0.06122003431043479,0.06214786612391304
1163,581.7491828695653,-0.07601461203612826,-0.044963764103906526,0.012566462813478256
1164,582.2521666826086,-0.05008556013673913,-0.026220435685304348,0.07458423530917392
1165,582.7496833377778,-0.005964696405222227,-0.023457670213111115,0.015085951478622227
1166,583.2472000847827,-0.028609851133978265,-0.017802725665369567,-0.011420021898043477
1167,583.750184102174,-0.02929616751456521,-0.047510820889782604,-0.07657687559326087
1168,584.2531681717392,-0.027323893871521742,-0.01612467869167391,0.08151907505913043
1169,584.75068508,-0.034493940403711114,-0.021740606099066664,0.03529542287055555
1170,585.2482020391304,-0.016007081323913038,0.009139600008434782,0.03252156921173913
1171,585.7511862717391,0.025037593167543476,-0.06047390855154348,0.044317566796304345
1172,586.2487033266666,-0.026351997581777774,0.04486163457091111,0.024320612993711112
1173,586.7462204347827,-0.09534264906613042,-0.07509408826443478,0.044066553530717395
1174,587.2492048065218,-0.05796224138978261,-0.06917220094652174,0.08470408812461087
1175,587.7521892217392,0.08733700410502174,0.37791904159304346,-0.21213451673555217
1176,588.2497064688889,0.04950819280208889,-0.0008632130106222238,-0.01107841067737778
1177,588.7472237630435,-0.06591147702863044,-0.008798174240239131,0.020214713136586956
1178,589.2502083195652,0.027187160820991308,0.280221597005,-0.13786278600009566
1179,589.7531929282609,0.012082637650173915,0.0877610289547826,-0.057071478468847824
1180,590.2507103577777,0.01365328497517778,0.2083698802576444,-0.10847584407255556
1181,590.748227823913,-0.007772860317652172,0.1427950755423913,-0.05400509419717391
1182,591.2512125804348,0.02851689380432609,0.05483196092315652,-0.030717258868434783
1183,591.7487301177778,-0.029247661433233332,-0.26975218454733335,0.14100068410277777
1184,592.2462477304348,-0.023036634145008696,-0.16110056378804347,0.09314246799880434
1185,592.7492325782608,0.012958327063519563,0.0731189458300587,-0.04622766245456522
1186,593.2522174673913,0.01666392968608696,0.14034035931580435,-0.07286603554615217
1187,593.74973516,0.011707070137066667,0.15084857940537777,-0.07003040313511111
1188,594.2472528586957,0.008867459452465217,0.04465901333273913,-0.021000001745760867
1189,594.750237823913,0.0019813983376521737,0.02936802739747826,-0.011334813163826086
1190,595.2532228086957,-0.007959772712065218,0.07256978490936956,-0.031203301051847827
1191,595.7507405511111,0.016656214660244445,0.19798496034333332,-0.06718301772706667
1192,596.2482583108696,-0.010885246420326086,-0.1991677284223913,0.06185510884304347
1193,596.7512433217391,-0.017236161484630436,-0.4619154100804348,0.20234912374034783
1194,597.2487611044445,-0.033298130825906665,-0.3268045319455556,0.18560656441666668
1195,597.7462788978261,-0.005992978811297826,-0.1967209733073913,0.08927726745126086
1196,598.2492639108696,-0.00956078456756087,-0.06223514805686957,0.037009861159369564
1197,598.7522489217391,0.006296512873408696,-0.043777621311352176,0.015607585078045653
1198,599.2497667622222,-0.0017492254571999993,-0.01628954145714667,0.008782535130253333
1199,599.7472845891305,0.0034533415129565227,-0.00882540578476087,0.010715111439204348
1200,600.2502696826087,0.02029299476689131,-0.0028388811165217425,0.007699531059108694
1201,600.7532548,-0.04950858717258695,-0.018585547158152173,-0.011540817184521737
1202,601.2507727044444,0.006011056897444443,0.002033933001911111,-0.0073222478263111086
1203,601.7482906260869,0.001443535741282609,0.0005314661108913044,-0.009635261863369564
1204,602.2512758152174,-0.05092238926384783,-0.03360178159673717,0.024323235384006527
1205,602.7487937755556,0.24598360625844443,0.03893166648695555,-0.014828766718444445
1206,603.24631175,-0.20220707161934784,-0.03599433794497826,0.023242286990478277
1207,603.7492969673913,0.013999371742782613,-0.01804113387915217,0.035429788650195644
1208,604.2522822,0.06664028285732608,-0.09509439053413044,-0.3359594966326087
1209,604.7498002022222,-0.014467148651111107,0.05047786500773333,0.3157767613917778
1210,605.247318223913,0.009905028929695652,-0.01575343504913044,-0.18869630154358696
1211,605.7503035021739,0.17102449127978261,0.11985620207947827,0.03534050608630435
1212,606.2532887934783,-0.10549994269608697,-0.09636185480252825,0.09918204598913043
1213,606.7508068177777,0.061894420816911114,0.006785445742322222,-0.08128499983244444
1214,607.2483248239131,0.025863037388673914,0.02045579578891304,0.017585225727239133
1215,607.7513100456522,0.008034334231326087,0.01201285486676087,0.010968975400652177
1216,608.2488280177778,0.007863587140466668,-0.0004045274520222228,-0.011674488913311113
1217,608.7463459695653,0.0031961468234652174,-0.008598172145756523,-0.025870955503239132
1218,609.2493311130435,-0.012585167005456522,0.00561339958947826,0.030306857561304346
1219,609.7523162326087,0.02754581735695652,-0.002013838807434783,0.008394894387000003
1220,610.2498340777778,-0.015900076430888886,-0.019689083095444444,-0.005275938259511107
1221,610.7473519152173,-0.004805937314130433,0.00922145014226087,-0.06803705380282608
1222,611.2503369152174,0.08587737121776087,0.002625475759815216,-0.03864269671469565
1223,611.7533219108695,-0.047825850463478266,-0.0044611847894130445,0.02855325781776087
1224,612.2508396622222,0.03258911545346667,0.006399027510311113,0.009025499551422225
1225,612.7483573434782,0.04363325562380435,-0.024387660234500005,0.02788430711102174
1226,613.2513422369566,-0.04462380189415217,0.035813694420434784,-0.07976264538834782
1227,613.7488598822222,-0.04828689497022222,-0.005751207137622222,0.06343206831444444
1228,614.2463775065218,0.12397276933430434,-0.08992914531549565,0.2222564946226087
1229,614.749362323913,0.020314760183260873,-0.34045060820476086,0.06102722624869565
1230,615.2523471478261,0.025795030201739125,-0.2451490837602174,0.14335988916586956
1231,615.749864728889,0.0763440628784,-0.20598219765422224,0.1606514824548889
1232,616.2473822978261,0.006973433111673915,-0.13677420823695652,-0.12966664977504347
1233,616.7503670956522,-0.05278904630820652,-0.14435919472045652,0.36326338935804353
1234,617.2533518956523,0.018027318079995656,-0.3062517850305,0.2437988986478261
1235,617.7508694844444,0.09199889790982221,-0.4310930252111111,0.4574832174852
1236,618.2483870847826,-0.023265301041086955,-0.3136816128514783,0.3483583926970652
1237,618.7513719347826,0.009937307220456522,-0.22772786928021738,0.20047807694434785
1238,619.2488895533334,0.007673047649133335,-0.19194304148555558,0.22130463917555557
1239,619.7464072108696,-0.016808286673228257,-0.09626309768058695,0.1630170552651739
1240,620.2493921217391,0.0062533513391086985,0.0777209737998913,0.03000443914695652
1241,620.7523770413044,0.0755267572242674,0.016524802082608692,-0.017411677770217394
1242,621.2498948022222,-0.021471079835777788,0.12954432168888888,-0.20116082297466664
1243,621.7474125673914,-0.08558459255900652,-0.2406331559847826,0.13622652963826087
1244,622.2503975826087,-0.02551120078484783,-0.06824844816544999,0.050054239188282605
1245,622.7533826652174,0.04543728381217391,-0.11187941096271739,0.06523096043176087
1246,623.2509005177777,-0.04827481506271113,-0.30962930259466664,0.33582927914
1247,623.7484184108696,0.1347623814028261,-0.06022269829567391,0.015549867049347828
1248,624.2514035673913,-0.1017887373695652,0.20780177738277827,-0.17138588947652175
1249,624.7489215155556,-0.023396276515777772,0.4852506001737778,-0.6493377156104445
1250,625.2464395065217,-0.07877998863043477,0.3625466408821957,-0.26137137411869565
1251,625.7494247760869,-0.05428762636913044,0.3849414224232609,-0.28804295995369567
1252,626.2524100934783,-0.005866620530086961,0.20802095661934783,-0.23279392196891308
1253,626.7499282111112,-0.03586942651777777,0.10547438727133333,-0.14470853804822223
1254,627.2474463695652,-0.16180967069065216,0.14566427729086956,-0.12893745171608692
1255,627.7504317956522,-0.045999501057826075,0.17318446741373913,-0.07079416768195651
1256,628.2534172695651,0.06894648389065218,0.03976377196913044,0.08280039873282607
1257,628.7509355466666,0.08239690056851111,0.027722623616682224,-0.15425273045266666
1258,629.2484538543479,-0.07100793329043478,0.13508556198652172,0.0028886794713043435
1259,629.7514394260869,-0.034739976994130436,0.1598306220469565,-0.15793905050326087
1260,630.2489577933334,-0.07323096792428889,0.1699932734168711,-0.09026262497244444
1261,630.7464762021739,0.01059975539762826,-0.008470079170934786,0.006241435590369564
1262,631.2494618630435,-0.10860753513586957,-0.21510545067821737,0.02677653145965217
1263,631.7524475391305,0.25859213685934784,0.3111067336702174,-0.12529354512434784
1264,632.2499659933334,0.2185990166180667,-0.0015701611885333335,0.12799806596133334
1265,632.7474844760869,0.0273456245105,0.11179577786186956,-0.1208751823625
1266,633.2504702021739,0.06231724944782609,0.1191287144396739,-0.021189865848326096
1267,633.7534559391304,0.023287768846804353,0.07036403987395652,-0.03013248027745653
1268,634.2509744377778,-0.03628950780755555,0.11974498960606444,-0.030874591413133333
1269,634.74849295,0.026929135879782608,0.00013771264436956493,-0.003044833304260868
1270,635.2514787130435,-0.06787772767695652,-0.20348811149108698,0.1744889798353478
1271,635.7489972444445,0.0389471266054,0.12215102513774,-0.06918684641404445
1272,636.2465157826086,-0.025003078518869563,0.18039786296932608,-0.10291927793513045
1273,636.7495015826087,0.019775491202521738,0.00987584694906522,-0.06449001768565217
1274,637.2524873978261,0.03336687790267392,0.02989610382,0.047915417217608704
1275,637.7500059911112,-0.016250210631977777,0.009372912511782223,-0.017795817048133336
1276,638.2475246282609,0.0017887814691021741,-0.0003413324747391309,-0.04509959013167392
1277,638.7505105347826,-0.009199994412902176,-0.007499518599173913,0.04178735484489131
1278,639.2534964847825,-0.01503872944130435,-0.03064299665717391,-0.04619697901913043
1279,639.75101524,-0.019698045483582224,0.088514412774,-0.034345552662
1280,640.2485340695653,0.1970596945145652,-0.261086212525,0.07968308614739131
1281,640.7515201869566,0.3673530480217391,-0.4061716794980435,0.12084852093163044
1282,641.2490391333333,0.4165374848537778,-0.24809821975866667,0.029315291511111112
1283,641.7465581847827,0.24090598846703692,0.0714508968876087,0.14717197414869568
1284,642.2495445804348,0.33425599271147827,-0.2185800801219565,0.09184680817108695
1285,642.7526738369564,-0.0009052863619565231,-0.17928740253826084,0.10492416049282607
1286,643.2502106733333,0.23079195553088888,-0.16448142793713333,0.009248044760866665
1287,643.7486156636364,-0.03803359513771818,0.02903700958676136,0.14800783722136363
1288,644.2520298369565,0.24018715872758695,-0.2096515427502174,-0.0649419038173913
1289,644.7504290422222,-0.03716759282844445,-0.09127986695875556,0.35750848981435557
1290,645.2479520217391,0.007575704676869567,-0.02623223221708696,-0.05461699030782609
1291,645.7509665847826,-0.07855718453782609,-0.02302845665130435,0.0679644605472174
1292,646.2495510955555,-0.3248976873064444,0.049276097611422216,-0.00024946000688888433
1293,646.7470821565217,-0.0532671582476087,-0.10497558634673912,0.08595324599404348
1294,647.2500726891304,-0.09267476849565216,-0.26610621161532605,0.11358577273782608
1295,647.7530632804348,0.03870591132349999,-0.12853152855076086,0.08356009357502174
1296,648.2505867177778,-0.08149104780466666,0.18120532565702221,-0.13666951921113332
1297,648.7481103195652,0.19610582226821738,0.18415310072063046,-0.2354740889270652
1298,649.2511013891304,-0.0476349410823913,0.17009385772273913,-0.05805940213499999
1299,649.7486253977778,0.059341663788444445,-0.004627503291333332,-0.07434549330844444
1300,650.2461496521739,-0.03412101968206521,0.04830437121323913,0.04320176788123913
1301,650.7491415195652,0.047969709273999996,0.06673114195804347,-0.3318742461925435
1302,651.2521337021739,0.027081663191565217,0.0974698481302174,-0.08651831876228261
1303,651.7496589066667,-0.02328233586490667,0.0219180530976,0.027288479277199996
1304,652.2471844804348,-0.0012552129254347832,0.02538449867878261,-0.023176556047391307
1305,652.7501990760869,0.005702727514347824,0.02271147396541304,0.025954723360652174
1306,653.2487876977777,-0.07394543224484444,0.007386091021222222,0.03773735894177778
1307,653.7463242565218,0.05896314072086957,0.04865504347532609,-0.09667340568891304
1308,654.2493187391304,0.010538172463456523,0.15073276602543478,-0.022760100989347824
1309,654.7523136391304,0.047420093549021734,0.04266538827026087,-0.03644248713478261
1310,655.2498416266667,-0.06540980869053334,0.04823176065653334,0.03474694355446666
1311,655.7473700739131,0.04775644774891304,0.01876420560065217,-0.025743515588695646
1312,656.2503663065218,0.05792882779271739,0.2618081776940652,-0.17620942903413045
1313,656.7533629891304,-0.0473699971373913,-0.13482029541768045,0.12846598416902175
1314,657.2508927644444,-0.038969596226800005,-0.2312950452217778,0.17591777377340664
1315,657.7484229891305,-0.05326938110758696,-0.11970203855358695,0.1674638623845652
1316,658.2514210391305,0.013543553976369565,0.07721128671171738,-0.037187400081652174
1317,658.7489521555556,0.009144548577155551,0.18976867463711114,-0.2253828790247111
1318,659.2464837304348,0.15466949343606523,0.15060180166267392,-0.17996006425717392
1319,659.7494831391305,-0.09794780612232609,0.18169941072869567,-0.02372932436097826
1320,660.2524829673913,0.09402445347643479,-0.11414676127108696,0.1033862777373913
1321,660.7500158755556,0.008492230044333332,-0.21391050551191113,0.08427984449704444
1322,661.2475491934782,-0.014810501235564566,-0.017650656075217392,0.023942138838956514
1323,661.7505503434783,0.06740165922652175,0.0838758738078413,-0.08357867987043478
1324,662.2535519347826,-0.02238877311878261,0.02260443438567391,-0.042252696083043474
1325,662.7510865111111,0.11687142452357778,0.2806788762431111,-0.2589892069413333
1326,663.2486215065218,0.05896448959354348,0.19917823957065217,-0.16795153203402174
1327,663.7516243108695,0.059520153893565214,0.10121653391004347,-0.10095859610695458
1328,664.2491602177778,0.03191999594626667,0.019218487212904443,-0.057976298860799996
1329,664.7466962260869,-0.04723447302165217,-0.29006387876826084,0.27111510608515216
1330,665.2497001347826,-0.06923094650976087,-0.24631476402304348,0.2049619840478261
1331,665.752704376087,-0.03077927620371739,-0.12114348619147827,0.08713136548245651
1332,666.25024148,0.0038623094552111105,-0.01019710964666667,-0.017213832008755557
1333,666.7477789369565,0.0011613926126021732,0.07118454187208696,-0.011343385861086963
1334,667.2507841500001,0.09632898154186956,0.28500299868826084,-0.26129520458310873
1335,667.7537896499999,0.02571002426195652,0.21134422136434783,-0.1316373659226087
1336,668.2513279755556,0.009701189725533332,0.07276760736588889,-0.05032598707408889
1337,668.7488665847826,0.030675634096152173,0.03152455454350652,-0.06151624347652174
1338,669.2518728804348,0.023320360029152176,0.10305237770391305,-0.06201592735869565
1339,669.74941198,0.020251487361422224,0.055088488263844444,-0.05236120224311112
1340,670.2469513152174,0.005321272040456522,0.021047301919043478,-0.016486748410434782
1341,670.7499583217392,-0.015579406334434782,-0.05393338203613043,0.05038712334417392
1342,671.2529655586957,-0.05723482499622391,-0.2902530898195652,0.19861372657306522
1343,671.7505055288889,-0.08175146049982221,-0.3534593794104445,0.28500423429688887
1344,672.2480457,-0.03675009504455652,-0.2068704936826522,0.18422723852717393
1345,672.7510535304348,-0.027991313004067393,-0.128096984777,0.09941799744245651
1346,673.24859406,-0.0022262480509288893,-0.04630810419584445,0.038656118177977775
1347,673.7461347630434,-0.004295529231130435,-0.01642412724752174,0.022086184959782606
1348,674.2491431195652,0.004537657550519566,-0.01533154819395,-0.005884740666282608
1349,674.7563654659091,-0.007838082585636364,-0.0022285634836590905,0.011171850289545452
1350,675.2484391478262,0.003148494855434783,-0.011766184933347825,-0.018969629120952174
1351,675.7514479108695,0.013010577012934782,0.002965719803108696,0.020877153976630432
1352,676.2489892755556,0.004211934411488889,0.005148262450400001,0.05020623737882222
1353,676.7481379934783,-0.0018025209068695644,-0.007434782773434782,-0.04586077772617392
1354,677.2507935088888,-0.00097873475818,0.002886644998377778,-0.007811917195355555
1355,677.7483352847827,-0.00021744163178912974,-0.0009489577744869572,-0.007551265800456523
1356,678.2545935522727,0.002791320735295455,0.0015906312248681817,0.013805833731443184
1357,678.7498200913044,0.0006456401040891309,0.00037974896656521714,0.007775721331521739
1358,679.252829773913,0.004457561864773914,0.0003605096252021746,-0.008064601731695651
1359,679.7503720977778,0.0029004719532222216,-0.0004080242585466668,-0.0060806168431711115
1360,680.2479146000001,0.0003112424976869562,-0.002088474190652174,-0.003104375755108695
1361,680.7509247326087,0.0018037104089932607,0.004565228586760869,0.00528954423123913
1362,681.2539350608696,0.00035867872381086934,-0.00042320334376956477,0.0012815102291869572
1363,681.7514780111111,0.006154598130000001,-0.0016877810159111111,0.011098416645888889
1364,682.2490211347827,0.007179483126065215,-0.0004476360648695654,-0.024411201479347822
1365,682.7520319065218,-0.0042479763865869566,-0.00036706095061956614,-0.013181790069817389
1366,683.2495753333333,-0.0010144988706199997,-0.0018610106568600004,0.027891159057755556
1367,683.7471188673914,0.010791637326152174,0.0008393059599565217,-0.014293981634326085
1368,684.2501300130434,-0.015425543422065216,-0.0734584435172913,0.061555499613065216
1369,684.7531412804348,-0.031104480438195654,-0.22614927914347827,0.18387131068608695
1370,685.25068514,-0.0209775315384,-0.07115829255851111,0.07962903976568889
1371,685.7482291434783,-0.0066362204750239125,-0.01868297742673913,-0.0126620582935
1372,686.2512408108696,0.009184499153704347,0.03474286327943478,-0.027059606892563048
1373,686.7487851333333,0.00928564568715556,0.07953890694313333,-0.05427834193706667
1374,687.24632965,0.026739548723717393,0.06250883185245652,-0.0764692140705
1375,687.7493418565217,0.003097714938690217,0.024672808855302174,-0.016488230747108697
1376,688.2523542217391,0.01217100606878913,0.022587693254897824,-0.0265098343655
1377,688.7498992088889,-0.3897220355336223,0.5424039469704444,0.18237984977369998
1378,689.2474442934782,0.5791345977817391,-1.1400536972928261,-0.07969876991847825
1379,689.750456976087,-0.25062771206334783,-0.13792771879173915,-0.21073668937586956
1380,690.2534697282609,0.1183076546223913,-0.03349909575151087,0.06451902182215218
1381,690.7510149822222,0.03858480387370311,-0.09076978895457777,0.06139738295338222
1382,691.2485602695652,-0.062193900343586954,-0.35266050048478265,0.27925567004556523
1383,691.7515731152174,-0.16768340702167392,-0.4926414904416739,0.24272921810905304
1384,692.2491184111111,-0.04384927219602222,-0.2766384654611111,0.3245988104101778
1385,692.7466637195652,-0.23596751690106524,-0.37168137922608696,0.26789237105025
1386,693.2496765326088,-0.0743958172525,-0.09560610936480435,0.09420297456115216
1387,693.7526893195652,-0.02915502631278261,-0.07505826328323914,0.05941163974789131
1388,694.2502345466667,0.018469773400431107,-0.033183643554666666,-0.00914334191324445
1389,694.7477797369565,0.03971009667783913,-0.04225341650826086,0.04461378636578261
1390,695.250792423913,0.00015459371476087092,-0.003271320585999999,-0.0146624316305
1391,695.7538050608696,0.06478888575218043,0.0941567939267174,-0.030300192209565213
1392,696.2513501355555,-0.0375199371026,0.07816430197711112,0.054653178324
1393,696.7488951652174,0.17479066746380437,0.09995918170739129,-0.058817531748869556
1394,697.2519076804348,0.10652718077567826,0.27022871763369566,-0.2863970528480356
1395,697.7494526311111,0.14805382887335555,0.36655754512555555,-0.18009389242054222
1396,698.2469975326087,0.04114247405708696,0.33014556635760867,-0.14600732015782608
1397,698.7500099304348,0.2196805127304348,0.16561795317732608,-0.042415235353478256
1398,699.2530222804347,-0.09872692951434782,0.04138075786919566,0.04084198370632608
1399,699.7505670488889,0.0938749975563111,0.02105083465866666,-0.19643818538937777
1400,700.2481117847826,-0.24154586895393476,0.17859520082847827,0.22234303022347826
1401,700.7511239782609,0.026396639964347823,-0.012305228585891306,-0.11239823050913043
1402,701.2486686066666,0.17061375909355556,-0.02608250511902222,-0.08767268922746667
1403,701.746213173913,-0.16096677987434782,0.11862903055934783,0.018659964847369568
1404,702.2492252021739,0.09319384460560869,0.011362096532173915,0.007546849875391302
1405,702.752237173913,-0.018007055572500003,-0.024610509045847825,0.12301604644741305
1406,703.2497815488889,-0.004696922829199997,-0.49091795816022227,0.13843252394222222
1407,703.7473258695652,-0.5729158805743478,-0.5227735249956522,0.35692116489586956
1408,704.250337623913,0.06394784864913043,-0.1669601357536739,0.0691196503833913
1409,704.7533493304348,0.024706721300869566,0.10878995190430436,-0.08762634319154348
1410,705.25089344,-0.06150311364644444,0.1398744795049111,-0.07514595455973333
1411,705.7484374739131,0.06985915743936956,0.031026788386739126,0.017784678416030434
1412,706.2514489652174,-0.01798256583399565,-0.029433074208521526,-0.04302011365104348
1413,706.7489928555556,-0.05220821168473334,0.07485374874468889,0.003827296356977777
1414,707.2465366826087,0.10352063697421739,-0.26915126261826083,0.17850296393836956
1415,707.7495479565217,-0.22743146834208694,-0.22608308169534783,0.1256718220841304
1416,708.2525591630434,-0.005982673685434785,0.12464318068308695,-0.06585971168893477
1417,708.7501027777778,0.0451040956666,0.15112033420022222,-0.13266832563759998
1418,709.2476463282609,0.11008239828508697,-0.00941521188195652,-0.0035149118178260832
1419,709.7506573239131,-0.02448427676454348,-0.003142854440695652,0.0024413233278260805
1420,710.2536682456522,0.01471199678630435,0.0011791975623695653,0.006049653767608702
1421,710.7512116066666,0.0031954765326444442,0.14821280373166668,-0.07865771187942222
1422,711.2487549,0.09989039794886957,0.15458957008691304,-0.10355710983402173
1423,711.7517656217391,0.0068732448265217405,0.04056678647534783,-0.06034647900141304
1424,712.2493088066667,0.057020288044444443,0.10177193747715556,-0.022326808508444446
1425,712.7468518956522,0.013605242191413045,-0.0023366057362391307,0.030367156740391303
1426,713.2498624391304,0.011142906936460868,0.14149930166323912,-0.15408388428586955
1427,713.7528728978261,0.09176749768612173,0.09955095208402175,-0.08214328600230435
1428,714.2504157866666,0.028087955047377777,0.03621776368648889,0.048153972624222226
1429,714.7479586543478,-0.15857104115776088,0.023451276442500002,0.10977326268689132
1430,715.2509689152174,0.23042787934630435,0.0013874821031391303,-0.05520453659913044
1431,715.7485115733333,0.13865403069767557,-0.001082272003466669,-0.3603070364797778
1432,716.2460541913043,-0.03128040614369565,0.11755157553717391,0.0478168259476087
1433,716.7490642,-0.09181346064391305,-0.15057724455682608,0.0012932756538913054
1434,717.252074176087,0.12477523347130434,-0.09478598055734784,0.17862200735195652
1435,717.7496165555556,-0.03684386147366667,0.0002830187473333347,0.05004465315066667
1436,718.2471588782608,0.08227250887715218,-0.06930547175747609,0.0003433227666521726
1437,718.7501685956522,0.034972232316847825,0.055491043181108694,-0.04159660961505652
1438,719.2531782434781,0.012034644247541306,0.05948511414126087,0.028021656944130436
1439,719.7507203488889,-0.05392599635799333,-0.049009280738000004,-0.10115434857816889
1440,720.2482623630434,0.10367760969586957,0.1192702210452174,-0.07175317017673913
1441,720.7512717891304,0.03363031408106521,0.13351220670502173,-0.016000301938021735
1442,721.2488136555555,-0.12184455130133333,0.03869496451088889,-0.022950077058444446
1443,721.7463554173912,0.15444552379782608,0.0771217864471739,-0.1696224108912174
1444,722.2493645934783,-0.03989788760272,0.11349981763830434,-0.002168676123891304
