Time_interval,Time,Acceleration_x,Acceleration_y,Acceleration_z
-1,-0.001141458313,1.019380188,3.781885529,8.702902222
0,0.2495009753669592,0.36305013540909803,3.192554925387755,9.266336676244897
1,0.7457732517,0.7535240386945801,0.8895970733948001,9.86841752026
2,1.247058282,0.888719897416,0.8545250060652001,9.59680434244
3,1.748343932,0.46861550908379995,-1.962368234222,9.478687966919999
4,2.249629187,-1.3485606536644,-3.85507433166,8.9197413023
5,2.750914322,0.677814477544,-4.18933822626,8.93975169058
6,3.25219982532,2.39896233218,-3.391530276444,8.900745803780001
7,3.753485548,4.55406676944,-1.954946667512,8.4668580781
8,4.249758503918367,5.333100576632653,-0.9427701116983673,8.185742965979593
9,4.746030988,1.0569281067864,-0.39392383106544004,9.182468957160001
10,5.24731684718,-0.455673422254,0.454472918706,9.83490520934
11,5.748602527,-0.33874856873,0.61052939758,9.8220409609
12,6.2498884095000005,-0.20997136230594,0.576367437744,9.83281555476
13,6.751174472,-0.19703825683800003,0.5729096283039999,9.834216641220001
14,7.252460552820001,-0.227098745726,0.5683111907939999,9.83377356268
15,7.753746713000001,-0.23581062928600002,0.5721252593980001,9.830630099479999
16,8.250020098306123,-0.24120351674285714,0.569660283310204,9.832447198367348
17,8.746293927,-0.235936367802,0.57150854187,9.8380576538
18,9.247580387000001,-0.223455322271,0.587621035762,9.83273771664
19,9.748867112000001,-0.225964105228,0.589234680178,9.8251335297
20,10.2501537676,-0.217321078486,0.5805587219239999,9.83130070496
21,10.751440370000001,-0.180719192502,0.580789242556,9.833974145500001
22,11.2527271332,-0.178267291268,0.577840374754,9.835255480959999
23,11.75401409,-0.1469314544628,0.563105017088,9.83104623414
24,12.250288105510203,-0.14584874678267346,0.5782811316632652,9.831158042428571
25,12.74656209,-0.14398258667105598,0.56151831664,9.83274370422
26,13.247849089999999,-0.1793031372021,0.549848583976,9.835557852160001
27,13.749135670000001,-0.209172024536,0.533134341432,9.83388433228
28,14.25042283,-0.19610120544659998,0.3499033721898,9.85017345892
29,14.75171016,-0.219344869988,0.07131470031836,9.85604724434
30,15.25299746,-0.220719012448,-0.05727389831738,9.86340594172
31,15.75428546,-0.238660702514,-0.1036444702198,9.86972280578
32,16.25056009265306,-0.2413196018755102,-0.1034135218987755,9.867339944632652
33,16.7468341234,-0.23440654907199998,-0.1014590148924,9.86626499626
34,17.24812181,-0.230900839234,-0.1020398071294,9.86680088194
35,17.74941007,-0.22876328430200002,-0.1073657318104,9.87113886108
36,18.25069791,-0.24010370178399998,-0.108156088254,9.86474715278
37,18.751985830000002,-0.233271908572,-0.10240205383739999,9.8675463318
38,19.25327381,-0.22255419616400002,-0.10370434570340001,9.86724096676
39,19.74954811387755,-0.22524792106530614,-0.1014034162267347,9.869258404061226
40,20.2458234,-0.234373617556,-0.111365414432,9.865887780740001
41,20.747112287599997,-0.22621857604999998,-0.1097876953098,9.87122268672
42,21.2484006,-0.238076916506,-0.1082608703648,9.86453160094
43,21.7496893724,-0.218069522094,-0.1060095520076,9.86848637696
44,22.25097788,-0.226053918462,-0.1082099761982,9.874482907059999
45,22.752266195,-0.248674877938,-0.11590397643879999,9.86319937136
46,23.25355485,-0.25340803528399997,-0.1146944915746,9.859175738520001
47,23.749830740612243,-0.23622713050408162,-0.10993567330448979,9.868396930265307
48,24.24610669,-0.242489739992,-0.11094628601340001,9.87350993046
49,24.747395670800003,-0.25732389220999996,-0.1128802642846,9.861226474
50,25.24868471,-0.25216861268199997,-0.111140881345,9.8696719116
51,25.749974272600003,-0.275567953486,-0.1152213958718,9.857101052860001
52,26.25126354,-0.249345483398,-0.1123264160163,9.88174879764
53,26.75255298,-0.277085797116,-0.11535611572620001,9.859421228039999
54,27.25384248,-0.284013391114,-0.11622431030319999,9.86525010682
55,27.75011894653061,-0.26953439829795917,-0.10967295432204081,9.870437584795917
56,28.246395670000002,-0.260374548344,-0.1088207061816,9.874012884459999
57,28.7476848148,-0.328300296022,-0.12150832214759999,9.853843826259999
58,29.24897461,-0.276981015018,-0.12437635802559999,9.87839277656
59,29.750264835,-0.268846929928,-0.13400433654580002,9.86067861324
60,30.251554860000002,-0.35119069519199997,-0.1217867431646,9.86503754892
61,30.752844675800002,-0.32953373108199996,-0.1242446319622,9.85827461244
62,31.25413477,-0.2743405059768,-0.09490264892980001,9.88179669786
63,31.750412057755103,-0.3667098718755102,-0.11377564723122448,9.845662574020409
64,32.24668933,-0.32295940246,-0.1099792968726,9.88107519838
65,32.74798205,-0.366443975834,-0.1122785156248,9.87857240294
66,33.24927251,-0.369443737794,-0.096210928345,9.8553796325
67,33.7505605884,-0.326078915394,-0.06666836242759999,9.8873022492
68,34.25185105,-0.41960143432400004,-0.07773934020942,9.853146276899999
69,34.7531416868,-0.354441934214,-0.0462388458252,9.88552394714
70,35.24941944306122,-0.38495967630816325,-0.036658462212585716,9.873605486836734
71,35.74569777,-0.39496267090399995,-0.028488757323058,9.86968388674
72,36.246988630000004,-0.39274428406,-0.014178515624862,9.86978866884
73,36.7482797132,-0.39786363829599997,-0.004622387695102,9.851155416860001
74,37.24957072,-0.41026385193000003,-0.0015657440181979997,9.866031481919999
75,37.75086182,-0.410952420044,0.016974700928098,9.85332889712
76,38.252153,-0.43097178954800003,-0.0264080841064,9.85560117188
77,38.7534435016,-0.40991358031799996,-0.05539081420966,9.86682183844
78,39.249721894489795,-0.45490402222040816,-0.04669982598704082,9.84785291710204
79,39.7460032054,-0.452353326422,-0.034458343505962004,9.857463299580001
80,40.2472949,-0.464493081666,-0.0195613220213,9.85019740904
81,40.7485845496,-0.46801974792,-0.012184661865574,9.85012555842
82,41.24987622,-0.475483227542,0.0008382568359119998,9.85599036256
83,41.75116804,-0.505283258064,0.006313870239728,9.86661826166
84,42.252459900000005,-0.484970498658,0.006831793212058001,9.84135080572
85,42.753751975200004,-0.522437585454,0.025093817138658003,9.92785591732
86,43.250031070612245,-0.5262047312244897,0.016022802859216326,9.763584277061225
87,43.746310124800004,-0.5268593902540001,0.033305740356384,9.87851851504
88,44.24760234,-0.555177502444,0.042433758546216,9.84600911858
89,44.748893715200005,-0.5742179077139999,0.047864465333000004,9.856095144480001
90,45.250185959999996,-0.534469564818,0.05671406250252,9.79664776614
91,45.7514788476,-0.567176550296,0.0580103668217,9.88186854832
92,46.252771380000006,-0.536900509646,0.020537292480340003,9.88865244114
93,46.7540639646,-0.585115246576,0.0007544311521800001,9.828034497019999
94,47.25034365979592,-0.6274156905163265,0.001056985659504082,9.826584899204082
95,47.7466229668,-0.575142984004,0.02536026306058,9.85329297186
96,48.24791561,-0.6725304657,0.012340338137060002,9.84136577444
97,48.7492090774,-0.6447901519760001,0.027003845214219998,9.83733316036
98,49.25050196,-0.671578445432,0.040745269775266,9.880503387480001
99,49.7517945828,-0.698923580932,0.041625439453528,9.875141537540001
100,50.25308758,-0.730379168698,0.026207501221908,9.84298241276
101,50.74936809061224,-0.7482450368408164,0.038726610455669386,9.903317170693878
102,51.245648339999995,-0.792999948118,0.0047960266110600005,9.75401342464
103,51.7469412672,-0.7636220397939999,0.03807781677244,9.9327956452
104,52.248234540000006,-0.73843840942,0.032219000244634,9.83285447374
105,52.7495280996,-0.7743307708720001,0.03076103210686,9.87957531734
106,53.25082157,-0.826048223876,0.025767416381918,9.80247365084
107,53.752114723599995,-0.788176977552,0.041005728149636,9.7120556763
108,54.25340825,-0.751685861216,0.0590252563532,9.83555785204
109,54.749689565102045,-0.7189029927081633,0.07683919167580204,9.881603141530613
110,55.245970420000006,-0.5603058380120001,0.09911488952452001,9.84340453476
111,55.74726381679999,-1.0053693237599999,0.021477337647480003,9.7163996433
112,56.248557659999996,-0.878840441886,0.01751956787414,9.82581012248
113,56.749851369999995,-0.901123104818,0.05843548278724,9.87080655224
114,57.251145269999995,-0.6757517669659999,0.08205636291728,9.898166656439999
115,57.7524392132,-0.726553124988,0.069114276120446,9.75269017662
116,58.25373321,-0.689157888806,0.11062595214,9.97204402804
117,58.750014318979595,-0.6994617882469388,0.054358389718432654,9.710997713163266
118,59.24629546999999,-0.8991053008919999,0.05092709655738,9.77401183762
119,59.747590192,-0.745638436876,0.08011340332318,9.8257502467
120,60.24888453,-0.6782096557580001,0.12446617126684,9.89546627212
121,60.7501786,-0.725903475958,0.054807028200500006,9.75750117174
122,61.251472940000006,-0.728726605206,0.12084071043744199,9.88637417918
123,61.75276788,-0.7607390350459999,0.11139834594802,9.91887160036
124,62.25406232,-0.8222551117124,0.045795767216380005,9.713387906100001
125,62.75034348591837,-0.8495506971530612,0.05920341647142857,9.779753713693877
126,63.24662499,-0.7896499145420001,0.088289401242754,9.765593344000001
127,63.747919247999995,-0.7205326446879999,0.10048005065742,9.9159856018
128,64.24921381,-0.786722003214,0.07174580383002,9.768263790879999
129,64.750509205,-0.83214354859,0.06403683471722,9.748498892059999
130,65.25180408,-0.6545977569418,0.09236991577404,9.8147511202
131,65.75309885200001,-0.91549621581,0.08481662292656,9.820208770919999
132,66.2493808077551,-0.8049740071204081,0.08503541284765306,9.751334241020409
133,66.745662,-0.8793433959399999,0.11216774597336,9.77374239796
134,67.24695704,-0.798646206664,0.07861052856865999,9.7464481567
135,67.748253079,-0.991295590206,0.11267070007748,9.80699425042
136,68.24954833,-1.03752545469,0.1072130493217,9.75726765744
137,68.750843144,-1.006399182184,0.10686577148477999,9.76659326494
138,69.25213845,-1.058667489624,0.12780123596444398,9.81347876588
139,69.753434208,-1.15242352298,0.07835605773908,9.73961336984
140,70.24971678142857,-1.1291508981959184,0.10278421829632652,9.815581251142858
141,70.74599951479999,-1.0599697814940001,0.1286305114754,9.81993633744
142,71.24729518,-1.130754583788,0.09627978516198199,9.81030835898
143,71.74859082,-1.2172147888,0.10068063354717999,9.80761695568
144,72.24988677,-1.140652002042,0.1142843444824,9.87544091482
145,72.7511823,-1.20074603576,0.08811276855439999,9.81035326536
146,73.25247807,-1.14204111335,0.100048947142602,9.787546692040001
147,73.753776879,-1.082923049928,0.09303752746343999,9.79755787336
148,74.25005999836735,-1.046153084810204,0.12320909149183674,9.79452707397959
149,74.74634126480001,-1.01780845643,0.1167871398858,9.8007791748
150,75.24763691,-0.91909772647,0.11635603637671,9.8465450043
151,75.7489319244,-0.861632226614,0.14598242798428,9.81316741332
152,76.25022788999999,-0.969851184062,0.15413447570576,9.829714004480001
153,76.75152516520001,-0.896515686064,0.12040661316036,9.829249969400001
154,77.25282172,-0.9275820831180001,0.15133529663519998,9.8842665617
155,77.7541169448,-0.977311669922,0.10705437927493,9.67921696462
156,78.25040035367347,-0.9659596439408162,0.15345537769511428,9.832942087530613
157,78.7466840276,-0.9161488586266,0.138644686890522,9.7666621216
158,79.24798071000001,-0.859773092642,0.15204182738832,9.65811384868
159,79.7492770148,-0.92974059452,0.1918410644534,9.90753717034
160,80.25057377,-0.833903887978,0.1930595306383,9.88821535014
161,80.7518709452,-1.0265802154596,0.162915216061804,9.80134499816
162,81.25316804,-0.8410859528,0.12661869506818,9.798698501599999
163,81.74945240714285,-0.7621233196691837,0.18848559321020408,9.80806626634694
164,82.24573683,-0.941688748216,0.17146543578999002,9.81901126088
165,82.74703398940001,-0.883651437382,0.1778661254879,9.81666114808
166,83.24833124000001,-0.81387553707328,0.17273180236882,9.82882784758
167,83.74962899239999,-0.777123962406,0.18465899963382001,9.81605939924
168,84.25092644,-0.7525001678719999,0.21403690795671998,9.833821463
169,84.7522232632,-0.832712365764,0.17063316650008,9.816436614719999
170,85.25352068000001,-0.757868005376,0.2164708465546,9.87805448004
171,85.74980635632653,-0.8265230731387755,0.17081926929851426,9.676563197530612
172,86.2460913,-0.89056106881544,0.13993200988566,9.61670396124
173,86.7473893518,-0.5367627960332,0.22304816895416,9.586975781260001
174,87.24868737000001,-0.704084848032,0.2913421508802,9.7950341217
175,87.7499847732,-0.576355462648,0.28467501525620004,9.78683716738
176,88.25128280999999,-0.45062292480160004,0.45225153808400004,9.72814721376
177,88.7525814912,-0.29176726684672,0.579642626954,9.72189022518
178,89.25387981,-0.41244631347026,0.593949874882,9.76998221746
179,89.75016589,-0.4926133603522449,0.5593225969571429,9.807415578367348
180,90.24645145000001,-0.230137426759302,0.591665624998,9.7926720337
181,90.7477499108,-0.3047333038308,0.6060537048319999,9.79525865478
182,91.24904875,-0.34499657592379995,0.59318346863,9.802584420639999
183,91.750348045,-0.42205632934009996,0.6191963745319999,9.82428329794
184,92.25164728,-0.6320396667528,0.567236425782,9.85594845004
185,92.75294582619999,-0.84777703852,0.53229907837,9.845179843
186,93.25424489000001,-0.939718844564,0.577286526484,9.83004331956
187,93.75053140102041,-1.0408223334985307,0.46745343579183674,9.681997814367346
188,94.24681754,-0.9814879852299999,0.574640029904,9.8594272155
189,94.7481177836,-0.941616897572,0.5100194091720001,9.75397749944
190,95.24941697,-0.984721261586,0.5626888824480001,9.8048357389
191,95.7507169056,-0.7794471313879999,0.5189049316359999,9.919347610480001
192,96.25201692,-0.771902819844,0.576223736574,9.776754135360001
193,96.75331723080001,-0.8850884491140001,0.516575775144,9.74136472774
194,97.2496045144898,-0.9646124454183673,0.537284751422449,9.957257042918368
195,97.74589228999999,-0.58772881164238,0.515498016362,9.72233929124
196,98.24719235,-0.34234409180279995,0.604176608274,9.8226187593
197,98.74849329,-0.6353567688194,0.548366665646,9.81496667182
198,99.24979399,-0.5434628631751,0.599623077396,9.83441123666
199,99.7510949592,-0.6978637847691,0.523817715454,9.76496465144
200,100.252396,-0.4707141448958,0.577780499266,9.8713843504
201,100.75369680399999,-0.576175836182,0.544828024292,9.79760278018
202,101.24998516326531,-0.47640726519387755,0.5453373936265307,9.793800014489797
203,101.746273746,-0.52426378786162,0.599245861814,9.887389068520001
204,102.24757541999999,-0.639772586048,0.518363058472,9.78176571348
205,102.748876936,-0.6531248199313999,0.577660748292,9.82586101688
206,103.25017874,-0.5495851318386,0.56223083496,9.8315940948
207,103.75148074,-0.671746096836,0.525730737304,9.7900764311
208,104.25278296,-0.51216295170202,0.57516693421,9.8016353943
209,104.754084968,-0.5788522705102,0.57294255982,9.8515535891
210,105.25037420612244,-0.4993982307244898,0.5886402021142857,9.84484692312245
211,105.74666347799999,-0.5030888214066,0.569017721558,9.79432160336
212,106.24796582,-0.5430287658692,0.595033621216,9.873261447119999
213,106.749268298,-0.5665538451856,0.57662789612,9.90429191886
214,107.25057096,-0.690244628908,0.5828549469,9.91610235904
215,107.751874108,-0.530484851076,0.572358773806,9.9808636873
216,108.25317718000001,-0.555282284548,0.580316226192,9.92839779064
217,108.7494674877551,-0.6322759916081633,0.5619436770081633,9.973735021714285
218,109.24575778,-0.661980404666,0.587953344728,9.95471606092
219,109.74706132,-0.52129396363096,0.542202484138,9.93262200624
220,110.24836504000001,-0.6041227203596,0.633288070684,9.95258449372
221,110.74966832800001,-0.5446753417970001,0.559799890138,9.96345488898
222,111.25097202,-0.39748342894842,0.592821221922,9.94033396942
223,111.752276248,-0.46896278687474,0.565613800044,9.79371087324
224,112.25358036,-0.5999583801299999,0.556689358526,9.81167351984
225,112.74987130408164,-0.5837921204857143,0.5805111881183673,9.822301968938776
226,113.2461626,-0.489206689456,0.596994543452,9.847913159019999
227,113.7474675,-0.62007355040572,0.5541805755660001,9.80638052684
228,114.2487723,-0.5713558593806,0.601122958378,9.804793826400001
229,114.75007719999999,-0.572295904542,0.566215548708,9.86263354832
230,115.25138224,-0.61743004761,0.58451349793,9.82039737844
231,115.75268703,-0.5373256256237999,0.578948071296,9.78845979316
232,116.25399228,-0.52646121825,0.602748577886,9.8420273984
233,116.75028504489795,-0.577074457277551,0.5833125056040817,9.818984378387755
234,117.24657773999999,-0.559344836422,0.5924140686,9.82799857184
235,117.74788326,-0.5635451019300001,0.584154244996,9.83179168408
236,118.24918912,-0.49256271057,0.572852746588,9.84123704212
237,118.75049500000002,-0.510028390508,0.614065045164,9.867046371579999
238,119.2518012,-0.7121470824912,0.559919641116,9.80843724938
239,119.75310773999999,-0.60218874210672,0.5318320495559999,9.72077354736
240,120.24940112244899,-0.577547962430204,0.6242538981530613,9.831512407428573
241,120.74569488000002,-0.53356843866,0.5807353546139999,9.86800437942
242,121.24700148,-0.630976876794,0.578349316412,9.84176993418
243,121.74830777999999,-0.65347209784882,0.577747567754,9.7698924041
244,122.24961448,-0.573421563729,0.5597519897459999,9.8491346192
245,122.75092166,-0.6174150787414,0.55389916077,9.8202297272
246,123.25222878000001,-0.626049124136,0.569385955812,9.8321958434
247,123.75353588,-0.58508231508318,0.564356414794,9.8093563384
248,124.24983,-0.6157705190244898,0.5469931341591837,9.81378498632653
249,124.746124436,-0.458319918826,0.527476107788,9.85558919666
250,125.24743196,-0.581480804446,0.500304611208,9.8082067291
251,125.74873922799999,-0.640254583732,0.50296907044,9.83167792048
252,126.2500466,-0.781195495632,0.46097839050399997,9.81665516064
253,126.75135426000001,-0.718296295162,0.45065885010199996,9.80459923098
254,127.25266174000001,-0.49789462278655994,0.4594815032974,9.79843504934
255,127.75396989999999,-0.4855063842738,0.526039096068,9.859517028740001
256,128.25026449591837,-0.6139803641126734,0.4840138960857143,9.820380454469388
257,128.74655871000002,-0.5373974761958,0.45348197938,9.8232085328
258,129.2478663,-0.535322790526,0.498256869506,9.83798879688
259,129.74917392400002,-0.619456832862,0.444886853024,9.87227350184
260,130.25048176,-0.759059527596976,0.4266368042,9.79922241212
261,130.751789914,-0.6440716461116,0.43356739197599997,9.84041375428
262,131.25309792,-0.34988840330446,0.44778482666,9.80776365056
263,131.74939298979592,-0.3307662496728163,0.4742658000020408,9.835196582816327
264,132.24568802,-0.5895789642106,0.443883938602,9.861744396919999
265,132.746995478,-0.609646234123,0.4189877105736,9.734494015620001
266,133.2483035,-0.44018363342,0.40853644408999995,9.90131910124
267,133.749612014,-0.3873524963378,0.420933663944,9.86295088778
268,134.25092048,-0.597120281965,0.38525386048,9.79773749998
269,134.75222922999998,-0.49521818847026,0.477956085198,9.82844165034
270,135.25353784,-0.5599795166214,0.579555807498,9.821430230559999
271,135.74983298979592,-0.6749617160224489,0.5445095233612245,9.78089623589796
272,136.24612848,-0.4710943542466,0.5962281372120001,9.82981279922
273,136.74743718,-0.439432196046332,0.698950524904,9.8394886779
274,137.24874598,-0.729519955488,0.763846572864,9.80619790656
275,137.750054708,-0.595608425892,0.872619378654,9.78926811212
276,138.25136366,-0.728846356216,0.836173168938,9.83523153088
277,138.75267275800002,-0.69745962524,0.817333346554,9.80093185732
278,139.25398188,-0.75324861146,0.821371948234,9.75965070208
279,139.75027804081634,-0.7672524495163264,0.8101459051673469,9.765099493489796
280,140.24657428,-0.73861204833,0.8120643036040001,9.81202079774
281,140.74788367600001,-0.731352145382,0.834517611696,9.7915673308
282,141.24919322,-0.725771749858,0.8053462738080001,9.7764487701
283,141.750502932,-0.7322682403580001,0.832368081664,9.85211941242
284,142.25181262,-0.6080146270662,0.804861282364,9.76480598156
285,142.753122568,-0.823422683738,0.831284335326,9.80547640688
286,143.24941931632654,-0.7788670723106123,0.8116275180061224,9.79302713177551
287,143.745715596,-0.771645355222,0.789464300532,9.7738860994
288,144.2470254,-0.7529252837939999,0.8652457122939999,9.79187568954
289,144.748335664,-0.713865509064,0.8849926483139999,9.7942557403
290,145.24964577999998,-0.797789987194,0.845477819852,9.78879808952
291,145.75095549600002,-0.7517457367,0.889225845328,9.78889987798
292,146.25226544,-0.74838971562,0.853911282346,9.77634099414
293,146.753575808,-0.6940377411058001,0.8939111022820001,9.80508422236
294,147.24987293469388,-0.8061990107226531,0.881800979322449,9.798220413877551
295,147.746169852,-0.940078097562,0.85830314944,9.787370059339999
296,148.24748,-0.7641429565519999,0.8665330352780001,9.79524667978
297,148.748790146,-0.633716180416,0.8912167053100001,9.808604901019999
298,149.25010048000001,-0.7644303588820001,0.874909616092,9.74556499332
299,149.75141041,-0.82261735841,0.86802992249,9.7843313781
300,150.2527206,-0.738890469352,0.8800349579,9.8308516388
301,150.754031092,-0.7379324615539999,0.887414611806,9.78567258908
302,151.2503283755102,-0.780269258444898,0.8607590219918366,9.801977906510205
303,151.746625788,-0.700636019918,0.894336218272,9.79761774898
304,152.24793626000002,-0.8472860595439999,0.816513052368,9.75416311346
305,152.74924666,-0.717568807984,0.851857553098,9.84139870602
306,153.25055712,-0.78065062864,0.817192639162,9.78410983892
307,153.751867956,-0.8807624450375999,0.8073730590699999,9.81303868078
308,154.2531785,-0.7098508575464,0.659884762562,9.72862921142
309,154.74947595510204,-0.6158927138802041,0.8091255779979591,9.831106109551019
310,155.24577338,-0.736615200798,0.872586447148,9.78312488718
311,155.747084052,-0.754883212282,0.882669479366,9.8080390777
312,156.24839468,-0.752443286132,0.8649433410660001,9.81540076908
313,156.749705428,-0.696121408082,0.87385580749,9.74629547422
314,157.25101614,-0.7240772735580001,0.722155270386,9.84869752802
315,157.752326746,-0.7551526519799999,0.798098345948,9.73301209718
316,158.25363742,-0.767454071046,0.9212203125099999,9.82663041692
317,158.74993515918368,-0.6879479762469387,0.916003324544898,9.805836209591837
318,159.2462328,-0.761777874756,0.880439117432,9.75685152286
319,159.74754305599998,-0.7391389526359999,0.909571536274,9.82037043438
320,160.24885362,-0.744608578488,0.8904652679420001,9.76918287964
321,160.750164584,-0.737013372802,0.904712640382,9.80562609568
322,161.25147542000002,-0.77029815676,0.899644180292,9.777640292500001
323,161.752785848,-0.76809773252,0.8885402709979999,9.80107855224
324,162.25409658,-0.7639543487480001,0.90578740538,9.79139967952
325,162.75039487142857,-0.693462019942857,0.9136205244673469,9.944325770571428
326,163.2466929,-0.801939358508,0.8575876373360001,9.64392934582
327,163.74800360400002,-0.779306423962,0.8960426696739999,9.81797840892
328,164.24931452,-0.779132785038,0.8855045837359999,9.802329950099999
329,164.75062584,-0.811142221064,0.894491894536,9.83215692432
330,165.251937,-0.72650223083,0.899278939812,9.71191197518
331,165.753247628,-0.811474530022,0.901299737556,9.84768263854
332,166.2495454734694,-0.8307540706428572,0.8953462810836735,9.771578876653061
333,166.74584388,-0.8904562866000001,0.872897799682,9.75700121154
334,167.24715523999998,-0.784437753298,0.917654727172,9.8413328431
335,167.748466552,-0.958834094196,0.87991520691,9.762527719140001
336,168.24977783999998,-0.836694085684,0.8899922515900001,9.778807864320001
337,168.751089008,-0.80935793155,0.904565945434,9.767003411780001
338,169.2524002,-0.9353329651200001,0.892956088256,9.794082101499999
339,169.753711028,-0.961148281848,0.9168793396060001,9.833941213860001
340,170.2500090244898,-0.9215601364408164,0.935355937722449,9.735332822142858
341,170.7463075,-0.8300119811979999,0.839421414178,9.74035283212
342,171.24761896,-0.9252229889119999,0.819791235352,9.83826422444
343,171.74893055,-0.96892910151,0.830598760988,9.8552838318
344,172.25024208,-0.8470106323119999,0.804570886224,9.68133056944
345,172.75155324,-0.763960336296,0.8486123016339999,9.787142532399999
346,173.25286459999998,-0.62440554199,0.851046240232,9.8687198915
347,173.75417607,-0.713584094238,0.83614622497,9.70118228752
348,174.25047440816329,-0.5536130414734693,0.8821034116142856,9.840066048591837
349,174.74677265999998,-0.521886730958,0.932635574396,9.89531957716
350,175.24808418,-0.449988244624,0.920016815186,9.79333964534
351,175.74939561,-0.6107209991620001,0.9119905060060001,9.80568297726
352,176.2507072,-0.523476425166,0.9513167266799999,9.7825710388
353,176.75201888,-0.50853150329688,0.945041775514,9.80634759526
354,177.25333053999998,-0.5749214447,0.942137814302,9.83186652842
355,177.74962939387757,-0.5230887619285715,0.9651073347122449,9.781717996367346
356,178.2459281,-0.540552914422,0.945194458024,9.80246167598
357,178.74723944000002,-0.553405187988,0.9461494720499999,9.80934436336
358,179.24855100000002,-0.517776278692,0.95260704346,9.80588356018
359,179.74986316800002,-0.588893389898,0.953526132202,9.81931063858
360,180.25117515999997,-0.5435736328141121,0.942847338874,9.767350689679999
361,180.75248685999998,-0.52630254823,0.953259686322,9.804994409119999
362,181.2537986,-0.5718169006339999,0.94480227356,9.85042792962
363,181.75009751632652,-0.5207548398448979,0.9539142842081633,9.762832778653062
364,182.2463964,-0.586007391356,0.955466098016,9.79881226492
365,182.747708128,-0.5204137939494,0.93784773563,9.79511794744
366,183.24902010000002,-0.46384043884,0.9395601745659999,9.837348129219999
367,183.750332268,-0.496876739496,0.912280902088,9.76046500848
368,184.25164454000003,-0.447692019658,0.875188037116,9.88072492656
369,184.752956692,-0.557575515742,0.806909024052,9.7808705749
370,185.25426894,-0.49699050293200003,0.747276031492,9.83718347166
371,185.7505684367347,-0.5534236394102041,0.7428715172612245,9.83036988544898
372,186.24686792,-0.532421823122,0.752784576414,9.808015127580001
373,186.748180456,-0.5461243286199999,0.7388545440679999,9.81115859066
374,187.24949316,-0.535688031004,0.745327084354,9.800982751420001
375,187.75080550400003,-0.55581218262,0.746485675048,9.82915117492
376,188.25211814,-0.55110896301,0.747862811282,9.7915284119
377,188.75343058800001,-0.530619570928,0.7580805633440001,9.81557740186
378,189.24973006530612,-0.564482275522449,0.7934663048551021,9.788255422102042
379,189.74603017,-0.561500354004,0.8123876312260001,9.80524887998
380,190.2473432,-0.556434887704,0.803981112674,9.81696052548
381,190.74865648399998,-0.564308514402,0.8115074615419999,9.80507823484
382,191.24996962,-0.586366644284,0.820315145868,9.807766644280001
383,191.75128210800003,-0.634758013918,0.845902935786,9.81273032228
384,192.25259498,-0.5790079467679999,0.898219143682,9.79708785098
385,192.753908696,-0.569523669438,0.8864775604320001,9.80307839364
386,193.25020909183672,-0.6072779752816326,0.8913627281938776,9.814392905755103
387,193.74650897,-0.55392610474,0.859731179804,9.80213834834
388,194.24782228,-0.661857659912,0.8329159423779999,9.8049914154
389,194.74913597800003,-0.602009115598,0.82798220215,9.806188925159999
390,195.25044964,-0.619738247676,0.836011505134,9.801063583400001
391,195.751763102,-0.603808374014,0.834571499638,9.80706011356
392,196.25307672,-0.6386080078140001,0.8392298126219999,9.81425415342
393,196.7493772367347,-0.641593350777551,0.8261931469999999,9.802680527061225
394,197.24567792000002,-0.664791558834,0.8288414154039999,9.80943717042
395,197.746992296,-0.6849636108359999,0.825123147584,9.81283211058
396,198.2483065,-0.71013227234,0.826811636354,9.764264108319999
397,198.749620072,-0.6876999206559999,0.8240304199259999,9.80883542176
398,199.25093400000003,-0.724756860344,0.8296497345020001,9.80994311824
399,199.752248794,-0.746874865722,0.800334695434,9.78685812378
400,200.25356341999998,-0.741072930908,0.722427703864,9.800560629300001
401,200.74986454897962,-0.7618239422285715,0.7128390720897959,9.808225119448979
402,201.24616578,-0.7473239318880001,0.707859997562,9.79653699648
403,201.747480528,-0.74950938721,0.712359640504,9.81507744142
404,202.24879532,-0.757056692512,0.7119285369899999,9.79915056156
405,202.750109658,-0.7476412719779999,0.713209872438,9.79607595522
406,203.2514243,-0.782051715092,0.7378157043439999,9.81812510378
407,203.75274138600003,-0.755469992064,0.7651488647479999,9.78623242496
408,204.25405758,-0.7254124969519999,0.780656616208,9.81618214416
409,204.75035782857142,-0.7794811015204082,0.7749782204061224,9.794065788408163
410,205.246659,-0.774010437012,0.77525584717,9.78880407718
411,205.747974188,-0.7231402221640001,0.793634628296,9.81518821108
412,206.24928962,-0.7616072296180001,0.78935053712,9.7740866821
413,206.75060530399998,-0.7846592926060001,0.7694658874520001,9.7961358307
414,207.25192105999997,-0.724927505486,0.759763064582,9.80779059452
415,207.75323747599998,-0.7407585845939999,0.759068508908,9.79870748296
416,208.24954059795917,-0.8014547947428572,0.7546999810612245,9.792657492469388
417,208.745842864,-0.754038967898,0.758436822506,9.79672261048
418,209.24715872000002,-0.7185298095720001,0.759828927614,9.81590072932
419,209.74847492,-0.7726722198439999,0.756439974974,9.79945892028
420,210.24979127999998,-0.7684899169959999,0.7503955444339999,9.7937378174
421,210.75110757599998,-0.7408094787580001,0.757625509648,9.806832586739999
422,211.25242419999998,-0.7492579101539999,0.755775357052,9.80227905574
423,211.753740988,-0.7872189697240001,0.754470071416,9.79504010924
424,212.25004457346938,-0.7681291977183673,0.753646050277551,9.792562791489797
425,212.74634826599998,-0.721999594116,0.750566189574,9.81062869264
426,213.24766538,-0.749736914062,0.755688537594,9.80060254206
427,213.748982502,-0.778255609132,0.7510152557399999,9.79632144476
428,214.2502997,-0.774348733522,0.754149737548,9.78548098758
429,214.751616808,-0.7461922851580001,0.7558262512180001,9.79946490782
430,215.25293416,-0.744129574586,0.756990829472,9.80547341308
431,215.754251508,-0.75614957886,0.7532366363520001,9.79719562674
432,216.25055588367346,-0.7573271708469388,0.7648482653510205,9.797307007551021
433,216.746860604,-0.767280432124,0.8242190277099999,9.79744710396
434,217.24817857999997,-0.769241354374,0.858752215576,9.78836698612
435,217.74949682599998,-0.751039205932,0.895698385624,9.7912050842
436,218.25081505999998,-0.732687368776,0.9776918792620001,9.79487844542
437,218.752133422,-0.75354200135,1.018191659576,9.79078595588
438,219.25345188,-0.7703909637440001,1.08396188966,9.777002618440001
439,219.74975670816326,-0.7488132430183674,1.0818248234897958,9.788270696530612
440,220.24606186,-0.7421027893100001,1.0849528290000001,9.78537321172
441,220.747381074,-0.75083562927,1.0878537964000001,9.777478628559999
442,221.24870026,-0.743147616568,1.0892698516400001,9.79165714414
443,221.75001911200002,-0.75155413514,1.085934787,9.78393021238
444,222.25133812,-0.76212215881,1.0925989288,9.7809124878
445,222.752657586,-0.7525570495620001,1.12085417174,9.78640905762
446,223.25397712000003,-0.7417854492160001,1.143543988,9.78258002014
447,223.7502833265306,-0.7485810727530612,1.1596599034285715,9.783318749244899
448,224.24658970000002,-0.750132092284,1.24291634214,9.773607678240001
449,224.74790958000003,-0.761053381354,1.14816637572,9.77895156554
450,225.24922952,-0.7759533966079999,0.851291729732,9.79619570616
451,225.75054953999998,-0.795948815924,0.783264193728,9.78959742742
452,226.25186976,-0.7728488525439999,0.809199261472,9.797270471120001
453,226.753189632,-0.770935830694,0.8691286377,9.79100150752
454,227.24949649387756,-0.7690670433836735,0.9064018623142858,9.793143217122449
455,227.74580372,-0.777432321168,0.799918560796,9.7929953613
456,228.24712422000002,-0.789880435178,0.344236157218,9.81709823908
457,228.74844486,-0.772414755248,0.463277609254,9.81074544982
458,229.2497656,-0.751105068968,0.460726913448,9.81576301574
459,229.75108636000002,-0.75832305908,0.456781118774,9.8131913636
460,230.25240726,-0.749168096926,0.457939709472,9.8146104126
461,230.75372810000002,-0.754260507204,0.45930786438,9.81170046392
462,231.25003584693877,-0.7548130113224489,0.45440913297959185,9.813442840612245
463,231.74634430400002,-0.756856109618,0.456829019164,9.81436192934
464,232.24766598000002,-0.771480697626,0.452407214352,9.8106975495
465,232.7489873,-0.779279479984,0.461762759406,9.810993933119999
466,233.25030868,-0.8100554809560001,0.442150543212,9.81233215028
467,233.75163028,-0.9280790496820001,0.37010536193599997,9.803539434760001
468,234.25295196,-1.12054281924,-0.08564889220966,9.80462916886
469,234.75427392,-0.39010676880394,-0.7335286193820001,9.79579154682
470,235.25058268979592,-0.28076716208214286,-0.7905305729938775,9.795840669081633
471,235.74689142,-0.1723426116971,-0.1007674530054,9.83225272538
472,236.24821346000002,-0.0560254943952,0.453080813594,9.83896476766
473,236.749535656,-0.8921537566888,-0.1176074340824,9.741580279559999
474,237.25085786,-1.548592684946,-0.53952904357,9.77077556746
475,237.752179732,1.20477266235958,-1.06802303463272,9.6034205843
476,238.25350168,3.74787625118,-1.217630923538,8.9782546233
477,238.74981119387755,5.064201591653061,-1.0543126476306122,8.290955807489796
478,239.24612059999998,4.864979223540001,-1.383671640046,8.41688898926
479,239.74744308,4.4218497161,-0.6066614410144,8.72507710876
480,240.24876550000002,1.2472124084879999,0.48309938964140003,9.55796910076
481,240.750088138,-1.507389367646,-0.06018384700331999,9.72937765524
482,241.25141078000001,-1.7486157349000002,0.10403964843800001,9.70930439764
483,241.752733152,-1.6377442932,0.2870670410108,9.69957163694
484,242.25405562,-1.3690440582380001,0.381026650996,9.76484789436
485,242.7503651102041,-1.4117570932040817,0.2982196449777551,9.747524815632653
486,243.24667466,-1.41140596616,0.303808227544,9.74249637448
487,243.747997956,-1.37874987486,0.317549652104,9.7469301545
488,244.24932124,-1.37982763364,0.281609390266,9.7564623321
489,244.750643916,-1.38521044012,0.278612622066,9.75179204408
490,245.25196676,-1.3678854674999998,0.275600885012,9.75855498046
491,245.753290136,-1.3687716248000001,0.27650500487999996,9.75260934454
492,246.24960033061225,-1.3301492465510203,0.2764139697,9.758824786693877
493,246.745910516,-1.33278645636,0.284896554566,9.76156073
494,247.24723406,-1.2514036926599998,0.29191994934,9.777646279939999
495,247.74855759599998,-1.27723996588,0.30996642151,9.75495945742
496,248.24988124,-1.26609713738,0.31342722473,9.76814104614
497,248.75120492,-1.24032073974,0.31911539612,9.77354780276
498,249.2525286,-1.25158331914,0.32171099853199997,9.76710520024
499,249.75385257599999,-1.25041275324,0.323142022706,9.77326339416
500,250.25016332244897,-1.241686267510204,0.3221454013122449,9.76948323467347
501,250.746473776,-1.25140968012,0.32774644775399997,9.76895235892
502,251.2477976,-1.24423360294,0.32295940246599997,9.77087136836
503,251.74912168,-1.2457245025800001,0.32299832154,9.76303965446
504,252.25044586,-1.23717128904,0.322648049926,9.776014672899999
505,252.7517701,-1.24344324638,0.32054941405599996,9.76828774104
506,253.25309448,-1.24555984502,0.32222293395999996,9.76982354734
507,253.74940608367348,-1.2398166858571429,0.31685130839183673,9.771203127510203
508,254.24571772,-1.25763074334,0.31902857666,9.76526103522
509,254.747042,-1.23628213804,0.319651281736,9.7722335357
510,255.2483665,-1.25419389036,0.319929702752,9.76565022584
511,255.74969138,-1.24950563958,0.31993868409000004,9.76900624694
512,256.2510165,-1.2510145020199999,0.32295940246800003,9.76865896916
513,256.752340692,-1.24660167852,0.319866833504,9.770862387040001
514,257.2536652,-1.24563768308,0.32333362426999995,9.76887751458
515,257.7499768897959,-1.2417198710612245,0.32022388691836734,9.770237787979593
516,258.2462886,-1.24442520454,0.323462356568,9.77086837468
517,258.747614446,-1.24397314452,0.324788598628,9.76804225158
518,259.24894,-1.24068598022,0.325770556646,9.77031752018
519,259.750265062,-1.2504576598600001,0.321935531618,9.76756025388
520,260.25159024,-1.2530472747199999,0.3237048523,9.767976388580001
521,260.75291614,-1.24249422,0.326183697512,9.768368573
522,261.25424204,-1.24053030398,0.32464190368799994,9.7684015045
523,261.7505546122449,-1.2414571520816327,0.3276808291102041,9.769562661306123
524,262.24686728,-1.2371772766,0.324773629758,9.76791052552
525,262.74819342,-1.2493709198,0.32428564453,9.76776981812
526,263.24951971999997,-1.25275987238,0.321139187626,9.76765904844
527,263.750846086,-1.23765328678,0.32844699097,9.76753031616
528,264.25217256,-1.2316627441599999,0.32750395203,9.7677698181
529,264.753499252,-1.2278307129200001,0.32654295044000003,9.77038338324
530,265.2498128387755,-1.2371864412244897,0.32917771631632653,9.771826321367348
531,265.74612679999996,-1.2445718994000001,0.32717463684000003,9.76794645084
532,266.24745406,-1.24254511418,0.32861464232800003,9.7670213745
533,266.748780634,-1.23100710754,0.33049772643799996,9.77169166266
534,267.25010746,-1.22611827394,0.33057556457799997,9.77049415282
535,267.751435366,-1.23017483824,0.33136592101600004,9.771928170779999
536,268.25276328,-1.2421409546,0.330563589478,9.76993731076
537,268.754090534,-1.24272474062,0.330925836186,9.76989240416
538,269.2504047244898,-1.229029933367347,0.3340807856387755,9.77111759110204
539,269.746719512,-1.22554346926,0.335907476804,9.77227544862
540,270.24804776,-1.2294413636000001,0.33381782226,9.77218563538
541,270.749376524,-1.2469549438999998,0.333350793454,9.76459342348
542,271.2507054,-1.23610550536,0.336527188116,9.76991934816
543,271.752033664,-1.23150407414,0.338308483892,9.76949123836
544,272.25336211999996,-1.22627993776,0.338122869876,9.772990960660001
545,272.7496781857143,-1.2291735124081633,0.33736171800408166,9.769907861836735
546,273.24599440000003,-1.24068298648,0.33533865967,9.76870387574
547,273.747323728,-1.2397758728,0.336230804442,9.767599172919999
548,274.2486533,-1.22875878298,0.340598721318,9.7694942321
549,274.749982976,-1.22623203732,0.33900603333,9.7687607575
550,275.2513129,-1.2282378662,0.340694522092,9.77114679562
551,275.75264332399996,-1.2329141419199998,0.33842224731599996,9.7704672088
552,276.25397398,-1.24142544254,0.336682864384,9.76676690372
553,276.7502909591837,-1.2272183944081634,0.34084732678163265,9.771731620285715
554,277.24660811999996,-1.22109771422,0.33998200379000004,9.77017082514
555,277.74793883,-1.2202893951,0.339401211542,9.77197607114
556,278.24926976,-1.23018681334,0.33758099671400005,9.76959602046
557,278.750601012,-1.24132964182,0.334653085322,9.767371646159999
558,279.25193252,-1.2274834350400001,0.341933944704,9.7712036774
559,279.753263984,-1.22650746462,0.337545071412,9.7690780975
560,280.24958231632655,-1.2245056681428572,0.33983005445510206,9.766956855612245
561,280.74590106,-1.22503153384,0.338042037962,9.77000616754
562,281.24723326,-1.23257883918,0.337551058956,9.7694882446
563,281.74856574,-1.2337434173600001,0.33698523559800003,9.76736865244
564,282.24989838,-1.2266900848,0.33926948547400004,9.77047619018
565,282.75123114999997,-1.22513332216,0.339494018552,9.77165573734
566,283.25256408,-1.222639508,0.34124537657799997,9.770054068
567,283.75389681,-1.2216485687,0.342158477786,9.77008699952
568,284.2502162469388,-1.226830425653061,0.3413269416693878,9.769174692571427
569,284.74653639,-1.23451581118,0.339715557858,9.7680542267
570,285.24787018,-1.23203397214,0.3395479065,9.76902720332
571,285.74920403,-1.2243699097,0.341865087892,9.76951818232
572,286.25053816,-1.22429506526,0.34084720459,9.77173058174
573,286.75187174999996,-1.22303169252,0.340487951662,9.7685452057
574,287.25320555999997,-1.2218222076,0.342353073122,9.77202696526
575,287.74952660816325,-1.2289963297755102,0.3397200790714286,9.768297944408163
576,288.24584784,-1.23195014646,0.338065988162,9.76708424384
577,288.747182536,-1.22620209966,0.342359060666,9.76885655822
578,289.24851736,-1.22509140932,0.34079631042400005,9.770224713180001
579,289.749852308,-1.22087916866,0.33920362243200003,9.76921581108
580,290.25118736,-1.2214090668,0.337754635628,9.77098513186
581,290.75252248,-1.22695952458,0.329545706178,9.76832366632
582,291.25385768,-1.2349588897600001,0.330539639274,9.76927269282
583,291.75017977959186,-1.2280096061836736,0.3331887630571429,9.769416027408164
584,292.2465021,-1.2234178894,0.32943194275,9.76756923524
585,292.747838076,-1.22521714784,0.33529075927,9.76833863524
586,293.2491743,-1.22385797422,0.33744028930799996,9.76980259092
587,293.750510736,-1.22534288632,0.33876054382200005,9.76956608282
588,294.25184732,-1.23142623588,0.334012417598,9.76884158934
589,294.753184124,-1.23640787656,0.318369946294,9.76383599858
590,295.24950776530613,-1.248544454755102,0.23239021144734695,9.770970957265305
591,295.745831368,-1.26510919188,0.054705239865824,9.77471537478
592,296.24716856,-1.27685975648,-0.029868887329799997,9.773419070380001
593,296.748506184,-1.3011931549,-0.18988612976060001,9.778331854240001
594,297.24984408,-1.34665960694,-0.330821054078,9.77315561836
595,297.751181992,-1.36881952518,-0.404884039308,9.77290713496
596,298.25252006,-1.38026173094,-0.447662081914,9.775760202039999
597,298.753858228,-1.37281322028,-0.44669808655,9.77301491086
598,299.250183222449,-1.358843657755102,-0.4525334416571428,9.774144969122448
599,299.74650866,-1.37148997194,-0.44836561889800003,9.77382921758
600,300.24784776,-1.38115088198,-0.45226051941400003,9.7720778595
601,300.749187236,-1.38474939878,-0.45257187195,9.7736555786
602,301.25052682,-1.37428615724,-0.45092529602200004,9.78157111816
603,301.751867528,-1.36641253046,-0.450449285888,9.77420044558
604,302.25320854,-1.39103632512,-0.450685794066,9.768527243040001
605,302.74953382857143,-1.376656615612245,-0.4503553180244898,9.775531880877551
606,303.24585908,-1.3542727752400001,-0.451137854002,9.774592629999999
607,303.74719924,-1.40415803836,-0.45403582764,9.773607678240001
608,304.2485395,-1.3799174469,-0.4572810791,9.7793617127
609,304.749879874,-1.35870056762,-0.458703121946,9.77269757078
610,305.25122044,-1.40979531556,-0.45298800659800004,9.77064982912
611,305.75256138000003,-1.3724210358,-0.452311413576,9.79089073794
612,306.25390252,-1.3588562438599998,-0.471546414186,9.755875552380001
613,306.75023037959187,-1.3540627833469387,-0.4656235675387755,9.776112306510203
614,307.24655842,-1.4007331604000002,-0.460828701786,9.77590689702
615,307.747900386,-1.3385165406000001,-0.454478906254,9.7864210327
616,308.24924258,-1.3236823882600002,-0.464100897216,9.77816120908
617,308.75058484199997,-1.34981504512,-0.444449761964,9.77553267518
618,309.25192718,-1.36197276304,-0.469833975222,9.7747453125
619,309.753270032,-1.3014476257,-0.469890856938,9.78343923338
620,310.24959960816324,-1.376879621265306,-0.4617377705489796,9.760899044755101
621,310.745929296,-1.28561355282,-0.46313690185399997,9.79398630064
622,311.2472726,-1.3354539092600002,-0.430136526486,9.774008844019999
623,311.748616068,-1.3309422913,-0.2940664855968,9.73330249326
624,312.24995968,-1.1254017151140001,0.07201524353105,9.82687291262
625,312.75130385,-1.17981057132,0.1924907135012,9.7574951844
626,313.2526483,-1.126527374312,0.18882633361,9.79335461424
627,313.753992528,-1.19391424256,0.177848162838,9.78312488712
628,314.2503236102041,-1.204581793877551,0.17796766942612244,9.78103981489796
629,314.746654896,-1.12478799134,0.1420875274618,9.78805862734
630,315.24799984000003,-1.24278760984,0.1127186004656,9.78901962886
631,315.749345084,-1.1657937194,0.1037462585442,9.75985128478
632,316.25069058,-1.152076245112,0.10753937073304,9.82982477422
633,316.752036088,-1.233668573082,0.1042552001926,9.738098519840001
634,317.2533817,-1.1119267364179999,0.1104523132294,9.80945213924
635,317.7497144285714,-1.2126619299836734,0.10654476554959184,9.754236369285715
636,318.24604738,-1.1939351989659999,0.12093651123023999,9.82513053588
637,318.747393832,-1.105576940878,0.1086470672602,9.756513226240001
638,319.24874052,-1.177595178232,0.11673025818041999,9.78513370994
639,319.75008706799997,-1.128048211658,0.12140952759019999,9.79043867796
640,320.25143371999997,-1.147516726676,0.11883488159040001,9.79926133116
641,320.752780504,-1.204081100506,0.13084590454300002,9.72386611638
642,321.25412736,-1.109867019614,0.1413540527336,9.81489182742
643,321.75046125306125,-1.1545949257918369,0.15611617108469386,9.80441874912245
644,322.24679532,-1.1460587585720001,0.1316901489256,9.7878161316
645,322.748142804,-1.111501620488,0.141940832516,9.78283449082
646,323.2494906,-1.1942675079,0.1415755920346,9.79789916376
647,323.750838492,-1.094847253434,0.1350072509742,9.7972405334
648,324.25218639999997,-1.219301449464,0.061180773923048,9.7695062073
649,324.7535342,-1.144250518822,-0.06146817627052,9.79532451782
650,325.2498684897959,-1.150305885755102,-0.16112616091102042,9.763810337612245
651,325.746203016,-1.2202385009799999,-0.25217460021640004,9.817484436099999
652,326.24755118,-1.177020373596,-0.250177752684,9.756827572659999
653,326.748899558,-1.25955873412,-0.254207373044,9.79439644774
654,327.2502478,-1.3305141814800001,-0.23312221985,9.7803167267
655,327.751596566,-1.27197691045,-0.226012005618,9.716513406379999
656,328.25294518000004,-1.37028048708,-0.203717367562,9.85320016474
657,328.75429392,-1.2672138153599999,-0.19414627074799998,9.75923756098
658,329.25062920408163,-1.2718775659591837,-0.21866467222857142,9.728709860061224
659,329.74696467,-1.32608339536,-0.17161512452,9.82705852658
660,330.24831378000005,-1.30568980406,-0.1660586791982,9.77260775758
661,330.749662636,-1.287954684512,-0.1686033874518,9.781433404440001
662,331.2510115,-1.265791772476,-0.1686932006844,9.75207645276
663,331.75236044999997,-1.2400423187660001,-0.1441771820049,9.786229431179999
664,332.25370929999997,-1.3592065154400002,-0.1570294555668,9.798000952119999
665,332.75004514693876,-1.2485536194285716,-0.1293890972512245,9.746195946530612
666,333.24638152,-1.313946633934,-0.13273198242244,9.794399441540001
667,333.74773075999997,-1.2886582214200002,-0.11775412902839999,9.76435092776
668,334.24908067999996,-1.3690680083940001,-0.110386450200232,9.77961618354
669,334.75042972000006,-1.172643475368,-0.10884166259804001,9.7721676727
670,335.2517795,-1.3228351501259998,-0.09125623168269201,9.76802428896
671,335.75312987800004,-1.26567501523,-0.11367361450292,9.75868071902
672,336.2494669,-1.2435589039204082,-0.07613657114537552,9.792263414081631
673,336.745803,-1.336750213642,-0.09115144958011999,9.84971241776
674,337.2471524,-1.270740481574,-0.08524173889252401,9.6769147524
675,337.74850275999995,-1.281817446872,-0.08303532714598,9.77270655238
676,338.2498538,-1.320625744628,-0.083957409671226,9.8347345644
677,338.75120372,-1.217322564724,-0.1031025970468,9.69305419002
678,339.2525544,-1.34155522158,-0.06830595703208,9.84105142828
679,339.7539052,-1.281607882644,-0.09302555237374,9.73729618832
680,340.2502427469388,-1.4156581644530613,-0.051260749660242855,9.727723136653061
681,340.746579878,-1.167347488366,-0.06752757568518,9.8409077272
682,341.24793038,-1.3316278656,-0.062518991089856,9.73281151436
683,341.74928184,-1.28060796205,-0.04389771423189601,9.7779666138
684,342.25063348000003,-1.31072533266,-0.047783633420600005,9.8012881164
685,342.75198466,-1.2558344787340001,-0.045846661372714,9.7475648347
686,343.25333614000004,-1.40923248596,-0.05240901489246,9.7976566681
687,343.749673932653,-1.2557264584897958,-0.015827291059489795,9.725105111244899
688,344.24601186,-1.33299602048,-0.026788293458559997,9.804183096300001
689,344.74736326799996,-1.27794350279,-0.037362304684760005,9.72232731622
690,345.2487149,-1.2448084075919998,-0.019528390503860002,9.77460460524
691,345.750066876,-1.23656654666,-0.017510586549279998,9.81055684232
692,346.25141908,-1.252909561084,-0.009708810423207998,9.75979739682
693,346.75277136,-1.25646915895,-0.0004999603240860004,9.785795333900001
694,347.25412378,-1.295591803,-0.01140628051426,9.76692557378
695,347.75046256938776,-1.3046593957836734,-0.008853018624489796,9.761299232959184
696,348.24680158,-1.2767310241779999,-0.0010927276622999995,9.75749219066
697,348.748154264,-1.2658187164199999,-0.01615141296276,9.72355177
698,349.249507,-1.2460747741359999,-0.004628375246980001,9.83350711674
699,349.75085994799997,-1.1727811889100002,0.011139834594460002,9.807685812739999
700,350.25221294000005,-1.197156500244,0.008361611940999998,9.80722477102
701,350.753566528,-1.3935930084680002,-0.015286212156350001,9.671903173859999
702,351.24990663061226,-1.219184081355102,-0.004148515974183674,9.783379846632654
703,351.74624639200005,-1.182594781514,0.02907553711188,9.80455432434
704,352.24759969999997,-1.250421734596,0.010271640013618,9.76202775876
705,352.74895334,-1.303531292704,-0.0019249969488320002,9.74566378786
706,353.25030704,-1.2625555023,0.010346484373592,9.797384234559999
707,353.751661018,-1.2672557281819998,-0.019318826294946002,9.74744508364
708,354.25301512,-1.209502825922,0.028856991573344,9.792157104640001
709,354.7493559244898,-1.1912625527244898,0.026607933825408162,9.798382322530612
710,355.24569696,-1.319829400676,-0.002083666992514,9.7197466828
711,355.747051392,-1.2783895752799999,0.018552420045359997,9.77681999808
712,356.24840584,-1.23604263618,0.02210902404779,9.81484392702
713,356.749760932,-1.160692327888,0.026294320679700004,9.76360248406
714,357.25111622,-1.2446946441081999,0.050528924560039996,9.7448943878
715,357.752471032,-1.3223351897679998,-0.0033320709235999998,9.759480056700001
716,358.25382564,-1.334450994876,-0.01810036011044,9.7882143036
717,358.7501676653061,-1.149013674987755,0.01728446493177551,9.80515802810204
718,359.2465103,-1.206206680276,0.05544470214738,9.76973074038
719,359.747865744,-1.268875360082,0.023375390626580003,9.73100028068
720,360.24922125999996,-1.13154793392,0.055932687379828,9.771745550639999
721,360.750577404,-1.220726486212,0.068377807615028,9.838081604000001
722,361.25193386,-1.243766574112,0.03608995056336,9.73279654568
723,361.753290176,-1.327574295052,0.06465953979228,9.88479047228
724,362.2496330244898,-1.2061092298183673,0.03790179505702245,9.737568988346938
725,362.745976618,-1.1866782898,0.07245532836469999,9.82653760992
726,363.24733421999997,-1.3684033904800001,0.06184838561756,9.73231454778
727,363.748691452,-1.1088551239,0.03907773742551,9.78454693
728,364.2500488,-1.3680471313059999,0.089654562374858,9.7780773834
729,364.75140659600004,-1.1950997772390601,0.005619314577200003,9.703514437920001
730,365.25276466,-1.232857260129,0.12989388427224,9.823786331039999
731,365.754122908,-1.175975546298,0.08004155272920001,9.78338235176
732,366.2504678653061,-1.369101917522449,0.10280560240210204,9.75808245287755
733,366.746812738,-1.213367788716,0.02791395263132,9.557591885379999
734,367.2481712,-1.123030645754,0.1422282348618,9.86392985212
735,367.749529836,-1.235758227566,0.133157098395554,9.80394359446
736,368.2508885,-1.3142729553219998,0.062294458006054,9.730473376479999
737,368.752247844,-1.16026421814,0.1057820251506,9.8347824645
738,369.25360739999996,-1.236288125586,0.08511600036096001,9.752450674199999
739,369.7499531857143,-1.0123967509346938,0.09844324539934693,9.835282119551021
740,370.24629898,-1.2317256133774799,0.146961392213,9.72204889518
741,370.747659032,-1.4233960327,0.050594787598959995,9.73156011654
742,371.2490195,-1.048270111098,0.158655075071932,9.78436430964
743,371.75037924,-1.3318044982719999,0.1344504089374,9.78886095898
744,372.25173882,-1.18547479254,0.077993811029562,9.78882503362
745,372.75309956800004,-1.1329340515820001,0.1587868011484,9.83475851428
746,373.2494472714286,-1.3638383733632653,0.10051750338714285,9.672946229244898
747,373.745793896,-1.100882702602,0.1369561981252,9.78354401568
748,374.24715386,-1.2881612549600001,0.1435335205062,9.78739400924
749,374.74851500999995,-1.342986245686,0.11097622375208001,9.72908127132
750,375.24987642,-1.301330868542,0.17422270202505602,9.83752476204
751,375.751237672,-1.4513399230600001,0.1803000640936,9.821283535840001
752,376.25259892,-1.68580934142,0.150796417233778,9.6710858733
753,376.75396061,-1.6535544158959998,0.18354830932879998,9.7965489712
754,377.25030893265307,-1.63780233577551,0.15446348540142857,9.640393514632654
755,377.746656908,-1.58915533448,0.190074737556284,9.8326389221
756,378.24801838,-1.6511683777,0.1621997039798,9.75737243952
757,378.74938058400005,-1.64674058536,0.1792821807834,9.68365673216
758,379.25074304000003,-1.6884977508599999,0.20038529662800003,9.803162219239999
759,379.752105056,-1.7629888458799998,0.156520513917,9.70706206052
760,380.25346696,-1.6169974365600002,0.17241745605320002,9.7766703093
761,380.74981608367347,-1.6485066067346938,0.19198953122224488,9.690386492632653
762,381.24616576,-1.6468363861200002,0.18130297852280003,9.76350368956
763,381.74752822000005,-1.73961944272,0.199382382206,9.78532830514
764,382.24889044,-1.7290663879400001,0.1462398925788,9.72904235226
765,382.75025364,-1.6087046814000001,0.19812499694639998,9.73079969788
766,383.25161706,-1.65195274658,0.178536730952,9.70695129098
767,383.75298038799997,-1.79603113404,0.17100140075864,9.7272610565
768,384.2493303387755,-1.7073159447142858,0.21479720446857142,9.709684118285715
769,384.745680108,-1.79119020082,0.2480791168232,9.78512772236
770,385.24704352000003,-1.75001981506,0.23988515625079998,9.705487335159999
771,385.74840706000003,-1.6496086212599999,0.273391479488,9.768652981699999
772,386.24977048,-1.744394512954,0.2450973175034,9.69144054566
773,386.75113438799997,-1.75075927732,0.2515459075846,9.81863703912
774,387.25249834000005,-1.72699170232,0.26982888794,9.73630824298
775,387.753862672,-1.7857475188999998,0.212683721924,9.64330664058
776,388.25021370816324,-1.7446495336530612,0.2581122324367347,9.810271883612245
777,388.74656426,-1.76169852902,0.2391696441672,9.72598271474
778,389.24792826,-1.70386180118,0.22084774474308,9.67089427178
779,389.74929263999996,-1.78050841368,0.22512584838199998,9.79729442142
780,390.2506571,-1.7860498901200001,0.1859283599854,9.662400933819999
781,390.75202153600003,-1.83725540778,0.21064496154905998,9.82454076234
782,391.25338603999995,-1.9142882171400002,0.2155607391304,9.604094183419999
783,391.74973725102035,-1.8900186655918367,0.26559361360938777,9.778736441265306
784,392.24608882,-1.7906004274,0.369389849858,9.72834180896
785,392.74745371999995,-1.8340969756999999,0.45776008301,9.679345697039999
786,393.24881869999996,-1.7541482299,0.48594347533399995,9.82537901928
787,393.7501838,-1.78885805052,0.45374842530000004,9.65209037478
788,394.251549,-1.76011482242,0.420400772092,9.7179953246
789,394.75291426999996,-1.8497813598400001,0.496514492798,9.684991955640001
790,395.25427953999997,-1.6761723815599998,0.471175186154,9.802539514180001
791,395.75063135102044,-1.8413117888367347,0.4658496280612245,9.827027855938775
792,396.24698326,-1.653680154404,0.41696691284799997,9.81205372934
793,396.74834869,-1.543937365764,0.49022457275000003,9.85858297118
794,397.24971408,-1.88414989004,0.457511599738,9.82810036036
795,397.75107972,-1.94342961726,0.46747787475400004,9.85916076954
796,398.25244524000004,-1.8797759857599998,0.42695414428600004,9.83755170608
797,398.75381101,-1.5867184021599998,0.448413519286,9.9170873108
798,399.25016316530616,-1.8002420916122448,0.4573265355959184,9.856568466285715
799,399.74651518400003,-1.8158050141000002,0.43229503784400003,9.808323486279999
800,400.24788084,-1.6751485106800001,0.441896072384,9.86699847094
801,400.74924678,-1.7762452789599998,0.39407950744799997,9.67432513742
802,401.25061287999995,-1.5741684997999998,0.43077120666600005,9.74868750008
803,401.75197851999997,-1.4980697479599998,0.41358993529599997,9.76979360958
804,402.25334399999997,-1.4851007171800001,0.40770118103,9.75384577332
805,402.7496962408163,-1.277306073265306,0.397087517555102,9.748762038877551
806,403.24604862,-1.266306701652,0.39013371277,9.81022752662
807,403.747414468,-1.20044665839,0.366168548578,9.730970342980001
808,404.24878032,-1.002725820924,0.371186114506,9.7780085266
809,404.75014602000005,-0.9220106689600001,0.372476431276,9.78677429808
810,405.25151152,-0.9017967040880001,0.39328915101199996,9.79785725094
811,405.752877488,-0.898326919596,0.372877597038,9.79178288276
812,406.25424352000005,-0.87577781068,0.384984420776,9.834866290219999
813,406.7505959591837,-0.8829098977632653,0.41095663577142855,9.805888142306122
814,407.24694854,-0.917903210484,0.36096237488,9.87006708972
815,407.74831471600004,-0.79033848268,0.416538803096,9.8549814606
816,408.24968094,-0.958094632,0.362138928228,9.7850169526
817,408.75104698399997,-0.8147557068019999,0.39189105834399995,9.78101427628
818,409.25241282,-0.7233587676856,0.401815420532,9.69051247556
819,409.75377928,-0.9081884124680001,0.40690483704,9.950554714659999
820,410.2501324653061,-0.8470579217632652,0.39138712669183673,9.842485507306122
821,410.746485148,-0.944898074308,0.336922366328,9.76612623594
822,411.24785166000004,-0.948583410616,0.317462832648,9.76765605468
823,411.749218444,-1.001645068342,0.25500671082,9.819885443099999
824,412.2505854,-1.071124584938,0.2117137390172,9.80370109882
825,412.751952104,-1.1143606751,0.17337247009479997,9.84047961732
826,413.25331886,-1.085859942588,0.159304724128,9.824187497
827,413.74967196326526,-1.0470756561632653,0.15247170896167347,9.806926798959184
828,414.24602500000003,-1.02682869871,0.1589604400644,9.82143621812
829,414.74739202999996,-0.902554129058,0.14257850647,9.820657837
830,415.24875935999995,-0.8844687377920001,0.14508728942899998,9.79230679324
831,415.75012623000003,-0.798376766976,0.1483564910856,9.82819915462
832,416.25149296,-0.873903707942,0.1501767059238,9.821532019080001
833,416.75286014,-0.7555448364359999,0.155963671876,9.85114942936
834,417.25422738000003,-0.800936444094,0.1345462097184,9.836129663080001
835,417.75058099591837,-0.8198603976244898,0.11820826627936735,9.844547546020408
836,418.24693464000006,-0.922498654198,0.095318783575,9.84164718934
837,418.748302184,-0.8427235473560001,0.1274060577386,9.82795665908
838,419.24966996,-0.9197174377039999,0.09031618652216,9.74628948672
839,419.75103745,-0.8859027557100001,0.16119080200306002,9.95787748684
840,420.25240471999996,-0.8280121398864,0.06692582702015999,9.80088994448
841,420.75377235400003,-0.902422402954,0.11705657959276,9.79991397396
842,421.25012639387757,-0.9599109976857142,0.12234761763320408,9.880900520755102
843,421.74648072800005,-0.9173523559262,0.09079219665260001,9.7689164335
844,422.24784918,-0.784605404674,0.11395203552618,9.80165036348
845,422.749217016,-0.9681028198994,0.09612410888614001,9.77945751348
846,423.25058458,-0.7970325622518,0.1569516174324,9.83447709896
847,423.751952916,-0.9131640655859999,0.1233674560538,9.80182998956
848,424.25332154000006,-0.868329299934,0.124765548708704,9.840509555139999
849,424.74967603673474,-0.857138998855102,0.12197492327016325,9.799698972163265
850,425.24603054,-0.8946535583380001,0.11474837951552001,9.790202169819999
851,425.747398616,-0.812318774396,0.131803912349,9.77227544854
852,426.24876648,-0.915166900638,0.11972403259824001,9.7897081971
853,426.750134896,-0.784569479348,0.138994958493,9.835006997599999
854,427.25150334,-0.925866650408,0.12130474548367999,9.827423767
855,427.752872188,-0.853989120468,0.11243419189805999,9.80389569392
856,428.2542415,-0.80336439514,0.14276412048288,9.804599231
857,428.7505965326531,-0.8685336708204081,0.12588515924,9.773488171673469
858,429.24695132,-0.810702136208,0.12789703674789998,9.8103323091
859,429.74832065199996,-0.847298034646,0.12567565612938,9.77817318428
860,430.24969047999997,-0.7933382446180001,0.1333606750432,9.80780256944
861,430.751059612,-0.799454525754,0.1269989044136,9.83269580378
862,431.25242846000003,-0.783015710464,0.13210328979356,9.8242473724
863,431.75379798399996,-0.85325863951,0.134477352907,9.80107855228
864,432.2501542346939,-0.914705004010204,0.13459154401775508,9.714214493122448
865,432.74650991000004,-0.93198293155,0.163064904786,9.7857354583
866,433.24787901999997,-0.9950946899580001,0.1568408477788,9.76364439702
867,433.749248516,-1.059841049168,0.1748573822012,9.72879985642
868,434.25061796,-1.0721484557799998,0.1647114807156,9.790423709079999
869,434.751987668,-1.161072537248,0.16205899658328002,9.783412289420001
870,435.25335758,-1.142547061166,0.22046454162780002,9.7602823883
871,435.7497137204082,-1.038430368812245,0.33275802612040817,9.759139438530612
872,436.24607018,-1.105109912146,0.427927120974,9.7538427795
873,436.747439934,-1.057239459184,0.449539178474,9.75374997256
874,437.2488096,-1.0606224242659998,0.44473716431,9.76981157238
875,437.75017945599996,-1.101140167196,0.43868075867,9.79689026182
876,438.25154914,-1.0711305725040001,0.43875560303,9.79915954286
877,438.752919254,-1.0808962647,0.446150225824,9.7993960509
878,439.2542897,-0.96694722287462,0.373868536373,9.65039290476
879,439.7506460244898,-1.1927075070640816,0.49156553930051017,9.703302491183674
880,440.24700212000005,-1.072334069842,0.413422283928,9.70555319832
881,440.74837236400003,-1.046875012186,0.48787745361600005,9.77092226268
882,441.24974276,-1.082806292744,0.402222573854,9.722668606500001
883,441.751112934,-1.198554592844,0.45335624084119996,9.6977005279
884,442.2524828,-0.9509425048688,0.39938447571220004,9.74506503288
885,442.75385393199997,-1.08561744687262,0.5017715606654,9.69406907936
886,443.25021390408165,-1.133849291153061,0.37943646799795916,9.708507992469388
887,443.7465693,-0.946457830796,0.489362365727,9.73419463824
888,444.24793539999996,-1.3012260864702,0.47333669128399997,9.86482798486
889,444.74930568,-1.182603762826,0.436537216186,9.6695201295
890,445.25067629999995,-0.9729557281255999,0.41363783569,9.8330670319
891,445.752046472,-1.0374086975188,0.42869352722140003,9.82723515892
892,446.25341648,-0.8369485565174,0.4442910919198,9.77771214312
893,446.7497732285715,-1.057715774862449,0.48811353410408165,9.834671144714285
894,447.2461301,-1.170077810604,0.475288632202,9.74128988344
895,447.74750059999997,-1.160500726282,0.426993063356,9.73361683956
896,448.24887096,-1.013835717818,0.49023954162800004,9.83491119688
897,448.75024168000004,-1.1334459869059998,0.4475572998012,9.8026383087
898,449.2516126,-1.093538974048,0.46195436096000003,9.803961556960001
899,449.75298346000005,-0.9953611358291999,0.42310415039,9.77478423176
900,450.2493409346939,-1.179211083237551,0.4201456902979592,9.635313263020409
901,450.74569804799995,-0.9318212677222,0.44463238220199996,9.72592583292
902,451.24706864,-1.0278016754063999,0.5575725219698,9.99717676402
903,451.7484397,-1.2644385863579999,0.43820175476,9.76220439148
904,452.24981082,-0.958450891114,0.456903863526,9.74452615356
905,452.75118168,-1.263208145116,0.47277984924800004,9.79440243534
906,453.25255230000005,-1.233524871866,0.459382708738,9.6937816772
907,453.75392332,-1.207895169124,0.478297375484,9.84409010904
908,454.25028081836734,-1.4052227222857143,0.465706049077551,9.685856117714286
909,454.746638172,-1.312710205072,0.504154605104,9.752265060580001
910,455.24800952,-1.451468655372,0.47527066955400005,9.7971267702
911,455.749380528,-1.415046395826,0.493966790774,9.78901064756
912,456.25075133999997,-1.3677477539,0.48116840515,9.7366555208
913,456.75212248,-1.3948863189599998,0.504142630008,9.83378853162
914,457.25349366,-1.478700027518,0.474938360592,9.817565267740001
915,457.7498506510204,-1.473694619979592,0.5122256376306122,9.808319820469388
916,458.2462075,-1.4449422272199999,0.478387188724,9.813188369839999
917,458.747578096,-1.4983032622799999,0.491173599244,9.793941393999999
918,459.24894882,-1.4752272491,0.498155081178,9.81988544312
919,459.7503194,-1.51177225344,0.484192117306,9.78317578122
920,460.25169004,-1.47471231992,0.480057714844,9.812182461639999
921,460.75306071,-1.34932705989,0.48710505981200003,9.8124129822
922,461.2494174122449,-1.501799440987755,0.47458961642653064,9.798458694122449
923,461.74577472600004,-1.4492412872,0.5104385376039999,9.83063309326
924,462.24714624,-1.6128390838800002,0.481339050294,9.778304910240001
925,462.748517154,-1.46084216314,0.487730758664,9.85931345218
926,463.24988766,-1.3797707519599998,0.474911416622,9.81869691486
927,463.75125881599996,-1.53304002682,0.46937592773200004,9.80435374144
928,464.2526302,-1.42359661564,0.43498644103399997,9.85930447084
929,464.75400140600004,-1.5728901580799999,0.371677093504,9.775197372400001
930,465.2503588020408,-1.4782188851224491,0.44152979324897956,9.834359548265306
931,465.74671642,-1.5039585021600002,0.37640126953200004,9.80149169338
932,466.24808784,-1.55187984924,0.42771456299,10.03819446736
933,466.74945934000004,-1.561498846406,0.357986563114,9.59836409928
934,467.25083082,-1.4884747008919998,0.40369850464400003,9.86566624164
935,467.752202422,-1.65853306272,0.391163571166,9.84596121798
936,468.25357393999997,-1.64208227242,0.33666190796400003,9.67491790466
937,468.74993203673466,-1.5492935335510205,0.4064904131204081,9.91261925555102
938,469.24629075999997,-1.403816747962,0.3133164550802,9.7704791838
939,469.747662468,-1.57235427252,0.36976706543,9.79099552004
940,470.24903376000003,-1.5742463378600002,0.37765865478800004,9.83595003678
941,470.750405676,-1.64152543038,0.35754049072,9.80656913448
942,471.25177770000005,-1.81787371218,0.36783009337800004,9.73346116328
943,471.75314965999996,-1.78345728148,0.37354520874400005,9.76535084844
944,472.2495079428571,-1.9800151902857144,0.38744023225510205,9.705593644755101
945,472.74586636,-2.02731517638,0.36568355713,9.68829708256
946,473.24723918,-1.97154714656,0.37227584838600003,9.78312189334
947,473.74861107199996,-2.10767406924,0.40875798338999997,9.71620804138
948,474.24998244,-2.05481898188,0.380338082898,9.71707024832
949,474.751354472,-2.05224732974,0.428244461062,9.78889688418
950,475.25272664000005,-1.96046718748,0.367566641242,9.64754881894
951,475.75409867199994,-1.89345154726,0.364653698732,9.68998257748
952,476.25045711428567,-1.816121315489796,0.37620135871836735,9.705388968428572
953,476.746815294,-1.8589423096,0.38966069640999995,9.66765201416
954,477.24818661999996,-1.5959541961200001,0.36915932922000005,9.73376652834
955,477.749558808,-1.53016600346,0.355977740474,9.7316559174
956,478.25093142,-1.4494239074800002,0.409000479124,9.61692250692
957,478.752303244,-1.46408142704,0.44671305542600004,9.905911550439999
958,479.25367492,-1.11355834347,0.38521793518,9.72109388122
959,479.75003292857144,-1.1172307882265307,0.41971800823877553,9.821388562306122
960,480.24639093999997,-1.2380005645580001,0.39728883362,9.76144097908
961,480.74776239799996,-1.1635184508960001,0.44543171996799996,9.82044527894
962,481.24913358,-1.200270025642,0.37734430847,9.78084363092
963,481.750505014,-0.903754632612,0.4554878082198,9.75056160294
964,482.25187652,-1.190303750578,0.3860322418208,9.71955807494
965,482.753247864,-1.365637142846,0.440848251348,9.76321329364
966,483.24960507142856,-1.1992785364306122,0.3939348898183674,9.599833981142856
967,483.745962892,-1.0681308105648,0.441770333858,9.80653320926
968,484.24733494,-0.954421270754,0.45413761595799995,9.90807605014
969,484.748706428,-1.1641112183120002,0.431720233156,9.8129548553
970,485.25007804,-1.47198199765,0.464537988278,9.716393655360001
971,485.75144945200003,-1.41432190251,0.465885186762,9.709011007660001
972,486.25282072000005,-1.4074691528,0.452461102296,9.72543186048
973,486.75419221600004,-1.526621374516,0.470280047604,9.7951478849
974,487.25055027142855,-1.406362189422449,0.48445685250612247,9.696722296938775
975,487.74690799999996,-1.1954021483719999,0.433540447994,9.75560910644
976,488.24827905999996,-1.0491772247139999,0.43562411499,9.8147960268
977,488.749650534,-1.053772668438,0.436914431756,9.79348035296
978,489.25102216,-1.09996062008,0.470100421144,9.75950400704
979,489.75239371199996,-1.1750624450659999,0.433678161622,9.79557599486
980,490.25376526,-1.039501345824,0.45129353027,9.83831212476
981,490.75012320612245,-1.1132411256040817,0.4460815523142857,9.664462850204082
982,491.24648104,-1.0843271301619999,0.454254373168,9.8221098173
983,491.747852408,-1.132913095126,0.398531250002,9.57985059806
984,492.24922358000003,-0.9392817535660001,0.448644039908,9.69685927734
985,492.750594956,-1.051515362546,0.43449246825800003,9.591173053
986,493.2519666,-0.94419753114,0.45202700500200005,9.65891019284
987,493.753337876,-0.837924526974,0.421888677978,9.61956301576
988,494.2496945857143,-0.7805625261836734,0.4169869528,9.496594586816327
989,494.746052484,-0.821806045522,0.47806086730400005,9.70693632204
990,495.24742469999995,-0.8093339813120001,0.47075306397,9.70951695542
991,495.74879630000004,-0.807187445084,0.46723837279999997,9.617182965
992,496.25016794000004,-0.824581274408,0.49414941102,9.84025508432
993,496.75153964,-0.997854949964,0.48901209411799995,9.88965835006
994,497.2529118,-1.165500329552,0.48163842772800003,10.00664307832
995,497.754283504,-1.0484706939519999,0.40378233033,9.87833290088
996,498.250641322449,-1.4094476100897961,0.48781110180000004,9.871219631673469
997,498.74699948,-1.43244022522,0.403764367668,9.93434342638
998,499.24837106,-1.6499139862,0.44836561889599996,9.89338559876
999,499.74974297,-1.4870317016580001,0.403075799562,9.8131554384
1000,500.25111452,-1.449938836674,0.48453640136399995,9.97411272582
1001,500.752486688,-1.4981835112920001,0.43857897033599996,9.980525390499999
1002,501.2538596,-1.626505664014,0.42772354432200005,9.746475101
1003,501.75021811836734,-1.648738776963265,0.4334466023346939,9.903066670632652
1004,502.2465765,-1.642860653674,0.411599075316,9.80354841618
1005,502.74794893,-1.879509539766,0.429771286014564,10.05980053688
1006,503.24932168,-1.581099087502,0.40469543152404003,9.64428261114
1007,503.75069423,-1.518310656698,0.403042868044,9.874414050079999
1008,504.25206638000003,-1.69976631781,0.45029061584799995,9.900376061660001
1009,504.75343917,-1.6429684295800002,0.409572290042,9.96144307246
1010,505.2497986469388,-1.5037484491857145,0.44139843376530613,9.837142536346938
1011,505.74615769999997,-1.60207047724,0.407551492312,9.85327800276
1012,506.24753006,-1.5636483765,0.412808560178,9.904797866940001
1013,506.74890309,-1.58682019046,0.383143249512,9.643992214999999
1014,507.25027673999995,-1.49615672614,0.394546536248,9.58781104422
1015,507.75164981,-1.5613701141199998,0.402527938844,9.4919473938
1016,508.25302280000005,-1.5576817840500001,0.47045069274,9.67482210412
1017,508.74938214489794,-1.5369029734061226,0.38788929842040815,9.500779761428571
1018,509.24574116,-1.3906860535,0.47028902893400004,9.54886802678
1019,509.747114424,-1.57046220698,0.46506489258,9.57699154356
1020,510.248488,-1.5697616636999998,0.463798526,9.69172495422
1021,510.74986123,-1.5388180113999999,0.475558071904,9.79870748282
1022,511.25123396000004,-1.53660561226,0.42512195434399996,9.668184905959999
1023,511.75260746,-1.414262026972,0.434558331304,9.73832005914
1024,512.25398164,-1.47187122808,0.439459140016,9.79101647642
1025,512.750341422449,-1.2839595840816327,0.41600939380816326,9.73636231410204
1026,513.2467013,-1.2989807556119999,0.40971599120999996,9.75080709228
1027,513.748074936,-1.257789413554,0.38843025512799995,9.76913198544
1028,514.24944886,-1.30490842903,0.392663452154,9.74487043766
1029,514.75082256,-1.062215112346,0.36242633056,9.78544506218
1030,515.25219632,-1.138795861834,0.410590173342,9.81044607246
1031,515.75356996,-1.291146047948,0.333898654176,9.78363981626
1032,516.2499291122449,-1.086009997922449,0.3003458357787755,9.773579817755103
1033,516.746289212,-1.117698733578,0.302464022828,9.76938945038
1034,517.24766344,-1.4191748107620001,0.2296913543694,9.74392440482
1035,517.749037404,-1.351267025704,0.2301164703344,9.734164700320001
1036,518.25041166,-1.25771157528,0.2626977172812,9.7902081573
1037,518.751785664,-0.9363239043900999,0.17113612060283198,9.88876021726
1038,519.25315922,-0.9063532288012,0.21434227294284,9.89868457984
1039,519.7495196653061,-0.9640198003463265,0.15722814443045102,9.71051809812245
1040,520.24588088,-0.7098209197900001,0.1668400543204,9.73927806698
1041,520.747255206,-0.44937152711320005,0.18938916320379998,9.85395758956
1042,521.24862968,-0.575095083618,0.171573211672,9.91129136388
1043,521.750004152,-0.493140509038,0.118278039556902,9.91405761112
1044,522.2513782000001,-0.485371664428,0.1422970916676,9.96609240374
1045,522.7527527679999,-0.554791305542,0.0890737701432,9.8920204379
1046,523.25412812,-0.3757875457828,0.13987812194864,9.92469449162
1047,523.7504890551021,-0.5517770634816327,0.06137237549390612,9.730964355510205
1048,524.2468503,-0.3770060119634,0.1537482788108,9.85328399032
1049,524.748224894,-0.54732483214946,0.104824017332176,9.78259798276
1050,525.2495997000001,-0.29532985838934,0.13332175598132,9.73840687854
1051,525.750974706,-0.42810075990378005,0.1486768249498,9.72825498976
1052,526.2523498,-0.466364190668,0.14617702331794,9.76287799062
1053,526.753724864,-0.29619206542640003,0.1338696166976,9.78700481832
1054,527.250085944898,-0.2899317776428163,0.16660965588516327,9.747925003938775
1055,527.746447212,-0.39744750366198195,0.16346607055300003,9.8529576693
1056,528.24782276,-0.2825883544898,0.28036098632600004,9.7901303193
1057,528.7491978940001,-0.34908307800300004,0.402060910038,9.78789097608
1058,529.2505728799999,-0.32057037048608,0.463717694096,9.96467934264
1059,529.751948312,-0.33103061829134,0.41841290588600005,9.9983952298
1060,530.25332358,-0.2132106262194,0.455191424562,9.95507531426
1061,530.7496852571429,-0.45739985252132653,0.41694112972040814,9.959383233346939
1062,531.2460472399999,-0.6695606414958,0.496484555056,10.12981593954
1063,531.747422676,-0.7437793029952,0.37901782836882,9.554894494820001
1064,532.24879818,-1.02922371825,0.486015325932,9.75069332908
1065,532.750173912,-0.8889683807442,0.463508129878,9.90801018658
1066,533.25154972,-1.1053733643142,0.487317617794,9.7449662385
1067,533.752925338,-1.015865496798,0.44883564148,9.75313325506
1068,534.25430022,-1.055054003922,0.512758712776,9.795968179459999
1069,534.7506619653061,-1.0892726010714286,0.4290078735367347,9.80411631687755
1070,535.24702372,-1.023074505598,0.43957589722400003,9.73028776264
1071,535.748399284,-0.938883581502,0.523413555912,9.804751913159999
1072,536.24977544,-1.104858435056,0.449458346558,9.7755326753
1073,536.7511511079999,-1.13423933717,0.439887249756,9.72544084162
1074,537.25252708,-1.259947924822,0.519401898202,9.7106186646
1075,537.75390288,-1.4920612427200002,0.47051056824199994,9.63852558284
1076,538.250264510204,-1.4871818791632652,0.5103621657959184,9.700473679591838
1077,538.746626688,-1.302408627348,0.466226477054,9.730593127439999
1078,539.24800288,-1.4541510772660002,0.529790295406,9.771862307740001
1079,539.7493789600001,-1.5178017150479999,0.417960845956,9.68086354068
1080,540.25075468,-1.331849404898,0.529886096198,9.82520837398
1081,540.752131008,-1.418097052046,0.46016707763199993,9.7142201752
1082,541.2535072000001,-1.4326138642000001,0.469331021122,9.63855851434
1083,541.7498700836735,-1.3453961118979594,0.4679452701571428,9.799555393367347
1084,542.24623356,-1.202320761126,0.466921032718,9.77943056932
1085,542.74761044,-1.083129620406,0.442078692624,9.81859512626
1086,543.2489873999999,-1.0281878723139999,0.46960644836,9.887167529460001
1087,543.750364516,-0.929722631802,0.406779098508,9.6423007325
1088,544.25174168,-0.78531792294,0.448599133298,9.902857900819999
1089,544.753119024,-0.6640251525848,0.452038980094,9.86827082498
1090,545.249482777551,-0.6564094792736734,0.4380472393367347,9.966516359142858
1091,545.74584663,-0.715335452252,0.42094264527200004,9.69974228216
1092,546.2472249,-0.736456530708,0.456487728878,9.861409094319999
1093,546.74860276,-0.8273145904514,0.426097924806,9.698790261840001
1094,547.2499807,-0.648110247786,0.460448492438,9.92417956234
1095,547.751358776,-0.68559529725,0.43674378662400004,9.852496627739999
1096,548.25273676,-0.756556732138,0.44993136291200003,9.76702436832
1097,548.75411502,-0.881648602302,0.48173422851200004,9.80955692138
1098,549.2504796285714,-1.0963293550489797,0.4701814363469388,9.785307470795917
1099,549.7468443619999,-1.082605709868,0.44875181580400003,9.71502250676
1100,550.24822304,-1.083587667858,0.47450426330600004,9.84523373128
1101,550.7496016580001,-1.08272845455,0.456984695434,9.78249619454
1102,551.2509802,-0.9434760314940001,0.4621489563,9.76845838616
1103,551.75235894,-1.047713269038,0.46919929504400004,9.78754968572
1104,552.25373776,-1.155734637434,0.464313455198,9.7999708558
1105,552.7501028734694,-1.0709189310063878,0.42602020886122444,9.754816794795918
1106,553.24646832,-0.9269474029600001,0.481913854984,9.81579594726
1107,553.74784734,-1.106379272562,0.447476467898,9.75008259888
1108,554.2492259200001,-1.0631072571040001,0.467052758794,9.772559857200001
1109,554.750605176,-0.987831793186,0.458071435548,9.7458404207
1110,555.25198432,-1.07231910097,0.484940560924,9.808476168879999
1111,555.75336376,-1.085410876472,0.46207111815799995,9.81489482112
1112,556.249729455102,-0.9368558797816328,0.459917066922449,9.811411350816327
1113,556.74609524,-1.083144589272,0.46461283263799996,9.7503101256
1114,557.24747504,-1.0133267761240001,0.502029025268,9.80212637328
1115,557.7488547600001,-1.02390976868,0.573418569944,9.76526103512
1116,558.2502346,-1.034669393894,0.668530783092,9.79545624398
1117,558.75161448,-1.2019255829018,0.577385321034,9.72415351872
1118,559.252995,-0.8869415954774,0.695465771484,9.7743800721
1119,559.7493613795918,-1.0575385922775509,0.7733285896285715,9.789935601755102
1120,560.2457276,-1.345920144726,0.718972888186,9.76802728278
1121,560.7471079,-1.2663426269459999,0.756224423216,9.71533685302
1122,561.24848844,-1.097215329034,0.8000772308480001,9.78296621708
1123,561.74986882,-1.1701346923840001,0.8098668731700001,9.75788736878
1124,562.25124936,-1.121922949228,0.826395501726,9.71140902092
1125,562.75262994,-1.0479647460704,0.806187524428,9.818631051459999
1126,563.2540101,-0.859458746306,0.926680957052,9.7764607453
1127,563.7503770816327,-0.9205581385142858,0.9845179904489796,9.680678109816327
1128,564.246743474,-0.9910291442960001,0.976865597534,9.8018838776
1129,564.74812456,-1.02233204953,0.997184344482,9.85379592584
1130,565.249506486,-0.7736571716342,1.003186862156,9.82734592866
1131,565.75088786,-1.01097366947,1.020886056542,9.60174107668
1132,566.25226876,-0.9332942046532,0.965504223634,9.68971313798
1133,566.75365032,-1.018538937398,1.009440856912,9.66346372372
1134,567.2500184510204,-0.9872918140959183,1.0715726735938775,9.662581049102041
1135,567.74638632,-1.1653177093140001,1.12574300538,9.79648310854
1136,568.247767942,-1.147373025516,1.1309192413440001,9.851616458559999
1137,568.74914974,-1.182097814918,1.110181365962,9.83079475722
1138,569.250532326,-1.06539749451,1.1794004242,9.8222325626
1139,569.7519142799999,-0.885627328472,1.13453572084,9.80851209406
1140,570.2532961439999,-0.75492811895246,1.182415155038,9.63890878614
1141,570.7496644836734,-0.803489339364551,1.2329310047,9.979181858224491
1142,571.24603233,-0.896114520292,1.213942593394,9.5940321076
1143,571.7474146,-0.8275600799759999,1.240123150644,9.95707216142
1144,572.2487968820001,-0.62534259338812,1.2268697113020002,9.70565199288
1145,572.75017936,-1.0233199951162,1.26102867738,9.7166241763
1146,573.251562018,-0.780958987412,1.249751129152,9.799512808220001
1147,573.75294472,-0.7930478485119999,1.26301055596,9.8572357725
1148,574.249313832653,-0.8035993147816327,1.2624105180408163,9.604685117734693
1149,574.74568282,-0.7305677764912,1.32302974542,9.902932745240001
1150,575.2470662,-0.8599138000304001,1.274341992156,9.67260072328
1151,575.74844914,-0.98678397221,1.2780363098,9.824510824699999
1152,576.2498312,-0.893114758328,1.2863260711800002,9.804413617
1153,576.75121422,-0.871529644768,1.29637617184,9.73924812918
1154,577.252597732,-0.8331255065819999,1.31555429082,9.778538424639999
1155,577.75398094,-0.872846905516,1.31020740966,9.72812026976
1156,578.2503501285714,-0.8268896577653061,1.318168039142857,9.760917374020408
1157,578.74671966,-0.83814007874,1.32418833614,9.74215508428
1158,579.2481041240001,-0.8108667938319999,1.31500643008,9.748621636860001
1159,579.74948762,-0.8449030151079999,1.3312716065,9.76777580562
1160,580.250870836,-0.847836914066,1.30465096426,9.75342963866
1161,580.75225446,-0.84652863463,1.32486193544,9.80179107058
1162,581.25363804,-0.848205148296,1.309973895264,9.75528877252
1163,581.7500078714286,-0.8801666228836735,1.3074882071632654,9.77350039110204
1164,582.246377812,-0.900581231688,1.3183774200599998,9.8735518436
1165,582.74776134,-0.8744695312419999,1.26649530946,9.6837764831
1166,583.2491446719999,-0.9387548492460001,1.27120152276,9.79274987192
1167,583.75052812,-0.9670190734899999,1.27710524594,9.70437065738
1168,584.251912084,-1.02132314756,1.2853171692,9.79330072622
1169,584.75329574,-1.018937109398,1.29760361942,9.72954231262
1170,585.2496647918367,-1.0634283852163267,1.2714895972244897,9.749773201469388
1171,585.74603464,-0.987484515378,1.3217035034400002,9.74771751708
1172,586.2474183859999,-0.980736547832,1.3311847869600002,9.73402099908
1173,586.74880234,-0.94306289061,1.34614467774,9.735191564860001
1174,587.250186192,-1.00260307623,1.34307007138,9.812371069260001
1175,587.75157026,-0.8423613006559999,1.3166051056,9.70522088934
1176,588.252954608,-1.05329067085,1.29370572504,9.754205026260001
1177,588.7493249836735,-0.8224387094877551,1.1837292386877551,9.786471376938776
1178,589.245695286,-1.017901263372,1.13534703366,9.744104031360001
1179,589.74707964,-0.9169062835920001,1.10114914858,9.7662130554
1180,590.2484643079999,-0.95144246521,1.017015106158,9.777095425459999
1181,590.74984888,-1.71746251832,0.6395660156280001,9.66661018066
1182,591.2512335,-1.2849788726399998,0.717682571414,9.7700121551
1183,591.7526182400001,-1.27362348632,0.759568469236,9.73593102726
1184,592.254002778,-1.0583501495379999,0.8937703949,9.76699443052
1185,592.750373844898,-1.0796008767918368,0.3119848975259184,9.79994947167347
1186,593.246745752,-0.26094935304848,-1.18092724913727,9.81255967728
1187,593.74813106,0.189404132079,-4.37727540898,8.70342613228
1188,594.249516352,0.8432983520478,-5.53027673026,8.34343972772
1189,594.750902,0.573197030683,0.5366220886506,9.55013738696
1190,595.2522874179999,0.22635329589640002,5.66751434324,7.7823195831600005
1191,595.75367326,-0.23857388305788,6.535798736599999,7.33178647158
1192,596.2099346756098,-0.16894015056195122,6.654868446878049,7.201681343658537
