Time (s),Gyroscope_X,Gyroscope_Y,Gyroscope_Z
10.253179439999998,-0.05942716871260073,-0.033575861476274005,-0.014962446090966346
10.753179439999998,-0.1449360615628437,-0.21086212874917049,0.02979716822334073
11.253179439999998,-0.10573814400785654,0.13605213540074193,-0.14511612544342178
11.753179439999998,0.08305577644708234,-0.09245622290517588,0.2001683519317639
12.253179439999998,-0.021040368649864513,0.16963622578343915,-0.1612415137982076
12.753179439999998,0.1510519708992491,-0.14140369992250837,0.17219026513412067
13.253179439999998,-0.03138426233681391,0.10158637257704342,-0.1177113441364225
13.753179439999998,-0.034145036588644144,-0.017439752893749737,0.023117636104424175
14.252979439999999,0.06850890789022757,-0.16109668898532659,0.15453606446000262
14.753179439999998,-0.0660259202942159,-0.122194140428425,-0.03890711220193446
15.253179439999998,-0.14908271350826618,0.02435878824778178,0.5058838403890165
15.753179439999998,0.11965742485508461,0.20487143093043653,0.013940028332264529
16.25317944,0.030407916683148687,-0.097537780355482,-0.04664624343566468
16.75317944,0.04845785517534926,0.3366406358794825,-0.11187458447193854
17.25317944,-0.012347789509203767,-0.1812551888401774,0.03980389675977795
17.75317944,0.1474563630842,-7.105072425180548e-05,-0.05114528156425357
18.25317944,0.018893141653224556,-0.08048286279322615,0.0036865240008473223
18.75317944,0.012037964307063007,0.19258843884906263,-0.24059604210697652
19.25317944,-0.07912880510504709,-0.29000597930307614,0.1732807302906128
19.75317944,-0.013619544459819319,0.09072564755188242,0.05292694546621348
20.25297944,0.03397638900510288,-0.037803015837049786,0.06004508265538055
20.75317944,-0.012375416563854814,0.1285050781215059,-0.26782524916099076
21.25317944,0.08617731874755047,-0.2300464881725105,0.03184736580491725
21.75317944,-0.04387867615767501,0.12195030033273829,-0.06699343176943745
22.25317944,0.018114394650940405,-0.030692722774276194,0.11982573778578437
22.75317944,-0.0821851067329258,0.15929723459838876,-0.09442142699693314
23.25317944,-0.06729896766130747,-0.168445541051492,0.12505516103293762
23.75317944,-0.012232411117216492,0.13229834854771907,-0.16160217838413815
24.25317944,-0.054496042831509085,-0.13100729089954252,0.028479374689206166
24.75317944,0.030647794256672932,0.11945048635537044,-0.10354535222256425
25.25317944,-0.05306390015569943,-0.17540291906096836,-0.0026308788147067787
25.75317944,0.06347898404306955,0.07649903400099337,0.035252832137054026
26.25317944,0.0033600391832034776,-0.038824687739543604,0.09045411091658448
26.75317944,0.007517698137303586,0.0863389508925805,-0.008786917003526365
27.25317944,-0.006195850416721038,-0.064229563451482,-0.010105548362289267
27.75317944,-0.026175129344857138,-0.007870246373904079,0.04019687695929086
28.25317944,0.025821067084111943,0.06299727522518354,-0.036557680157142516
28.75317944,-0.017235343884589215,-0.07086745929883245,0.17712278639747475
29.25297944,0.014260383619257409,0.18119635460255026,-0.07492645763266992
29.75317944,-0.10983349563071641,-0.02663276846637797,-0.01907999252868989
30.25317944,0.12216617309003501,0.03730173890702513,-0.025065941791328036
30.75317944,0.005437354434390429,-0.20291780311366828,0.11554887073929797
31.25317944,0.002374306821980084,0.136279780520541,-0.08122723255633131
31.75317944,0.027113427042522464,-0.09110642843269376,-0.0601267877141764
32.25297944,-0.038507647044284415,0.03109589171422646,-0.05053703398818512
32.75317944,0.0490724775441761,-0.024242126790722653,0.2525634796194596
33.25317944,0.015077635064106478,0.0594381144439182,-0.05143585580866114
33.75317944,-0.05392696065945274,0.010984064870384391,-0.15442431195317927
34.25317944,-0.012631847109757392,-0.13340389565663724,0.010862847578375256
34.75317944,0.005716048131754808,0.127851812261759,-0.026378489704832635
35.25297944,-0.04968769953086874,-0.15264697549687364,0.014843237099227493
35.75317944,0.11275395286545735,0.16517174299013493,-0.09938199481962995
36.25317944,-0.05469033535983511,-0.23955567276455839,0.07156105201650413
36.75317944,0.07558423665492289,0.15452283143893575,-0.12813516196481037
37.25317944,0.03382273611127106,-0.14791478005718006,0.07723119649737205
37.75317944,0.032777250199017276,0.12406576811548083,0.1224639328051006
38.25317944,-0.05314186592471331,-0.08190374442895637,0.10897712685362271
38.75297944,-0.057314699660183425,0.1942664810430163,-0.039603455776189865
39.25317944,-0.0074330010638900545,-0.15692681677982237,-0.0851297954098234
39.75317944,-0.017248214549346167,0.13536365001426784,-0.07678764695178203
40.25317944,0.015894737774054642,-0.01703199808134473,-0.03747427301763661
40.75317944,-0.05949167655041337,-0.10031510898394293,0.08941121302336551
41.253179440000004,-0.02661590202618839,0.15315219199875466,-0.12069287006323962
41.753179440000004,-0.013649202330757131,-0.1788474053117375,0.13064467117152032
42.253179440000004,0.01163242023517792,0.15234753242137217,-0.04997953458054138
42.753179440000004,-0.016140303192710113,-0.1860161729416879,0.00861340580427129
43.253179440000004,0.14402779206406024,0.18826404232537772,-0.12074427549461075
43.753179440000004,-0.12972692962916654,-0.3051263361892009,0.0011490985559891676
44.253179440000004,-0.09668070938612154,0.2147603219513265,0.03372904818427371
44.753179440000004,0.04182707337898808,-0.18094723123957224,0.05368140134923725
45.253179440000004,0.023870171759332644,0.20795915936660617,-0.04301711142282699
45.753179440000004,0.028300659245497895,-0.16224680317069973,0.06759653216587028
46.253179440000004,-0.06962937719822994,0.1043156196668642,-0.1078120175815044
46.753179440000004,0.05138559953986222,-0.08493065925239605,0.05664911651737662
47.253179440000004,-0.015993419274075896,0.1476832745848945,0.04285567896125644
47.753179440000004,0.04995592341226895,-0.099991069779089,0.016879543375316955
48.25297944,-0.0315618498457107,-0.013754901503742652,-0.08813464245144637
48.753179440000004,0.07007040270390108,0.024490277886899108,0.043340881008252286
49.25297944,-0.02509018487740871,-0.0792407013990037,0.06755171070248328
49.753179440000004,0.07150305434016929,0.034618920524044826,0.06645780561478248
50.253179440000004,-0.06254908717478438,-0.18384735143813408,0.1115195713682825
50.753179440000004,0.014461644077736657,0.07606187632569465,-0.07363739855476074
51.253179440000004,0.06863559886681944,-0.04321736700746226,0.3657891845991017
51.753179440000004,-0.08115768204082162,0.16259565305692572,0.22721587998600654
52.253179440000004,0.002062217625442266,-0.01693606621061877,-0.09812692249463209
52.753179440000004,-0.03053269994755026,0.11093341467931282,-0.17818503816469178
53.253179440000004,0.039509719861572166,-0.14390525380662,0.10851118684115998
53.753179440000004,0.018776238761441657,0.18614359131081679,-0.028833320424619523
54.253179440000004,-0.01344276437686184,-0.16760252563103464,0.13666670335025657
54.75297944,-0.006653201109056095,0.12156616125266817,-0.22276784895588392
55.253179440000004,0.017218902700121375,-0.17323727048728185,0.09002727168477252
55.753179440000004,0.12763753315818913,0.25925786366398845,0.24110569667072618
56.25297944,0.13538931871447804,0.14809556494142598,0.4933767671970712
56.753179440000004,-0.4272013774287703,-0.3324105820572495,-0.6935841595374864
57.253179440000004,0.10662269364858444,0.03682364473699047,0.08065202702470448
57.753179440000004,0.20810094939778206,-0.08886504399578482,0.16895662827600166
58.253179440000004,-0.20729819627522758,0.10569466556264077,-0.21708630896725087
58.753179440000004,0.01883196269829899,-0.2217342905819183,0.5492152899880905
59.253179440000004,0.05730281152047332,0.24514578187368172,0.11393430381725768
59.753179440000004,-0.13194659288840202,-0.239109148816965,0.1719990473856736
60.253179440000004,0.04148216666800295,0.32744586020104693,0.1330727597028761
60.753179440000004,0.06407878508512771,-0.08944192957130168,0.12626217820036234
61.253179440000004,0.014487548286120987,0.10322870697130762,-0.20592308132928966
61.752779440000005,-0.0045537117585176725,-0.18487444142283882,0.09969167116922209
62.253179440000004,-0.06389366280175884,0.07234593910363393,0.1979245148039845
62.753179440000004,-0.0431374396293243,0.09405201103835165,0.003593779306037819
63.253179440000004,0.08439668508721856,-0.011900183114252704,-0.13139230789914927
63.753179440000004,-0.1280707687807167,0.06758461244528885,-0.011090079991780067
64.25317944,0.07489838856004799,-0.0676714189112819,0.1382210609766468
64.75297944,-0.0006602215811840406,0.20242232583851172,-0.2795886960218594
65.25317944,-0.06012832946880202,-0.28599241422725824,0.10482589540173903
65.75317944,0.09475987208072385,0.28195224525438695,-0.15461438006831987
66.25317944,-0.0028553047550036337,-0.19194624742446212,-0.06812286622875065
66.75317944,0.07528287007280617,0.13974928204979264,-0.24812594274386568
67.25317944,0.02596173240024215,-0.1801518160442034,0.005139128383259936
67.75317944,0.022822653713971134,0.050982328423220105,-0.02665684230040684
68.25317944,-0.018674904512858373,-0.06405366032981054,0.12800749025200694
68.75317944,-0.03379908958316207,-0.046705095429609066,-0.030651842495328308
69.25317944,0.004964119243891841,0.20642732675543457,-0.016964795328810164
69.75297944,-0.03333035309202444,0.017584851938459243,-0.21212779031618278
70.25297944,0.04179041275972372,-0.17004617211930131,-0.21316538859511983
70.75317944,0.10360813259553536,-0.17611327815457237,0.13337301714784142
71.25317944,0.07030513948892392,0.20263663251916564,0.3252969908985415
71.75317944,0.047609150702010904,0.18034917462951675,-0.2363884404286619
72.25317944,-0.09504359869687556,0.12120666105790613,-0.2783667854847563
72.75297944,0.017603067700156502,-0.15435223794300362,-0.051064993878354684
73.25317944,0.10235053040228623,0.10437902717011598,-0.1497300020465471
73.75317944,-0.01215796212681074,-0.17749735480114281,-0.02653570661950972
74.25297944,0.06709966372535896,-0.04008517214527511,0.10015492538514137
74.75317944,-0.09266339306247445,-0.023818020339887537,-0.003646336257687811
75.25317944,-0.21600655139925443,0.07999559734119764,-0.06043400580876499
75.75297944,0.2314552821114538,0.015731716383673478,-0.07744097839817848
76.25317944,0.16781497758900102,0.011613066470951916,-0.10339985205399113
76.75317944,0.1509492925269628,-0.08634794956254295,-0.044827816129455265
77.25317944,0.06599345705377035,-0.11843896196042543,-0.06309603650442894
77.75317944,-0.23619586391751407,0.16043616077409478,0.022983478358014727
78.25317944,0.03548932212277452,-0.2868153519409839,-0.03332934178523996
78.75317944,0.2544686567849555,0.018328539075150273,0.010689888903677012
79.25317944,-0.23914851515570504,0.14183526090853163,0.09207004403424827
79.75317944,0.1613730963041458,-0.014937870142715746,-0.019882274787459648
80.25317944,0.015633116137979453,-0.08216524655383836,0.08976418675590724
80.75317944,-0.05080482735768466,0.05412393714459242,-0.11824420947655323
81.25317944,-0.0699330743045409,-0.041848350912653806,0.09593819869103976
81.75317944,-0.08618463300237558,0.0021261408763765133,-0.03842797912476507
82.25317944,0.0192790876734698,-0.060954199566612965,0.053530544563429164
82.75317944,0.03915755236576334,0.0993433950692327,0.03330105095258298
83.25297944,-0.13640357297092798,0.005160489923838995,0.10407411878725135
83.75317944,0.06509763607079361,0.013448361802330585,-0.08203142606317458
84.25317944,-0.008144290093244277,-0.039268025206581306,0.36789586996223583
84.75297944,-0.017245050880166268,0.19744516132117965,0.18066237579057126
85.25317944,-0.008136541837683274,-0.09797208333881727,-0.21731112429909494
85.75317944,-0.05242324534577174,0.020499305270847614,-0.12262580369807186
86.25317944,0.017041607939403,-0.16253473656548564,0.28310881051228204
86.75317944,-0.00546938572851595,0.13933509960827195,-0.06131584264271499
87.25317944,-0.06929822954981138,-0.16085147827437132,0.16038337032908337
87.75317944,0.07690594249939117,0.1671532556917618,-0.0006176489268255286
88.25277944,-0.03603007413590508,-0.11899099806363844,0.07351890630663259
88.75317944,0.005429561276818563,0.1696119941648831,-0.11830326997592983
89.25317944,-0.020502711488782542,-0.11988471255532505,0.1490321670793033
89.75317944,0.09130680580902599,0.13285905615444352,0.0408484212268324
90.25317944,-0.05835759938340125,-0.17721727565325046,0.14323640339343732
90.75317944,0.02974364578134931,0.17139907093165216,0.028050866529266263
91.25317944,0.003389150913790553,-0.09528480057748641,0.06217413411094767
91.75317944,-0.03458636623857483,0.07787260576879657,-0.04015179422518144
92.25297944,-0.07207687614250412,-0.008057955123418413,0.03446113205133866
92.75317944,0.04451798378257262,0.015409360600300426,-0.02564826225355391
93.25317944,-0.059408686617848136,-0.011626090604449545,0.023578660733924908
93.75317944,-0.004763060412793756,-0.08894601503607082,0.07999432940829145
94.25317944,0.020449356269800628,0.10909935183600257,0.07890888582019334
94.75317944,-0.05197852142006256,-0.1154737338730892,-0.08674893989283458
95.25297944,0.022301581252473137,0.1321612312007584,-0.0728391037472666
95.75317944,0.012578477871467328,-0.070459188658372,0.12254596590683081
96.25317944,-0.014281445027675635,0.309725614385126,-0.36598653464262787
96.75317944,0.05101855605994212,-0.31487193398668695,-0.33291083883299416
97.25317944,0.032638495178781805,0.16811246750978553,-0.04982887718596463
97.75317944,-0.02097352173215558,-0.2622277615711334,0.2066305550436594
98.25317944,-0.02253160412926464,0.14242072872682812,-0.20222228796559377
98.75317944,-0.08684711115374076,-0.05703463672906532,-0.11889785879656699
99.25297944,0.073933694384826,0.13028140608922364,-0.06238518367150078
99.75317944,0.08786727361062845,-0.18562775972463957,0.16471454394241278
100.25317940000001,-0.14085706154928515,0.08001865228145748,-0.19648531280588233
100.75317940000001,-0.04408269505760695,-0.07122145849370572,0.14425200059808213
101.25317940000001,0.09054063467803766,-0.01268325499745159,-0.05881060993536272
101.75317940000001,-0.04222477552449507,-0.07267402598079714,0.036586027367531075
102.25317940000001,0.02733261127141781,0.10180747011384815,-0.030889071142622637
102.75317940000001,0.0005951808679038345,-0.05196919932218731,0.10437964928544739
103.25317940000001,0.08382693336811986,0.13735834007808928,-0.009975767167804682
103.75317940000001,-0.03530387931482765,-0.08107551849570109,-0.09301358689702961
104.25317940000001,-0.0007894336564081022,-0.011312534034871482,-0.021807877225286317
104.75317940000001,-0.024162455884850838,-0.10211092274245256,0.08843603369369561
105.25317940000001,0.2095928086744226,0.1545476182657352,-0.02408382941293211
105.75317940000001,-0.22095699164812746,-0.035475953556883814,-0.05031361104223411
106.25317940000001,0.2684257029166571,-0.07628732955971261,0.012426793130779079
106.75317940000001,0.0827733523903551,-0.02131584058667445,0.17934335216658698
107.25317940000001,-0.06107830684121066,0.05294665490594773,-0.04827107964184021
107.75317940000001,-0.139337033726912,-0.0380990996811253,0.16292282116575854
108.25317940000001,-0.03441391064772601,0.08545325052568867,-0.13192519145008785
108.75317940000001,-0.060586641001755794,-0.02890067683133319,0.1473260488549479
109.25317940000001,0.0644823898701719,0.10430875183031901,-0.08503413165099921
109.75317940000001,-0.015990412911251185,-0.06412241408681035,0.0090893413479217
110.25317940000001,0.05924674794034018,0.01682397505018191,0.016293478291198267
110.75317940000001,0.038911840251505146,-0.21224161787085394,0.01399645137594427
111.25317940000001,-0.0685867593833907,0.09129112663894817,0.16309915093940566
111.75317940000001,-0.03879462983914332,0.07864218088321856,0.0546266914861634
112.2529794,0.03590165018114762,-0.016286028198513505,-0.04380110590533658
112.7529794,-0.045562170334069424,0.015688378941978328,0.047360452362721454
113.2529794,0.028298032660146077,0.00787256742738086,0.1239878578029002
113.75317940000001,-0.05269614406672316,0.17331677642677998,-0.0014915389906309817
114.25317940000001,-0.05749620308269335,-0.10753893339442973,0.020817905001530294
114.75317940000001,-0.05153662996571239,0.03502581843990261,-0.03646408645483245
115.25317940000001,0.06232039778851091,-0.16729025563166894,0.12809003980925143
115.7529794,0.07248746194240996,0.14574523735348477,0.05724999454790351
116.25317940000001,-0.10292719050352775,-0.14180141466265944,0.02931377891536947
116.75317940000001,0.0959169907546783,0.019704769336413328,0.08370914295226817
117.25317940000001,-0.04017744561236597,-0.15399565022105738,0.5637841579899698
117.75317940000001,-0.07012197329991451,0.3271388868379404,-0.03930364518896749
118.25317940000001,0.03676215357967497,-0.08930807259413281,-0.14369604226930976
118.75317940000001,0.09725405533595581,0.22384631512247238,-0.13149805467207631
119.25317940000001,0.028988248411543956,-0.4104989008172705,0.3586448393080607
119.75317940000001,-0.1056764934464714,0.28620466464059297,0.0448008166383487
120.25317940000001,0.0018963229545645088,-0.21010242638275614,0.23309687117577774
120.7529794,-0.15783615908025042,0.26831436064160785,-0.011541385306214616
121.25317940000001,-0.016462071169207722,-0.1590587947797648,-0.09507514828769059
121.75317940000001,0.04533588933799127,0.15455130543033554,-0.09316523238762602
122.25317940000001,-0.037574349965640394,-0.1959532660971565,0.044236673281581644
122.75317940000001,0.07339486008546643,0.17402290768047782,-0.07202262409289116
123.25317940000001,-0.0017163260929768344,-0.09761804644633436,0.047223474806548385
123.75317940000001,0.02632698375780925,0.05959932396013384,-0.1144733259378456
124.25317940000001,-0.029296183358252525,-0.24757005469096893,0.14054027706866465
124.7529794,0.07300724515045061,0.27066521353892925,0.005437932659607138
125.25317940000001,-0.05217485240866386,-0.19148295774297489,0.11571256325833684
125.75317940000001,0.005456232005155813,0.20421389637602153,-0.12335710918322502
126.25317940000001,0.001792074061543093,-0.2831172016134849,0.11705021779691353
126.75317940000001,0.12822063046213641,0.3121054506582456,-0.02309219493853963
127.25317940000001,-0.019062033210135085,-0.2612140296368534,-0.016590784661868495
127.75317940000001,-0.13395707499276902,0.27536625486069577,-0.1582335108304413
128.25317940000002,0.17064985135717328,0.01644263380177509,0.2323525409246994
128.75317940000002,-0.026302654861105043,0.10752586591433845,-0.38143686368855806
129.25317940000002,0.1423112130166824,-0.1582548068297069,-0.280918906686014
129.75317940000002,0.05028688903275874,0.059858613507561456,0.31332382659673547
130.25317940000002,0.0269298423508161,0.15481057405136694,-0.10926038330334668
130.75317940000002,0.058569483334654254,-0.014414328600891719,-0.8114321339318825
131.25317940000002,0.04118796162878919,-0.17180953947456012,-0.29989270556319647
131.75317940000002,0.38178977527825325,-0.636168182835917,-0.004915910270344576
132.25317940000002,-0.060142334137634895,0.18708629868019686,-0.0498551260463082
132.75317940000002,-0.19366761503232652,-0.2509327055616391,0.05356599264025605
133.25297940000002,-0.03438223476278415,0.12373930530762169,0.13650270073567658
133.75317940000002,-0.10408476547226721,-0.220602133971295,0.2828774124187473
134.25317940000002,0.06558149433872767,0.37629273983424355,0.11770930259376959
134.75317940000002,-0.04525702619136226,-0.07405276535696037,0.09719734107606431
135.25317940000002,-0.011316511685462249,0.10414824580705336,-0.17729180069371733
135.75317940000002,0.07604433827088479,-0.24967232875281464,0.5071440378394655
136.25317940000002,0.005221726155417015,0.32181697781587376,0.06023211049979233
136.75297940000002,0.03268628249330788,-0.050600555732073504,0.13364435085688808
137.25317940000002,-0.02770997603965846,0.27064382228134004,-0.1910502145156686
137.75317940000002,0.004062671914083855,-0.0656396911582689,0.2633290249803587
138.25317940000002,0.001274978696335316,0.19263947883417717,-0.30870866418991677
138.75317940000002,0.06040849471818512,-0.009975824879927743,-0.1303002053108589
139.25317940000002,0.02408768454757003,0.043353796715140745,-0.599599921389353
139.75317940000002,0.005465448566525239,-0.2058421899364413,-0.035907933032622054
140.25297940000002,0.02735510967078834,0.2670602321400783,-0.0668200998523704
140.75317940000002,0.0976695467102321,-0.11554471477308473,-0.34392617955856586
141.25317940000002,0.10538108245137452,0.18329032973710863,-0.2368141077262632
141.75317940000002,0.006949950344774487,0.1712027897268232,-0.2217926161488376
142.25317940000002,0.14119463973030363,-0.32945218911063995,-0.6183310138136815
142.75297940000002,0.05392225183470985,-0.22315723069030832,-0.10325265328171794
143.25317940000002,-0.014466458724676706,0.10656075380712425,0.4921095865936487
143.75297940000002,-0.01375863621699196,0.2121504465258005,-0.48763557103487315
144.25317940000002,0.07648871357181988,-0.22994618269146375,-0.1207296983565136
144.75317940000002,-0.007706272468547153,0.07608053240157461,-0.11120655472536498
145.25317940000002,-0.062299146281137786,-0.3822533995811429,0.08811292434463244
145.75317940000002,0.0677819206678294,0.14426063035369185,-0.04756714330248375
146.25317940000002,-0.04399694203511172,-0.10604816493598544,0.0663403801112175
146.75317940000002,0.07015184891766649,0.18002803625714228,-0.1367396349377109
147.25297940000002,-0.04085992586214833,-0.2260359754841951,0.1803990573683749
147.75317940000002,0.11982443057118049,0.2739609031740072,-0.07129587172890567
148.25317940000002,-0.011036000401319605,-0.1768158750603151,0.10135554459404407
148.75317940000002,0.08254729125200325,0.27870591851988524,0.08275710329283563
149.25317940000002,-0.06895706897138755,-0.15357463991046777,-0.06951593981848295
149.75317940000002,0.1313693771373618,0.16330256597016238,-0.08525374885900769
150.25317940000002,-0.06032610848496062,-0.33726886060805794,0.12931537666421267
150.75317940000002,-0.015048805415563393,0.2185555571881429,0.14335358713555252
151.25317940000002,-0.06014568078078514,-0.23681448375009448,0.18926449201646214
151.75317940000002,-0.0252997750726341,0.2759513973765394,0.04530404746413023
152.25317940000002,0.1100564674974717,-0.004392759970752866,0.037680383920059325
152.75317940000002,-0.04550817960012976,0.05205781518889795,-0.258293640509452
153.25317940000002,-0.08868665914867221,-0.04512992016772341,0.027525647070523088
153.75297940000002,0.0167146297181156,0.16946472378305633,-0.280168490345405
154.25317940000002,0.034292895130062534,-0.14627014826145235,0.13652291884239737
154.75317940000002,0.0681396528250796,0.09951380619846871,-0.27840808353122637
155.25317940000002,0.05157954356936993,-0.34558061688382835,-0.046824777654859116
155.75317940000002,-0.09939596787637967,0.019650980855041005,-0.09304936761266502
156.25317940000002,0.2143551555947685,-0.16580767378491143,0.24672083203318385
156.75317940000002,0.016348552057403265,0.21001324798446036,-0.054631132498574625
157.25297940000002,-0.07176308407681038,0.005111125743585341,0.031262904753048
157.75317940000002,-0.11652237249159668,-0.11682251344398109,-0.15814447224376513
158.25317940000002,-0.01822212669888051,0.03468309607233345,0.023503595721888787
158.75317940000002,-0.13799033131038546,0.0513591012455044,-0.14997128446177016
159.25317940000002,-0.053598787632365814,-0.056120886684344444,0.07732556275586325
159.75317940000002,-0.01230717118966715,-0.05226206300818641,0.08441458120442201
160.25297940000002,-0.04791660174561429,0.04576232860968913,0.06557303119381393
160.75297940000002,-0.005174310235973414,-0.06436623274214277,0.09804965452336051
161.25317940000002,0.021770748928558598,0.0833695950726041,0.07573386340968068
161.75317940000002,0.0351861871012413,-0.024595701439343764,0.22960855347406917
162.25317940000002,0.05038433774577603,0.11865887363315375,-0.031210141787748998
162.75317940000002,-0.019835565641267483,-0.1717768807623602,-0.10941650570348273
163.25317940000002,-0.03313690042463724,0.26091941142051484,-0.1817443648492891
163.75317940000002,0.12887821176015646,-0.06737563295849962,-0.016274770461239655
164.25297940000002,-0.020977687824930213,0.033603050785962256,0.04721285252030344
164.75317940000002,0.025654007462086507,-0.18455806004578082,0.1324670991021441
165.25317940000002,-0.018332691330389016,0.38497125357384254,-0.07837484863358615
165.75317940000002,0.04988106476164683,0.15519953830813482,-0.4477753878272432
166.25317940000002,-0.03862762573015862,-0.08129442902200125,-0.3745971774603201
166.75317940000002,-4.8797963158874055e-05,-0.0017415063268135511,-0.4466793556096882
167.25297940000002,0.08540670506409105,-0.3036443743654445,0.06255090875525506
167.75317940000002,0.04279415183890865,0.339216064912963,-0.29293027624847956
168.25317940000002,0.03053067763186993,-0.24852489528412547,0.015462548288905746
168.75317940000002,0.15377760380669814,0.05766226337254868,-0.3357744308552342
169.25317940000002,0.10973226212849861,-0.2629349845564346,-0.11241098240090276
169.75798332156862,-0.029574124556652998,-0.03314729829209231,0.3133102584404633
170.25817940000002,-0.10752183150446618,0.019682820646811983,0.24454710649750125
170.75317940000002,0.22000696496332572,0.25285490363325075,0.10202179491722221
171.25317940000002,-0.13739210816141248,-0.06099699999964673,-0.12570544407170434
171.75317940000002,-0.0447747316733098,-0.16757193918831603,-0.32306218267616127
172.25317940000002,-0.045062661362345074,0.06843901585324237,0.15011311274522468
172.75317940000002,0.009054499654738915,0.05445105376442228,0.012381878556334157
173.25317940000002,0.042015928982681194,0.06605926283776833,0.0606047306710109
173.75317940000002,-0.01624415231396002,-0.0521365646162924,-0.20697557416924867
174.25317940000002,0.014658864705224199,-0.05170399112508308,-0.12846662595116576
174.75317940000002,0.07942191851938021,0.008749297251717412,0.07171847724058061
175.25317940000002,-0.019743039304058976,-0.04657910731854968,-0.040744221321184944
175.75317940000002,0.09362022082866456,-0.058623116160485066,0.029704340571849768
176.25317940000002,-0.17366733857443598,-0.1353037614588844,0.1404919638788538
176.75317940000002,0.09037666103477615,0.06614418830474322,-0.031269311018932634
177.25317940000002,-0.046426636549698946,0.03665852709381084,0.041521280218097215
177.75297940000002,-0.08088909392624208,0.19175639660750796,0.005525998285599033
178.25317940000002,0.006091446605607198,-0.06657615812244391,0.05064913749120656
178.75317940000002,-0.06266886200799812,-0.02155163503883367,0.07654118997352874
179.25317940000002,-0.016182247671475258,0.026934639528618954,0.030802364861026645
179.75317940000002,0.13992360199279885,-0.03984704530702511,-0.18844148208446337
180.25317940000002,0.020140472258357217,0.0040418703258217935,0.003395853632282159
180.75317940000002,0.2985728917633794,-0.25001458195660947,-0.0681153037434953
181.25317940000002,-0.02572805258299142,0.0710244572830847,0.11851137947473482
181.75317940000002,-0.1676708183311564,0.05300903150607474,0.0730063890081395
182.25317940000002,-0.0640871826368265,-0.08373334254846299,-0.01887453765021481
182.75317940000002,0.06300256162070732,0.03465504997865667,-0.135849674055629
183.25317940000002,-0.0075169166416156905,0.052909173567630044,0.336553053010692
183.75317940000002,-0.04383661244251715,-0.004612129124924154,-0.20074161607419583
184.25297940000002,-0.02922966792815707,-0.01441195761798336,-0.07487555798744579
184.75317940000002,-0.00020025282734300597,-0.008712418698325886,0.09043755871885566
185.25317940000002,-0.0212873611551054,-0.06853187970910667,-0.11541605915567808
185.75317940000002,0.07352984277443152,0.02394933055447461,-0.029990972893894657
186.25317940000002,-0.07656143292294759,0.18394690742832043,-0.025062914330220506
186.75317940000002,-0.008944562829423974,-0.061522906521566424,-0.032153988591419914
187.25317940000002,-0.03244053717703146,-0.07613054602148922,0.04458627099157263
187.75317940000002,0.08912169246944276,0.1158660334938027,0.0036230498696459366
188.25317940000002,-0.01047435388862295,-0.07970271900302085,0.13484629284872296
188.75297940000002,-0.056588312858239204,0.1078119926679145,-0.012280538301100558
189.25317940000002,-0.0480874480712202,-0.14750905263205558,-0.23865602311149503
189.75317940000002,0.1610047288366932,-0.14411915615950702,0.22437183591858523
190.25317940000002,-0.31006498192411375,0.026278871081490848,-0.2897921919546236
190.75317940000002,0.14808415497100202,-0.03186130443403722,0.08188584780588572
191.25317940000002,-0.1558464394364852,-0.043052692697978755,0.3578681144215533
191.75317940000002,0.17082996108078397,0.031110164469226143,-0.45367219438544026
192.25317940000002,-0.04544367962883291,-0.2086438218187282,0.09571642985751388
192.75317940000002,-0.07369161103156421,0.1704746277188728,-0.0365419685327969
193.25317940000002,0.07617569686614006,-0.18526309734568552,0.11611675182098825
193.75317940000002,-0.002937197346300956,0.10071771147080169,0.0029917425870630908
194.25317940000002,0.010121887916849075,0.07169610282432995,0.2933769237726366
194.75317940000002,-0.03822347107435303,-0.06607380703682039,-0.279334805845692
195.25317940000002,0.15264192122913128,0.11487054391871414,0.1750095643668157
195.75317940000002,-0.07961639951790957,-0.05893264216724141,0.11721345729681831
196.25317940000002,0.018766528921390788,0.14597321442710032,-0.024551094359338884
196.75317940000002,-0.004356437657359737,-0.144460128270218,-0.1743199920272696
197.25317940000002,-0.059072798671529876,0.05666914724014292,0.06110892273664668
197.75317940000002,0.07732505353761382,-0.06091451028431669,-0.09590762754495576
198.25317940000002,-0.003131498408662078,0.10695072932270916,-0.09106257931032942
198.75317940000002,0.06872876528057488,-0.130656428251142,0.12264464041580085
199.25317940000002,-0.043525931040764416,0.11551855537924059,-0.16499570343265466
199.75317940000002,0.06258384235852542,-0.16075764488261818,0.18787753899512796
200.25317940000002,0.019958223227118297,0.1860592424431859,-0.0332398789230762
200.75317940000002,-0.045823648891380776,-0.12082306802858685,0.20630534901747966
201.25317940000002,-0.03620866022805451,0.07961898185061048,-0.38884023031448073
201.75317940000002,0.10679718318050382,-0.03687118525319956,0.37193895190022097
202.25317940000002,-0.08306599451627684,0.05151468382090467,-0.3564762127991776
202.75317940000002,0.02243074021011767,0.10611573234130774,0.018674477877712814
203.25317940000002,0.07025056979810905,-0.18193337459382047,-0.08442186449748319
203.75317940000002,0.05206045117268626,-0.17177919701034558,-0.031136887639543545
204.25317940000002,-0.02223383035112133,-0.47537317116049627,0.8480468230548859
204.75317940000002,0.04435916361477053,0.23072429959207075,0.8731785649584307
205.25317940000002,0.14641753425672888,-0.26505390844598803,0.609025941579649
205.75317940000002,0.4666258419783194,0.5540181530240582,1.0349789166277217
206.25317940000002,0.30596256381961867,-0.048821198399293095,0.36348288477353535
206.75317940000002,-0.2903646844525845,-0.09605955727366011,-0.12224037054420743
207.25297940000002,-0.1773582994793756,-0.1271147663708027,0.12525893510464234
207.75317940000002,0.05975676459595504,0.02976143782581432,-0.058074884608288226
208.25297940000002,-0.3079989178704126,0.008068150460099814,0.17219557582553682
208.75317940000002,0.34216018274003057,0.025241417157643234,-0.38821366357778797
209.25317940000002,-0.2564627906522158,-0.055642476887750106,-0.032803004860192414
209.75297940000002,0.2808823105724688,-0.06415883298666017,0.003152711066677166
210.25297940000002,-0.12921022883721642,-0.11700742457971196,0.2417230930154017
210.75317940000002,0.04822180958209477,0.16394108504514546,0.13808740082955862
211.25317940000002,-0.03700391222868642,-0.01781286866609179,-0.3375730482523178
211.75317940000002,-0.055532351593598435,-0.040492945066367934,-0.022204747528557986
212.25317940000002,-0.018629208326929242,0.08953538405082638,0.10536760828908832
212.75317940000002,0.008948701253621292,-0.007606822158913297,-0.1569196401103762
213.25317940000002,-0.1281070492448886,0.0648380410260018,-0.27977749350132664
213.75317940000002,-0.09948953990553085,0.09205206315790886,-0.034881735562340185
214.25317940000002,0.20545692998372014,0.1139726189334474,-0.014904452683368818
214.75317940000002,-0.014907032745310323,0.07826298056489671,-0.7261907445938101
215.25317940000002,0.18577143703431587,0.16810862962492842,-0.24563995404572872
215.75317940000002,0.24593337800578827,0.19174456520783728,-0.4636401199360034
216.25317940000002,0.3956616370355724,-0.4001811079237704,-0.4500032939036665
216.75317940000002,-0.12500064327172128,-0.14806020632838662,-0.5274108940993325
217.25317940000002,0.27918441407508016,-0.33044156986846757,-0.03189431459114454
217.75317940000002,0.0018421646495011068,0.07624388075373989,-0.18505506588709367
218.25317940000002,-0.021677061839822986,-0.22365818235039422,0.09919244877367657
218.75317940000002,-0.033820232437719706,0.05822400299664845,-0.0268265056809837
219.25317940000002,-0.16768549073291844,-0.08394743022372651,0.13434593225526137
219.75317940000002,0.09923618377203745,0.15360826683481776,-0.11436354740490773
220.25317940000002,0.06419117315294484,-0.07433837149599413,0.16420690826319176
220.75317940000002,0.0015778319114391009,0.09585496302623138,-0.11331838529341551
221.25317940000002,-0.09184745132499206,-0.24300559879151415,0.011098583152498042
221.75317940000002,-0.022452216910274075,0.16107559117507744,0.006350523851352392
222.25317940000002,-0.06347159008397224,-0.017476227527911215,0.16930489806584967
222.75317940000002,-0.09236802686286563,0.15205063922860776,-0.1461976033840867
223.25317940000002,-0.04425591652603298,0.016382761100591895,0.013312869003386785
223.75317940000002,0.05474769207190558,-0.08192458049922342,-0.04618946527462018
224.25317940000002,-0.04641379210033188,-0.06128928513583735,-0.06079494611889479
224.75317940000002,0.058940081637679664,-0.08443945897518695,0.3071411486278072
225.25317940000002,0.012847184207610544,0.12704285748752792,-0.169713120199943
225.75317940000002,-0.06563151815733029,-0.11542052448112025,-0.025258638847806356
226.25317940000002,0.013598794868019291,0.15576267295074472,-0.1927304251269217
226.75317940000002,-0.02225151271930519,-0.03659164730059897,0.04746497210010712
227.25317940000002,0.255283051618936,0.023122406460058285,0.04709120834130373
227.75317940000002,0.022405098932030146,-0.15658470183533452,0.13307006779304834
228.25317940000002,-0.13509743705147587,0.24191470682278246,-0.1162167504803167
228.75317940000002,-0.12579904302793196,-0.20962359296367183,0.19177217662529647
229.25317940000002,-0.050019294273436515,0.1771855030188163,-0.22144778973661888
229.75317940000002,-0.011465825772985582,-0.1642879889881331,0.24385456137904726
230.25317940000002,0.02287633073469226,0.32148666381534596,-0.3001313816989101
230.75317940000002,-0.07657642110059043,-0.2523784254292084,0.1722326675073324
231.25317940000002,0.05154734517149841,0.15746504556787208,-0.18202672621025073
231.75317940000002,0.05008187343182012,-0.25538478110097246,0.3240740507079973
232.25317940000002,-0.12034679281580102,0.19545790398589846,-0.2011298375458054
232.75317940000002,0.2020973687984727,-0.013370260846024565,0.19147782898819898
233.25317940000002,-0.012654020847863873,0.05654471344475237,-0.2830767155242593
233.75317940000002,-0.016738838308107188,-0.07667018380933789,0.21542137932267713
234.25317940000002,-0.14543505423807512,0.10728824414618905,-0.27491049946203183
234.75317940000002,0.04886145762724649,-0.12081912673772033,0.21245738667473765
235.25317940000002,0.006600676641593349,0.13752705409916902,-0.11875449546536455
235.75317940000002,0.040458461860972926,-0.14724925123262525,0.09053586943514252
236.25317940000002,0.03818127226086053,0.09178995540442514,-0.08352929551618406
236.75317940000002,-0.055728506752555335,-0.128811022811175,0.130397623349647
237.25317940000002,0.017878623598115987,0.11910072446354288,0.11586096602498445
237.75297940000002,-0.026884399634598957,-0.08175147638930894,-0.02604277188608333
238.25317940000002,0.049553823861460226,0.1286135465702957,-0.2058352416246779
238.75317940000002,-0.12517556656414994,-0.13062393451765714,0.10457798152881756
239.25317940000002,0.025910741138654103,0.12376787570164341,-0.0007286929943682565
239.75317940000002,0.011394330181501626,-0.05354573353648125,-0.012163837328992044
240.25317940000002,0.037867153855663346,0.030569855858734424,-0.13756402988945818
240.75297940000002,-0.029874213638346695,-0.04444675844836487,0.002239008180096966
241.25317940000002,0.03757629753131635,0.018154481303070024,-0.0849070210775325
241.75317940000002,-0.05295255469702962,-0.025619983325854134,0.19420725994600507
242.25317940000002,-0.028461753307996183,0.03611449411635136,-0.05023553059617836
242.75317940000002,-0.049841092712161875,-0.014847348693987645,0.10262578337286726
243.25297940000002,0.05336930368086137,0.01146201930464222,-0.0436640127072365
243.75297940000002,-0.030053839186984736,0.03093163577018646,0.03029159064686004
244.25317940000002,0.02896403533902592,-0.023558225806129204,-0.07051760144406788
244.75317940000002,-0.08466943806074907,0.0169380418326165,0.04519348372447422
245.25317940000002,0.054307988474017244,-0.07349474191528958,0.012474652806112107
245.75317940000002,-0.09390780018043327,0.0878487210880416,-0.04527558963984
246.25317940000002,0.07206368533334398,-0.10090809924465054,-0.023091852325430588
246.75317940000002,-0.010121194466425556,0.13732276398578747,0.07147727897991638
247.25297940000002,0.1290466943155025,-0.09019837124186919,0.15597304516343363
247.75317940000002,-0.0624882181974459,0.18309882063228294,-0.2039787285057575
248.25317940000002,-0.017895693096668514,-0.2172174819171887,-0.11988671334539651
248.75317940000002,0.007296164091965774,0.10496946320096616,0.022648178332656647
249.25317940000002,0.051166756605892386,-0.1532683835529906,0.0942689171897979
249.75317940000002,0.03285696086937117,0.13152524087531303,-0.05855615431252388
250.25317940000002,-0.07631608899170667,-0.15963512932486845,0.05174847171263346
250.75317940000002,0.045668222067677525,0.1347663294457767,-0.0786476554616153
251.25317940000002,0.008641626646552256,-0.11137558321913772,0.014451180480367984
251.75317940000002,0.019375233020751437,0.13981829087821632,-0.07105515294085134
252.25297940000002,-0.020538550353224765,-0.20704687180397754,0.2035396445176485
252.75317940000002,0.05101303640214648,0.24632945542730067,-0.03501096769402226
253.25317940000002,-0.041568063264539074,-0.1623396346447194,0.019488547950775065
253.75317940000002,0.022807363938555234,0.0851150530123566,-0.09679007154259132
254.25317940000002,-0.012137315707189636,-0.027614441510562936,0.19488547676502357
254.75317940000002,0.0512758707228148,0.042458649756642694,-0.18399073415995704
255.25317940000002,-0.09107194823442125,-0.022220839735461927,0.13948059162161408
255.75317940000002,0.003675820906688845,-0.034637298279555764,-0.11430066633770039
256.2531794,-0.05614072420727328,0.05640449628138193,-0.11809274996448826
256.7531794,0.048271207011286885,-0.1351067603339837,0.0948121186685515
257.2531794,-0.023692850324936367,0.07590955681269894,-0.0668189823973251
257.7529794,0.007555104470300818,-0.12510569795664694,-0.016860623424067456
258.2531794,0.02427103575003558,0.10916441624646382,0.10136381768457975
258.7531794,-0.002791814972102451,-0.1556742360574616,0.17136427556415465
259.2531794,-0.05566247855938358,0.12853611803571088,-0.018231372548857268
259.7531794,0.03622174325245516,-0.07297396764234437,0.11472373029231886
260.2531794,-0.012178001250626075,0.05751799077920846,-0.049729630687092775
260.7531794,-0.03582410073528315,-0.0075456556644107105,0.19237746685099033
261.2531794,0.027151138861477495,-0.0015063335523573696,0.10275950935171427
261.7531794,0.06104558824429272,0.1770924083454828,-0.23707141106456792
262.2531794,0.0683832771654639,-0.2698876162810139,-0.2900783637266513
262.7529794,0.13603158669597043,0.04762228175010991,0.37836776195773103
263.2531794,-0.09806604900013668,-0.057675402644079714,-0.04497202409095383
263.7531794,-0.03729291157706429,0.12192013010665834,0.04633001839414821
264.2531794,-0.022511741098327685,-0.0038688233858281463,0.29676444632002263
264.7531794,0.02203723785461932,-0.08877491625611844,-0.20060324754983816
265.2531794,0.032776462782659506,0.052872269398267696,0.11006095966227893
265.7531794,0.013862390052766141,7.262963727059452e-05,0.07500382263716583
266.2531794,-0.14276158240272058,-0.12451581574905292,-0.058164555465668705
266.7531794,0.029702705743841474,0.19858102251489984,-0.07046017490278707
267.2531794,0.03395886235421476,0.06441855089738797,-0.29641460732929525
267.7531794,-0.1541374586899529,-0.3108215230884028,0.16597755991109797
268.2529794,0.1508843177701533,0.30995090785122453,-0.08965079063694889
268.7531794,-0.02882989723218521,-0.05075332700652215,0.049809710441272005
269.2531794,-0.18677289448715034,-0.29536923177668706,0.0022478363051080487
269.7531794,0.11752439074794895,0.26786711102740457,-0.10431378561774843
270.2531794,0.14198711904742298,-0.07572925205553004,0.07772558426944734
270.7531794,-0.30371419904148694,-0.12805440004418897,0.006212446905388131
271.2531794,-0.005869511518805354,0.25502165125502724,0.005664688922196714
271.7531794,0.16076570677758772,-0.1628484216013667,0.25852623596194746
272.2531794,-0.030218015423497148,-0.09163024952677912,-0.43502048036522345
272.7531794,-0.22970586115373756,0.16015508897614478,0.02983202154697346
273.2531794,0.16345149974808443,-0.29522891717803645,0.1354711167282085
273.7531794,0.1628316529934413,0.14803490387044443,0.16813556856789996
274.2531794,-0.2135800909237285,-0.017115762805653648,0.3317654088583133
274.7531794,0.0013692040687189578,-0.10495959336213408,0.1100086358931531
275.2531794,-0.06725850633906093,0.32040555709480645,-0.2321785634560258
275.7531794,0.1394893385763508,-0.13490592062030168,0.06552281099971316
276.2529794,-0.011509598420828486,-0.1417623595400956,-0.2097175715021675
276.7531794,0.08867781565205851,-0.09103025518604063,-0.18113851147759466
277.2531794,0.10745590425412387,-0.2612838399367966,0.9512096526272262
277.7531794,0.0025320505146076023,0.24228008507066218,0.5381318204075174
278.2531794,0.28659629158049554,-0.14914698417525216,0.710310423788579
278.7531794,0.033771070816792294,0.06306882436138457,0.5669339269743028
279.2531794,-0.1888691627366461,0.08943554071614301,0.16567616686009767
279.7529794,-0.004076910106065353,0.12182165366617351,0.3039474229719456
280.2531794,-0.046428334396790616,0.14147605506435115,-0.011469224189759349
280.7531794,0.06489341308450021,-0.011849878511508564,-0.20191651678232678
281.2531794,-0.06472898995182817,0.012134570577708144,0.17894187197419167
281.7531794,0.04532731012085371,0.04395078353259724,-0.1703884425751183
282.2531794,0.04558317474167361,0.08879715458764416,0.14638480107938126
282.7531794,-0.0705413934685568,-0.05046284248886716,-0.1553105433447742
283.2531794,0.18330064072272667,0.11267787209114083,0.13389539870899664
283.7531794,-0.32419098747382163,-0.002308962925543144,-0.3327582036025166
284.2531794,0.1458994054044676,-0.29481162144233475,0.4096721188483977
284.7531794,-0.12319328663178036,0.02012836603746183,-0.35762499364879885
285.2531794,0.1767808669217132,0.08553092162155217,0.18741017107585126
285.7531794,0.0358400264980556,0.09851859794194967,0.07388763469056778
286.2531794,0.010315805134612652,0.05303648462291334,0.038704734561361566
286.7531794,-0.0965510593924907,0.044618593423800125,-0.10333404103926978
287.2529794,0.054664623237248876,0.013942339701821878,-0.12066274961317575
287.7531794,0.018137225324812184,0.042529627361906706,-0.07103666910509092
288.2531794,-0.025316589812266428,-0.08107435376537918,-0.059782439114964864
288.7531794,0.08786907734991825,-0.00126622035815754,-0.07103855761928318
289.2531794,-0.11829977211329004,0.00357338803438613,0.058045233619330346
289.7531794,0.07400134855013783,0.009988599032929436,-0.07489618073971167
290.2531794,0.12502269782710643,0.010279647216149455,-0.07762554054586597
290.7531794,0.03135908799867008,-0.07922220933900154,-0.09309342906369877
291.2531794,-0.03844697882975661,-0.005819575561436436,-0.08663721713019841
291.7529794,0.0350997432715819,0.09416813880668039,-0.18902976785211403
292.2531794,-0.027563130629046292,-0.10076996280947992,-0.07582572759991932
292.7531794,-0.009323081470312992,-0.027828220793535023,0.11967133235364573
293.2531794,0.16529081047753633,-0.1427534175361047,-0.0546879549560424
293.7531794,-0.21387879634957876,0.14286165637837578,-0.18325185575556058
294.2531794,-0.1523876956741276,-0.14160943240504345,0.21942853118931446
294.7531794,0.03739554896652135,0.13846132763207744,-0.13845901755205656
295.2529794,0.05450813363251531,-0.24651525683392272,0.011582530033513484
295.7531794,0.22760507748306394,0.14963892002574591,-0.08127920514462028
296.2531794,0.11237796447121315,0.03494372303691016,-0.008695246797087339
296.7529794,-0.3443066792503267,-0.22792341600640323,-0.038090253781995084
297.2531794,0.23673717047015333,0.06338525448141738,-0.016306708525266195
297.7531794,0.17859981034604444,0.10147767026723416,-0.05401562110555522
298.2531794,-0.45919809558730307,-0.20386005727249393,-0.06844525177819416
298.7531794,0.046490738281904004,0.05716616905635353,0.060359467998884975
299.2531794,-0.003917663270347965,0.16237098361108238,-0.14138177405476737
299.7531794,0.08276822948676017,-0.03011401616405941,0.03682801538698421
300.2531794,-0.0606235573557376,-0.03503571477328605,-0.05445987163529739
300.7531794,0.05853042764206231,-0.006835380933662962,-0.056108531445141344
301.2531794,-0.12061099709182375,-0.006848845760107505,0.01665649184362682
301.7531794,0.5298578193140987,-0.07004367992137774,-0.027498846706517092
302.2531794,-0.2305093163299943,0.006227447432943408,0.026999344899566697
302.7531794,-0.13935211719009777,0.043462729785353024,0.07488735960309198
303.2531794,0.06686176198428313,0.049248709638544434,-0.03814341432944091
303.7531794,-0.058022761616916975,-0.06353042769289464,0.07400200598737625
304.2531794,-0.15828070107706804,-0.05658634948210767,0.03636704007123486
304.7531794,0.0698462008264142,0.0865159989000341,0.019331673186226816
305.2531794,-0.08298800594080875,-0.026435510378711502,-0.01503727892118179
305.7531794,-0.08338943021471636,-0.01822608689052782,0.05700057957833742
306.2531794,0.09123151824511176,0.09971683280910616,-0.2008128203266541
306.7531794,-0.1201053886434236,-0.07854462705889244,-0.0553475921964274
307.2531794,0.12307403691736628,0.2238456898683757,0.146937451573266
307.7531794,0.20536856027454337,-0.0020556425581076832,-0.19148949078557756
308.2531794,-0.16204089128976104,-0.12319722839865152,0.07303420755217631
308.7531794,-0.055125542485254204,0.08586672298507075,0.023234996745658938
309.2531794,0.1503577047122861,0.0832452386448391,-0.013376846841892817
309.7531794,-0.02170901297797031,-0.06718295969617999,0.048768397235626065
310.2531794,-0.03486906707728861,0.14792049825783868,0.04759359281872868
310.7529794,0.03965452732757556,-0.026283951643483055,-0.12097348158726075
311.2531794,-0.07700520475128364,-0.12717494248422595,0.08465524116133634
311.7531794,0.004286467221672461,0.16545227427712667,-0.06486328331606377
312.2531794,0.040733664465070055,-0.04655586995792472,0.011376292818030041
312.7531794,0.02269689153215291,-0.08542617457207573,0.04993281445413434
313.2531794,-0.020408115836334263,0.10554312068388817,-0.11349514469887724
313.7531794,0.0058110495648465155,-0.07309626265389549,0.12301271675992523
314.2531794,-0.05236145698060873,0.03725364590983747,-0.1527360231994269
314.7529794,-0.09197779587851063,-0.1619118670520202,0.02626446860267822
315.2531794,0.04180530390876168,-0.028883544182821866,0.22825333919999807
315.7531794,0.09087444423828497,0.24186531677410442,-0.119280119273062
316.2531794,-0.09030076292332173,-0.15426056071784047,0.032303945824009216
316.7531794,0.034989617528894415,0.18751098682826572,-0.023998666692012446
317.2531794,0.010305239317971462,-0.040803120725903544,-0.0794095536507015
317.7531794,0.021944989908164184,-0.06079068117756999,-0.0015698422428009906
318.2531794,0.11200713742681913,0.150040203363639,-0.19640778342038698
318.7531794,-0.016352969585801375,-0.1932126113797445,0.033487444023644515
319.2531794,0.4612262578268966,-0.012410463918409246,-0.14293058710397782
319.7531794,0.01843954490958533,-0.022963372869473885,0.04709364487843173
320.2531794,-0.5482445231404515,0.06034290130943567,0.15466162628631014
320.7531794,-0.017288234994299094,0.07298447167714543,-0.12001803199617563
321.2531794,-0.2417876428426067,0.07016530988437235,0.028493283334305456
321.7531794,0.18114964867121294,0.02257610397256317,0.05360461898240119
322.2531794,-0.14283783324950142,-0.23187295750044817,0.049845149598606565
322.7531794,0.030702069309451165,0.0676101908804787,-0.3227979648793848
323.2531794,-0.0533851364857117,-0.21141639268123855,0.3158087288768275
323.7531794,0.04889831969341587,0.18338706443052566,0.03267866605024296
324.2531794,0.019525107341538818,-0.23850594048888152,0.16545156226868937
324.7531794,-0.02767572487802786,0.11580046648258312,0.38778015036065466
325.2531794,0.04169521206772054,-0.28704606933257504,0.9979224725516922
325.7531794,0.0767989306586111,0.06537970413929461,0.025764865263678324
326.2529794,0.030909074001370423,-0.13272477341530486,0.30316856125595415
326.7531794,0.07117631767670424,-0.07051100769863364,0.2861201011184413
327.2531794,0.35263431107495713,0.20702197363134972,0.6473339999720885
327.7531794,-0.1180457459226794,0.021629549513334005,-0.14887149760647855
328.2531794,-0.24344107526213635,-0.03936886092570684,0.062455566440636386
328.75297939999996,0.0012804654910916246,0.19127186073169863,0.09824924535920733
329.2531794,-0.04194173016007403,-0.18372461249810937,0.10998049251653563
329.7531794,0.053287126357227904,0.18856847233984353,-0.3236221292214269
330.2531794,-0.11593699801301904,-0.20718457349104408,0.17189118793956087
330.7531794,0.04875487880059892,0.18173553592898758,0.03080022118863761
331.2531794,-0.042453087820522505,-0.12040067283351644,-0.03922174539551879
331.7531794,-0.001469934093343468,0.21795618294960142,-0.07140220950848294
332.2531794,-0.008340597243370584,-0.0613195678494357,0.1879778296434635
332.7531794,0.0008610752630729884,0.1594897277036789,-0.17875459754764939
333.2531794,-0.012510487121677585,-0.24498957261012513,-0.08057067602481255
333.7531794,-0.02945595103077571,0.0796388259723065,-0.0009142041982802196
334.2531794,-0.0077178591994872025,-0.019849609216716996,0.10743510273666772
334.7531794,0.04433582776011666,0.13589335552818832,0.0345584939487515
335.2531794,0.05791600117622047,-0.0033742588222456416,0.019606462551804517
335.7531794,0.07164218846315064,0.019528082832182544,0.051728356214086835
336.2531794,-0.06723933196862615,-0.02938115277032335,-0.06909756479592424
336.7531794,-0.11147671329995971,-0.14399762250156858,0.07323692068210703
337.25297939999996,0.051236253265497404,0.09345801872707415,-0.0732474607271558
337.7531794,-0.05707903646676403,-0.11491267174534674,0.178578529464396
338.2531794,0.08639422172854942,0.15490893776240694,-0.16329974744605566
338.7531794,-0.002291828548917161,-0.15069442520013107,0.1199173307809197
339.2531794,0.014732720460208437,0.22564040921291842,0.026897814962848
339.7531794,-0.0434675056468788,-0.15395488171308444,0.1960240895732441
340.2531794,0.1599385821957812,0.12910918829147022,0.05225434490097554
340.7531794,-0.1136483585034198,-0.19772969163297996,-0.13303030002977004
341.2531794,-0.13467341951959325,0.11203052051826257,-0.3361184536608884
341.7531794,0.16299964588725507,-0.062312949586110306,0.1100479995823051
342.2531794,-0.4088259319638372,0.2158766236047908,-0.1867250250365727
342.7531794,0.061381118366297435,-0.021727502581772126,0.17253171284024976
343.25297939999996,0.048135820021424996,0.11223527838291109,0.06627317245169334
343.7531794,0.00012684458478770866,-0.10114478568406028,-0.0166189450417989
344.2531794,-0.10480788478860865,-0.1225328996885579,-0.027468668067969083
344.7531794,0.1597262737209811,-0.2989332168738868,0.30109003535171636
345.2531794,-0.18722133009965003,0.202185444127991,-0.1147523642548154
345.7531794,0.13659551421596616,0.033395244803952506,-0.15977193659396863
346.2527794,-0.12161403383715962,-0.06974637255551489,-0.016253627717641415
346.7531794,0.10754325346794415,0.11445036708012835,0.09294511228635827
347.2531794,-0.10587716399909461,0.0070958779026470365,0.014752469316352568
347.7531794,-0.01436576186870725,-0.05220868245550221,0.03822030891937842
348.2531794,0.03797871714299698,-0.20192106194917847,-0.22439290920052724
348.7531794,0.03921467905739287,0.08419213454783367,-0.03973660954590563
349.2531794,0.007933015077157221,0.09003787312010728,0.1481944931369976
349.7531794,0.008187156637208452,0.03136957943991867,-0.06820219832239205
350.2531794,-0.03831182054722558,-0.12287106225754771,-0.04638275485347799
350.7531794,-0.10904272876260807,0.08008463042102677,-0.1562179285796325
351.2531794,0.008913697148599124,0.1453440318439366,0.26407640133164323
351.7531794,0.08658869457047158,0.05629743060968741,-0.0762789971006256
352.2531794,-0.014677642959038928,-0.08234051744632204,-0.2016691556291373
352.7531794,0.32887813515713427,0.0010378461677497076,0.21792879286202574
353.2531794,-0.1602482827010009,-0.12066376786123209,0.21080665151409422
353.7531794,-0.03392166881136169,0.04102228468157052,-0.14145351593987035
354.2531794,0.02331509057739973,-0.08561447120695503,0.0308782146667374
354.7531794,-0.09758989191760258,0.11975432498586012,-0.05038954369442157
355.2531794,-0.08685784818166162,-0.15457165877214757,0.10659006511011328
355.7531794,-0.026020903802063133,0.15334728711654236,-0.12920927940822619
356.25297939999996,-0.2592891651647395,-0.030287037342351098,0.07079235222375067
356.7531794,0.2975264649665043,0.055348292410774255,-0.21722472642206064
357.2531794,-0.09035182740605792,-0.002662684326497902,0.3131524472413843
357.7531794,-0.015575358738891716,-0.051895272181214286,-0.08355785129760383
358.2531794,0.17979623129527916,-0.04093069772728187,-0.07337353364568636
358.7531794,-0.036034373255260904,-0.04132459236393786,-0.0009761785101251497
359.2531794,0.047350365638375747,0.12124528940370954,0.10815627764873303
359.7531794,-0.054461121682494486,-0.07804663865223958,0.011937378750566774
360.2531794,-0.07029005563260425,0.18830668589220698,-0.08978113396998698
360.7531794,0.0014882975912746633,-0.20142013792123642,-0.04826349265755521
361.2531794,-0.06968817570651442,0.12263425388202163,0.02190820973879175
361.7531794,0.07110389561023311,-0.0963158112971853,0.17750228605792362
362.2531794,0.0025790314387394257,0.2062102156072355,-0.2227249601004434
362.7531794,-0.010265663843746387,-0.20402754342388418,0.018830574383598368
363.2531794,-0.015751333769081426,0.14478268591793325,0.0363862614461623
363.7531794,-0.032599096388834264,-0.1937125242588142,0.0496569771658709
364.2531794,0.0375522052415977,0.1795805234770774,-0.16777518755814108
364.7531794,-0.015124476194375234,-0.18045499794333014,0.07793253642781767
365.2531794,-3.609335519879742e-05,0.20017639831900155,-0.1032356859701245
365.7531794,0.12370201184710237,-0.06634600021283278,0.12410708944488719
366.2531794,-0.04648398383252643,0.2177743475143119,-0.23781343848898998
366.7531794,-0.1937512818514524,-0.1762248754500045,-0.09077836544340391
367.25297939999996,-0.03092216430501848,0.34805798351246964,-0.17844880788902548
367.7531794,0.0650366275625067,-0.05950705916520361,-0.3364419087495343
368.2531794,0.10092054997126017,0.26128558999103724,-0.3106854708154239
368.7527794,-0.01008274312638895,-0.09090455548509539,-0.31625885326263203
369.2531794,0.1560747652034885,0.22430076653174996,-0.29969750844682674
369.7531794,0.09857414272862527,-0.056634134133156586,-0.3618806135666457
370.2531794,0.0766900875831127,0.12261327285313946,-0.3253772358143136
370.7531794,-0.06202188209713658,-0.3526404989245821,-0.1482877321910882
371.2531794,0.0633870250082471,0.15045452598827555,-0.28179113985918525
371.7531794,0.043823541354919,0.07245846363277555,0.12112870138209413
372.2531794,0.018618452213358606,-0.06387952027589264,-0.21928907877002704
372.7531794,0.09987688755332019,-0.273046036593891,-0.2656446531551176
373.2531794,-0.0620467680944072,-0.18941752250707605,0.3573899784066248
373.7531794,-0.05756717104213052,-0.026050173428901445,0.08089456513535702
374.2531794,0.03873103228556596,0.12838121884766787,-0.19367176591092886
374.75297939999996,0.023926026211284215,-0.013647775224259567,0.10064258875697416
375.2531794,0.00915879824563532,0.10742910089463278,-0.058640580322776914
375.7531794,0.02653188329417997,0.06779743354178573,-0.1932783523044494
376.2531794,-0.15859947149257592,-0.43418232027295245,0.18635615287278737
376.7531794,0.0223881674022221,0.24576702310556733,-0.41363325821425756
377.2531794,0.02424120049866502,-0.023933489527701822,0.37991218710497615
377.75297939999996,-0.05765261373088784,0.16196381718207803,-0.09827243611453254
378.2531794,-0.1828096342188802,-0.3603427376003205,0.692067862295236
378.7531794,0.06780301585526928,-0.1084188706383186,0.4722849578898931
379.2531794,0.10643460903961871,0.24644359067082802,-0.3545185383092358
379.7531794,0.10750389623025945,-0.03321213617898022,-0.25914384344913804
380.2531794,0.030080140403778,-0.2745833154865943,0.8174266581650932
380.7531794,0.07579469790821641,0.033089888981874954,0.2299630746881473
381.2531794,0.06529860932451155,0.08731993505387907,0.2812471421707164
381.7531794,-0.5101614373474018,0.14245192731458478,0.21399803252343425
382.2531794,0.02343804203455774,-0.29409995296761665,0.16355451827731352
382.7531794,-0.06905354108644947,-0.18359634703107341,0.2571918158690968
383.25297939999996,0.5095036968164437,0.14452157376800145,-0.05224338486438498
383.7531794,-0.5584424453274197,-0.010481698106274062,0.20110511302409315
384.2531794,0.3560336611263068,0.015545984275541986,-0.20055257575989185
384.7531794,0.20650372657958574,-0.035787663979449075,-0.039273542869106115
385.2531794,-0.040174941374220785,0.30704271746907275,0.12001209785826047
385.7531794,0.14318329520759407,-0.004333314327729533,-0.46228707698511007
386.2531794,0.06698410658604438,-0.012186848139250271,-0.5051120054507315
386.7531794,0.1351390683489032,0.30905693105275184,-0.5893304380088986
387.2531794,0.07756382279633214,-0.3865530309091653,-0.822926180514501
387.7531794,0.19053784427578788,0.07025048406637598,-0.1303244976844093
388.2531794,-0.18459157801472934,-0.199484794980227,0.33755287377418747
388.7531794,0.002001178163355588,-0.06998325099092775,-0.12577802999469387
389.2531794,0.21525786845104322,0.26074033006452696,-0.07600080436356589
389.7531794,0.18384904192392096,-0.27945496997472463,-0.019832091915729478
390.2531794,-0.26007120141013457,0.10119035726626176,-0.23656282248560123
390.75297939999996,-0.19919805709199892,-0.09105007506179658,0.0899204152195674
391.2531794,0.1059273526722303,-0.06102752524192041,-0.16293375776978206
391.7531794,-0.20687147440994613,0.008614329894792853,0.020063218326304796
392.2531794,0.05184172532237279,-0.17840209731975584,0.052001998174093504
392.7531794,-0.16039253512346188,0.04485992136064208,-0.08784083779945397
393.2531794,-0.15450329759178671,-0.4550320320161584,0.06003826200978587
393.7531794,0.03269618371006749,0.13438460541612796,-0.11517865200980429
394.2531794,-0.060223624091581544,-0.1003808997335542,0.14636299750653606
394.7531794,0.07017964426348701,0.30730346212575155,-0.2845538703490373
395.2531794,-0.15350015329881075,-0.3167269691721748,0.27066879620710443
395.75297939999996,0.07359194129437577,0.26642101901764353,-0.19089252319735017
396.2531794,-0.08779703416993755,-0.13537439801191675,0.16132646483350896
396.7531794,0.21675532958104438,0.01792638503574076,-0.25581147700704165
397.2531794,-0.22884917721666184,-0.17679514311495553,0.09855988894976483
397.7531794,0.1393787406301627,0.04819203567964036,-0.23290815075016968
398.2531794,-0.27091680737820295,0.050115625614926766,0.2975848526533683
398.7531794,0.2777677917961202,0.015341317156695755,-0.1487809643757491
399.2531794,-0.13096270205515637,0.12391540773772905,0.10385557093560566
399.7531794,0.04770571938721838,-0.1488650387202365,-0.07695757177036856
400.2531794,-0.04295771710279922,0.09168720252287699,-0.00404347513787768
400.7531794,0.01009496909465133,-0.12266330309429517,0.02701666453683229
401.25297939999996,-0.12883036245717625,0.2218660687854336,-0.2382695389843538
401.7531794,0.09838877803094481,-0.29216558168296414,-0.20724982999259647
402.2531794,-0.025536862240618765,0.0618465218756572,0.44898040164594166
402.7531794,0.018042158343525638,-0.12715340551242482,-0.19185804085175562
403.2531794,-0.11494661041964271,0.1219893458421269,0.011115302374223854
403.7531794,0.19561067166402346,-0.09951680870011481,0.043376224934395455
404.25297939999996,-0.14529975993771596,0.06403485220723178,-0.0987443243954715
404.75297939999996,0.08800447271461213,-0.1091965566796668,-0.01700021000300748
405.2531794,-0.04827846963332428,0.1173008674852352,0.07608171236947223
405.7531794,0.06960865536135054,-0.09749630676011131,-0.017106136789547643
406.2531794,-0.054159679846869785,0.15891441623059743,-0.036856405047823546
406.75297939999996,-0.015719703240658488,-0.1681216404029518,0.0458193764881437
407.2531794,0.07452285246527365,0.24131135771747902,-0.030899077557574706
407.7531794,0.011651631803705606,-0.10514873517456978,0.08980026093439696
408.2531794,-0.02659054389439051,0.20002304463825574,-0.1867373573830036
408.7531794,0.0916162846203472,-0.11860255736120032,-0.10817709423910732
409.2531794,-0.1746725147700727,0.1394515528046945,-0.7841867827291541
409.7531794,0.20578833067913263,-0.1367720949798129,0.9245519217458704
410.2531794,-0.29454748555744703,0.13534018574862114,0.14307137446359308
410.7531794,0.026280227253067417,-0.26462102914969643,-0.13316654760453275
411.2531794,0.05527637185637459,0.12123213483004878,-0.08690119896890003
411.7531794,0.0052902089040729235,0.13483792208827472,-0.4585898004044269
412.2531794,0.03466910927305607,-0.04914294975491595,0.5853597662775776
412.7531794,-0.08634752831678143,0.0184994585408174,0.0238627943517762
413.2531794,0.09851885951386986,0.04795399882124295,-0.08385373515686878
413.7531794,-0.06906578623526363,-0.28130086144969835,-0.07304617331933043
414.2531794,-0.02272338603619727,0.2279980070163783,-0.04620998754440678
414.7531794,0.02044880290826659,-0.11874470351070392,0.4024815239181093
415.2531794,0.07607980343623141,0.2241779468980057,-0.11187548390819431
415.7531794,-0.07416088467060229,-0.13652789212445302,-0.03714542201540522
416.2531794,0.14457190071914033,-0.056945812095360815,-0.09452753137046763
416.7531794,-0.09876102248727392,0.058874587897895146,0.1331123271886873
417.2531794,-0.06915179791164801,-0.18464885035909012,-0.2645463508492878
417.75297939999996,-0.00700347972047485,0.15662197657641638,-0.060873128833266676
418.2531794,0.06940912415840012,-0.066494906801342,0.5552373173929509
418.75297939999996,0.052407756726291284,0.0866948224908608,-0.21460565975965573
419.2531794,-0.04076006059456537,-0.0633849733009651,-0.16163638297552702
419.7531794,-0.05581591465898442,0.13265503406925463,-0.4507947574537182
420.2531794,-0.009533863940756832,0.004797363836658866,0.3802281991932077
420.7531794,0.006288238477652022,-0.004792173767446001,0.06394484584229124
421.2531794,0.15089341240221665,0.14995754386953808,-0.12439966852514184
421.7531794,0.13146248148551457,0.0483268809403075,-0.2998610470804984
422.2531794,0.3899716270546908,-0.07266402698241507,-0.9257939721437254
422.7531794,0.03178812567212403,-0.19148772275932405,-0.829430263754909
423.2531794,-0.056506637743948415,0.0613109140671437,-0.4989061782851241
423.7531794,0.024869190875591723,-0.3192326600348077,-0.028442507206346716
424.2531794,0.11138495242277349,-0.13892163706216087,0.26358111674540274
424.7531794,-0.30410631613980704,0.08796818616445258,0.3802803436132917
425.2531794,0.09733962137357079,0.07944480529647459,0.558813871499106
425.7531794,-0.1547444896859527,-0.19634691841694296,0.13737474418071888
426.25297939999996,-0.16759201441134772,0.2961097505220535,0.2375230168235682
426.7527794,0.3641551809104681,0.17044863011938294,-0.027905358335196438
427.2531794,0.07673396250478914,-0.26598768775560727,-0.4408006075292341
427.7531794,0.026124226501139963,-0.2708069620674866,0.4213151617130609
428.2531794,-0.0977784345661423,-0.24120176283210884,0.8634471055859799
428.7531794,0.029608997038170964,0.33092044775060714,0.31148849129854744
429.2531794,0.005693155547865099,-0.05203802974838157,0.4196926482482782
429.75297939999996,0.09454048481233868,0.2519816658240026,-0.24831518568856217
430.2531794,-0.07107000477351967,-0.0613922825262414,0.2943543968637572
430.75297939999996,-0.08851562354458505,-0.022242294457901338,-0.05192492998901264
431.2531794,-0.20178411590476236,0.109259306324721,0.19203944754147848
431.7531794,0.1190569429926392,-0.2527805151545857,-0.13196940398816598
432.2531794,-0.029245011571174713,0.13647842353184697,-0.34316116939520247
432.7531794,0.001791999998472038,-0.2704814139285884,0.2682015052705178
433.2531794,0.05453979356451353,0.17648209867481995,-0.03242832142175355
433.7531794,0.1464308177428749,-0.07944267462410413,0.13632730064843604
434.2531794,-0.01911870005399367,0.08356669482726581,-0.08241157603990708
434.7531794,-0.055505416967759284,-0.0600677765485449,0.22530010301962
435.2531794,0.1903561165500552,0.03459323635344395,-0.3157145061795863
435.7531794,0.11401414035828872,-0.05870166977497049,0.03370784752525443
436.2531794,0.06132208108867201,-0.1007322478066899,-0.023135824149886273
436.7531794,-0.47089859064465545,0.11932679911018124,-0.014892447865017717
437.2531794,0.11007388368184451,0.1173953043292514,0.2020474523334389
437.7531794,-0.09627129414016922,0.05061159565441524,-0.23407345758892867
438.2531794,0.1826128203307186,-0.13856533518341466,0.06764915111706607
438.7531794,-0.0968803131519287,-0.08799209271493774,-0.12795170599345093
439.2531794,0.16567344724090688,0.022678836674810188,-0.025189421214906728
439.7531794,-0.12820810250251743,0.09691733835585635,-0.3439864832812484
440.25297939999996,0.16611955565701234,-0.15396451401154057,0.2847485505285228
440.7531794,-0.16427020279788893,0.09971188464886438,-0.13197904626529966
441.2531794,0.0747608441143311,-0.22301961068322393,0.11795258600325231
441.7531794,-0.051085810691625315,0.16537227404405985,0.05973250514518657
442.2531794,0.006798585204599836,-0.08195163416423717,0.0572810663292407
442.7531794,-0.008023796004576254,0.20656545828148437,0.09176274239822163
443.2531794,0.06490746362890235,-0.023859278952648832,-0.11659300831412432
443.7531794,-0.0979605106236573,0.012461596647290726,-0.018949234037971874
444.2531794,0.08831578087732966,-0.17531307287536269,-0.0049526407696227496
444.7531794,-0.10045234322948518,-0.05423371792606237,-0.06723104059304383
445.2531794,0.2182660084204742,-0.056557441718057114,0.10167956421453908
445.7531794,0.1255074387499517,-0.03977208787492465,-0.03605267599860997
446.2531794,0.13328092220118906,-0.035713690850697116,0.004449533617962302
446.7531794,-0.33055247059749027,0.1175911480725466,0.12651044765904834
447.2531794,0.05927001624426333,0.13010223032026189,-0.025705203081563023
447.75297939999996,-0.23579889662046935,0.1294418175125338,0.16539356578963058
448.2531794,0.3892237437696743,-0.09832684289249544,-0.1823758229635231
448.7531794,-0.05926436138157393,-0.07357962735013054,-0.08160862483694173
449.2531794,-0.21234735658051587,0.02426583161122791,-0.060699735433862374
449.7531794,-0.061670804672551316,0.12485950166761574,-0.0872563266840705
450.2531794,0.03917331256137484,-0.20830988259178582,-0.06809819406444494
450.75297939999996,-0.16831824752362629,-0.10503148979398805,0.17466335424110316
451.2531794,0.18559649324384803,0.052398261721819495,-0.07782189430641073
451.7531794,-0.2492518549788202,-0.033303116951011215,0.06234065747441029
452.2531794,0.1317796737307124,0.09289738044554914,0.1433817540499056
452.7531794,0.00872736837299756,-0.15716436829929978,0.05782962831977179
453.2531794,0.019702132254843237,0.08114949860105979,-0.17347362930778423
453.7531794,-0.037431909677619946,-0.21984444850367577,0.14935768575928
454.2531794,-0.01790929276120028,0.20476985530676506,-0.06491764866467227
454.7531794,-0.019647702340965984,-0.10544822713258928,0.2901280897445806
455.2531794,0.005490523065610739,0.11920837887787154,-0.09463208057855135
455.7531794,-0.005503309449090058,-0.19339298718916023,-0.06300088619342506
456.25297939999996,0.0102274058800306,0.11313670064798977,0.009312769150147272
456.7531794,0.13650084590988731,0.09714186490842362,0.06190592908236004
457.2531794,-0.16519313414054146,0.09520586620004742,-0.18035601397729883
457.7531794,0.15607945485099328,-0.06736647990539267,0.08201611350390386
458.2531794,-0.19262117332355,-0.06496722788753244,-0.11959391628267023
458.75297939999996,0.21865848608722913,0.018874928616362405,0.07326970154342473
459.2531794,0.10820867275533594,0.006697205712516241,0.22640640057543573
459.7531794,-0.031204962964471807,-0.053161817704332225,-0.25745851028746103
460.2531794,-0.02693906835308566,-0.3232993634947291,0.24848970349796382
460.7531794,0.0048844163689682925,0.21534840733545416,-0.23276457022020167
461.2531794,-0.02950960470625635,-0.20761502776711727,0.03391989551686922
461.7531794,-0.09747004757223106,0.15949829650614253,-0.0826953577202076
462.2531794,0.13897848021970136,-0.10136896013171093,0.2578396071723926
462.7531794,-0.10322745469040315,0.030622391205471323,-0.25789000429277376
463.2531794,-0.1272670031176773,-0.11100411046047809,-0.10464205048995875
463.7531794,-0.04685001496257317,0.022280120505684425,0.23018376758327413
464.2531794,0.08243093164634882,0.06284915519915549,-0.12292357656803424
464.7531794,-0.018948229429031075,-0.11057297104620079,0.04301602986644443
465.2531794,0.059094637403648315,0.07088525175967669,-0.18865216843591387
465.7531794,-0.22717629104368242,-0.22363282926141104,0.27482801698233933
466.2531794,0.05631257372805795,0.25197865857271345,-0.09567340950974045
466.7531794,-0.05892533834936264,-0.16582311836703423,0.0351281120645643
467.2531794,0.04220305147466651,0.1738825240041154,-0.16498745843603885
467.7531794,-0.20510948056625455,-0.16994698109232803,0.03582108630096536
468.2531794,0.2823516694479195,0.11802052161147145,0.2686913836556193
468.7531794,-0.14578642247599546,0.03569605371525706,-0.1317076287281601
469.2531794,0.01476249378837756,-0.036784287081851684,-0.019069489074187127
469.7531794,0.15860132572952676,0.1193572161588973,-0.039335704460919156
470.2531794,-0.060565933145513264,-0.12347089445678176,0.06390782495757438
470.7531794,0.05534243624113055,0.09832194315764503,-0.1642225321739556
471.2531794,-0.06244153223639065,-0.1396142309983133,0.060446175468709645
471.7531794,-0.09951771886778556,0.08973046674809809,0.07417640027866908
472.2531794,0.18927474787409998,0.08935353354804959,0.028476406083816186
472.7531794,0.050631552317816804,-0.0023393712582385332,0.20115535630436635
473.25297939999996,0.04924278519532512,0.15193719891817084,-0.319020743221459
473.7531794,-0.19044244707723254,-0.298974685953884,0.11813101112037952
474.2531794,0.07568703588335217,0.246151062274648,0.13313451819826466
474.7531794,-0.0373589859924333,-0.11699964095953735,-0.04210474390098359
475.2531794,-0.054701801140497296,0.08062109881360413,-0.08931895878141276
475.7531794,0.07835415275055603,-0.011502607240230117,0.0035970434711473866
476.25297939999996,-0.07413844319957992,-0.07927314766663451,0.030589407703795698
476.7531794,0.11796951710768053,0.12829316096408597,-0.0718133926131203
477.2531794,-0.03857472642184563,-0.10437414581215243,0.021035164059996267
477.75297939999996,0.0033119041580765445,0.14291341745367242,-0.18240422126939118
478.2531794,-0.08922812467696875,-0.16023071914158127,0.16748811770340363
478.7531794,0.0220139022163866,0.1130831532364028,-0.045226132035784
479.2531794,0.05015182967776864,-0.05948730160768452,0.056725277177239825
479.7531794,-0.09069433108088969,0.001048988881913666,-0.07854139338979825
480.2531794,0.0827018869425323,-0.0045626011495585915,0.04632015444079947
480.7531794,-0.09370049943846206,-0.011843879555774975,0.1364257690844608
481.2531794,0.04178186851230272,-3.062880004081059e-05,-0.053251550980135016
481.75297939999996,-0.08459456561025704,-0.062961804729095,0.02152941929966741
482.2531794,0.002444063803816645,0.13343956191083892,-0.07943421233495332
482.7531794,0.05288366387480813,0.036971563174176485,0.03482198302135447
483.2531794,0.014137651708144525,0.0386963499338073,-0.02458646465340708
483.7531794,-0.040621447602244114,-0.11602695632031422,0.1311336115079958
484.2531794,-0.0914814689297861,0.07986382906141744,-0.16376678074070442
484.7531794,0.06368571047898801,-0.12771160556348501,0.006169579495251556
485.2531794,-0.03920679908106469,0.027488527373406832,-0.21259910120835618
485.7531794,-0.011508263926570401,-0.0660871006184055,0.1489502279264162
486.2531794,0.013672401105202736,0.08164330505513534,-0.032070845718450106
486.7531794,0.06977556708160565,-0.021872850566992647,0.06557652331980625
487.2531794,0.010958196423475976,0.1037530401821971,0.14357681007523188
487.7531794,-0.023012573748365454,-0.045955480640589116,-0.026304543448177706
488.2531794,0.011889127767493471,0.025490632878339387,0.09718980684243178
488.7531794,0.06502591582059533,0.027706532362155777,-0.05282229147511689
489.2531794,0.04036633800009506,0.0011353498940701685,0.06064852450912699
489.7531794,0.030243766933260113,0.045260545145097204,0.0431458471993066
490.25297939999996,0.009290557894887263,0.003917787115981175,0.035992580153368744
490.7531794,-0.12034636822815034,-0.1748246892185206,0.18918434601329576
491.2531794,-0.0029946889861606294,0.4158515866557775,0.09435190394171764
491.7531794,0.011248544858011987,0.022771433040261337,-0.42991893209161675
492.2531794,0.09828272764983335,-0.038195361638189394,-0.10285653046840029
492.7531794,0.037964814421299266,-0.10328589554532787,0.09107140319616798
493.25297939999996,-0.08222568386163952,-0.051755833970868526,-0.24558665906809307
493.7531794,0.03901012091981198,-0.10838207995237839,0.15856366737757474
494.2531794,-0.039189033423494585,0.027579730421667982,-0.10592254848960185
494.7531794,0.07811766559442986,0.03846608983786502,0.4184617526805692
495.2531794,0.04222279738465837,0.05052505459083197,-0.10962646515083918
495.7531794,0.02763878660088213,0.028268007720811412,0.0022420557138670303
496.25297939999996,0.06488981613973664,-0.049067493756832406,-0.12366375607962983
496.7531794,-0.030601910365964487,-0.0940120388203601,0.19566030480029092
497.2531794,0.0409776471045813,-0.006258584581792319,-0.2191869994470313
497.7531794,-0.1047316143623252,0.04282539528767427,0.09090692370470707
498.2531794,-0.00915436209801065,0.09458159498953239,-0.05095552270536092
498.7531794,0.06390373052645024,-0.017939136964156287,-0.19345101360082684
499.2531794,-0.0019860528466848233,-0.11919374415408318,-0.10313738078485792
499.7531794,-0.004434017731133897,0.021111532514433127,0.17913905311777134
500.2531794,0.09617179785714076,0.07129612427969677,0.04390484331003169
500.7531794,-0.02690153241825612,0.05330852747953222,-0.1218598317478151
501.2531794,0.06878664375539724,-0.06485779332501418,0.0028068372482765057
501.7531794,0.046110394047512306,0.030110213619906654,0.0025381943284192043
502.2531794,0.026150725217953186,-0.042621827564131444,-0.11225932792447076
502.7531794,0.018705227535342057,0.016012287225230362,-0.28980335962667636
503.2531794,0.2351945329795525,-0.02016981156031682,0.07566352270792857
503.7531794,-0.10329196068761601,-0.05397809701017414,-0.06165655786474225
504.2531794,-0.1870823302296016,-0.013967582805014027,0.4206378070303412
504.7531794,0.04983614443461351,0.10196613685511972,0.1695875017180666
505.2531794,-0.1218533097328533,0.0683692266134017,0.056069939262565836
505.7531794,0.0006241822361553074,0.03512456729775735,-0.18623751130306956
506.2531794,-0.10620626752333819,-0.049145290577125245,-0.04407593523414564
506.7531794,0.00511278150604055,0.03445067068046279,-0.014804019799093142
507.2531794,-0.07219530775397873,-0.016969516108466275,0.034911276401092775
507.7531794,-0.0023261082858193945,0.02653230084517411,-0.16463737813908497
508.2531794,-0.06691525429301043,-0.009555962358293339,-0.0017198703396870308
508.7531794,0.033596358239697005,-0.054918644634394796,-0.05444091347176557
509.2531794,0.10621306340444732,0.1001876855799857,0.05296742523193013
509.7531794,1.2956791437995716,-0.7196491345637308,-0.20275647769701263
510.2531794,-0.6911277581042404,-0.013243115193386971,0.6313608578543338
510.7531794,-0.0763052014393898,0.22353155734066948,-0.3888069064672141
511.2531794,0.8174741763078909,-0.9089738035705787,0.9215430958825769
511.75297939999996,-0.3985361173479577,0.28664909189868704,-0.38738978480733627
512.2531794,-0.12234806288894394,0.11975391943023198,-0.2801491531556769
512.7531794,0.24676625195385193,-0.1139892030902524,0.20567703896094436
513.2531794,0.0013167267495776036,-0.0586770712124734,-0.29178920492045285
513.7531794,0.30113686132825995,-0.45893159480829915,-0.5209831201332338
514.2531794,-0.7214027339426895,0.38198592191275593,1.015671994047309
514.7531794,0.19763215841590548,0.6234718009087592,0.032038985074312146
515.2529794,-0.22278458223971412,0.11795123371711412,-0.23716220326803136
515.7531794,0.20548249945413383,-0.2692723938403083,-0.09636278325825046
516.2531794,0.014304961839723155,0.045306840034565525,0.10089478961815307
516.7531794,-0.2299831051563377,0.09649494279690106,0.24882518067369813
517.2531794,0.15324634229832823,-0.09356204058862146,-0.1932153350911362
517.7531794,0.006235173092029562,-0.06643404996307098,0.019256666529647117
518.2531794,-0.1636261769655144,0.058753936967346494,0.09991654613135802
518.7531794,0.029127772601437386,-0.35511598529031724,0.41860308862265827
519.2531794,0.08402407194371177,0.3268344434845472,0.23282227657695112
519.7531794,0.150773274269207,0.10697455801310218,-0.08896672498304835
520.2531794,-0.18894420043572102,-0.013526399429178281,-0.3944047073974692
520.7531794,0.037548481475187225,0.007718860607096914,0.07380978307314537
521.2531794,-0.05340287474453425,-0.16213032805480798,-0.148462034491052
521.7531794,-0.028636311238352925,0.19038253306063024,0.07914593604832261
522.2531794,0.07343275643283143,-0.19374207537400204,-0.16891830274082026
522.7531794,-0.06999808549912757,0.1381956061898147,0.03115639451863057
523.2531794,0.31850474393340283,-0.2002352410367266,-0.7131996195253677
523.7531794,-0.1382061099133867,0.16513758418801808,0.030194927276005753
524.2529794,-0.05564985193599093,-0.006380092392097896,0.6091196816233577
524.7531794,-0.11848222906487639,-0.057912482830100795,-0.09118965294296862
525.2531794,0.18958302232704533,-0.1919101615682123,0.047321896536342785
525.7531794,0.0452420733374238,0.10865873152630648,-0.06574407804094111
526.2531794,0.011704502701248343,-0.1430397588092001,0.21462179070922496
526.7531794,-0.07897413780873379,0.14946824824417212,-0.07765712397388642
527.2531794,0.022778383625249483,0.00654495795004755,0.026949700127591427
527.7531794,-0.0007158216997963409,-0.05659485979826516,-0.045654345894767454
528.2531794,0.00967223152562205,0.05156989629882049,0.11649329862325572
528.7531794,0.04960406238436171,0.04970969311397424,-0.03503342067142757
529.2531794,-0.05737842844630342,0.01178372161428542,-0.016378926319737443
529.7531794,-0.20911413024006686,0.14479506238416381,-0.041115005726685416
530.2531794,-0.019425866331663887,0.016534050202331705,0.024665534168244088
530.7531794,0.1442712773562741,-0.05957110981153921,0.12445503209377856
531.2529794,-0.10116427157499017,-0.02066886816302747,-0.0257650858045132
531.7531794,0.15104520837646007,0.10060105744598671,0.09739086330317459
532.2529794,-0.025599731999362097,-0.01636429514529881,-0.10468359186302392
532.7531794,0.08164051590576021,0.06934615943332806,-0.13295727499625717
533.2531794,-0.12115608103522757,-0.15607676748533236,0.05577998688563138
533.7531794,-0.0331587372280447,0.07013953846139553,-0.08033986247602432
534.2531794,0.053857560305819584,-0.03855684597673096,0.1030877843624466
534.7531794,-0.0010219686609312705,0.1353126373582749,-0.08532163404582718
535.2531794,0.022274256694824062,-0.15398620134749558,0.02591301006370084
535.7531794,0.02541958639888864,0.2780234072428271,-0.05512836197842927
536.2531794,0.06339285283682457,-0.14592031028656643,0.061087152653021795
536.7531794,0.12538146282843318,0.2823380438021667,0.0013142090497458342
537.2529794,-0.09892020936292582,-0.25235741444944304,-0.12066015068823312
537.7531794,-0.018596611805400665,0.19017061150881936,-0.26278091472400233
538.2531794,-0.0735214643277837,-0.33339531693445684,0.023450766868329687
538.7531794,0.031586677735725634,0.1506642808295655,-0.11687718362896282
539.2529794,0.08182587073988967,-0.2933456485083115,0.18054886169879347
539.7531794,0.07767810583738013,0.037892654847828805,-0.021241169327675963
540.2531794,-0.140061829599305,0.0028457884499018616,0.407483908136402
540.7529794,-0.026300407786047125,0.3400924593312903,0.19784397649371915
541.2531794,0.09955089226882219,-0.06299975390313436,-0.09846765618925409
541.7531794,0.06410741038607158,0.09370290387167868,-0.28045462218639067
542.2531794,0.08207370026390327,-0.16531663109341832,0.17834693523681858
542.7531794,-0.1344285270128837,0.03236832973578936,-0.06488660379527932
543.2531794,0.1446346720467853,0.0620846945803217,0.375025111330792
543.7531794,0.014901583823615925,0.008699440380289736,-0.26156340707623826
544.2529794,-0.05389915990326035,-0.2374701217234943,0.0075850474277075345
544.7531794,0.09723092238125645,-0.11412696011360772,-0.0624102396189284
545.2531794,-0.045641539002686596,0.05101229423992795,0.1810816938116898
545.7531794,-0.10092767321558424,0.18657463543624236,-0.11439296342784568
546.2531794,-0.03482930983052626,-0.026971253406056047,0.10371007891583005
546.7529794,0.0061165553785353585,0.1237450103936721,0.010731950960061657
547.2531794,0.04305639420916193,-0.015876201511240258,0.15923236785923411
547.7529794,0.02500048736922058,-0.0029588859054234785,-0.18992855461192915
548.2531794,0.08734445454450723,-0.10415455263357906,0.05271917928846297
548.7531794,0.012490951633985399,0.2018391810935233,0.0530295239994215
549.2529794,0.01307733032186605,-0.13068486948425834,0.1009971755116538
549.7531794,-0.013871628682403644,0.04360338207943561,-0.2612476138529464
550.2531794,0.004267895173990328,-0.10720175033247566,0.17080472786391523
550.7531794,0.050316540403860646,0.08711186627082743,-0.04725407541244457
551.2531794,0.032982032600767285,-0.3405910349641377,-0.2613229873421073
551.7529794,-0.025951458665318297,0.22101505718378664,0.1832781786828887
552.2531794,0.23378387344341664,0.09094814503317378,0.17308614448756102
552.7531794,-0.042660127026847336,-0.03692884236791521,-0.11789234309148286
553.2531794,0.3880077681344214,0.5257784580940477,-0.7434963635493445
553.7531794,-0.32558774334375057,-0.2699960967213209,-0.21745199654394842
554.2531794,-0.1543135602953615,-0.36854582010946535,0.5541264450825403
554.7531794,0.31640488255876065,0.12750757627725712,0.09286916443157157
555.2531794,-0.07116145273735182,-0.06821991504921497,0.04273907324718682
555.7531794,0.1751939325024165,-0.04600188724436843,-0.014311167617640695
556.2531794,0.06626475027630957,0.05283917606601575,0.011084614987273226
556.7531794,0.16229252435053396,-0.0710044844053046,0.09533394351886752
557.2529794,-0.1936217540995023,0.22440376988057256,0.1597905083464769
557.7531794,-0.30379103766950755,0.09330795436436164,-0.17566405284088682
558.2531794,0.21275200902977967,-0.12162711107332118,0.08364463719394902
558.7531794,-0.09786353113580366,0.21515765332890754,0.07494339194197247
559.2531794,-0.08182131843821691,-0.11726779359265317,-0.20095141329982485
559.7529794,-0.009834477045702726,-0.0804488727842197,0.215354784083251
560.2531794,-0.051656583118896676,0.07541746932167051,0.0014058523334023487
560.7483754784314,0.07867956300650633,-0.266250993019132,-0.027085834275907363
561.2529794,0.33478922922534826,0.09643456996847317,-0.09520350777667269
561.7531794,0.126658830389382,-0.01466404740823022,0.18328591377521988
562.2529794,-0.18279888601913008,0.09806833639700933,-0.1500104151209866
562.7531794,-0.27946389393334675,-0.04406546874794458,0.08854393297140006
563.2529794,-0.30740773765719714,-0.05815040129418834,-0.186014361582263
563.7531794,0.6823023719652145,0.13874651765696325,0.15229513278618512
564.2531794,-0.031815367776503074,-0.22308632070828754,-0.16950443562454787
564.7531794,-0.1514769049389955,0.02878290448981331,0.17675856953356395
565.2531794,0.15865899839307887,0.1151613690240585,-0.06805335353301527
565.7531794,-0.04066833258169386,-0.11593971245022175,0.041683039345554763
566.2531794,-0.11440228899626365,0.10169112211237005,-0.0657981506054801
566.7531794,0.00020171672999749646,-0.04608728711226023,0.11044543410195357
567.2531794,-0.007248705103036455,-0.014702409479979668,-0.1023403733640291
567.7531794,-0.08378856262890715,-0.06268548086078324,0.1764116342794415
568.2531794,-0.09453635456154189,0.052636987853168705,-0.0736634813428711
568.7531794,0.2939218684222976,-0.10180961394850745,-0.0366360033903506
569.2527794,-0.0499728323430606,0.05691106130403204,0.06539472717115
569.7531794,0.04563140309199352,-0.055380218520878516,0.08421170732323134
570.2531794,-0.21052305122413614,0.084877991149069,-0.16351815307608433
570.7531794,0.2680790968364934,0.044824055580933,0.107625730439224
571.2531794,0.007756222507751443,0.06692364448708504,-0.038747162643313675
571.7529794,0.021016138856641733,-0.10620722163007634,0.026698466671296595
572.2531794,-0.1515653664182069,-0.05059295336721588,-0.07053993137151623
572.7531794,-0.03172903233268496,0.111319549239397,0.04048051065006222
573.2531794,0.059810661520014845,-0.14551993292780832,0.052882839041813706
573.7531794,-0.058556091546107664,-0.0013637030752451618,-0.0405840446495573
574.2531794,-0.16985787362459226,-0.09748524481701784,-0.046598235426700906
574.7531794,0.13001376732534178,0.09729411151712082,0.09166417460816705
575.2531794,-0.17201150193488673,-0.038340536035839055,-0.022079613836314134
575.7531794,-0.07753696804903223,0.09034727629337512,0.00022043429573825603
576.2531794,-0.04850237248030943,-0.1014181695086565,-0.1862589130433256
576.7531794,-0.11224062162438718,0.15450285024447574,-0.10885942315140214
577.2531794,0.13389558832531026,-0.11944814844985624,0.16583123587266435
577.7531794,-0.14751951225762347,0.06722756902305989,-0.2341512364088235
578.2531794,0.10146811696172804,-0.05777163110385994,0.1598872145654351
578.7531794,-0.14744871927487663,0.029604372504920862,-0.13937644890110154
579.2531794,0.16415279228471222,-0.1628739748421671,0.1496394786365871
579.7531794,-0.004801890112256906,0.19022067137446533,-0.06474054858200332
580.2531794,0.05646475457724974,-0.15755880033533484,0.05640091724865877
580.7529794,0.008211158901640687,0.18707662009315043,0.07023912414049073
581.2531794,-0.042350965629962586,-0.056019988478589446,0.07723817580143713
581.7531794,-0.07561898466964424,-0.0032667319665369886,0.04490329969826923
582.2531794,0.07066838567317846,-0.011444509340712483,-0.10244643799736132
582.7531794,0.014505621687036665,0.029941168156613393,0.01715162962558411
583.2531794,0.0322825598504901,-0.02795422302168564,-0.11329673827661474
583.7531794,-0.08370334952167671,0.03483710764035576,0.3186312878962045
584.2531794,0.14150716985045805,0.05838323199912163,-0.25071503632314723
584.7531794,-0.060129749655401535,-0.021901199786600437,0.10531053513725754
585.2531794,0.15436740801341156,0.2394983455523878,-0.05100561869258488
585.7531794,-0.10888220429532333,-0.31910419967877696,0.058336311600408274
586.2531794,-0.028063681613252754,0.12238711583350856,-0.14278621277296946
586.7531794,0.08685016674522204,-0.0299969337530286,0.1542991926617037
587.2531794,-0.07457270338562409,-0.007625814752542736,-0.10597378165966552
587.7531794,-0.046311182869815865,-0.10767440929752761,0.033747806152319405
588.2531794,-0.2072753949126778,-0.009145619981980033,-0.13775237992998943
588.7529794,0.25083425313362545,-0.006065600415813433,0.08660762936617808
589.2529794,-0.13405224411505362,0.04317433266970338,-0.12883532211583762
589.7531794,0.029230967257672796,-0.15055546470970177,0.05546677180286044
590.2531794,-0.07407416526940186,0.06828785025619695,-0.029658227322490908
590.7531794,0.08950954679027553,0.0025473934486878124,0.09939644531379889
591.2531794,-0.08349732665886413,0.156994424861981,0.006338003173535503
591.7529794,0.03972867472756375,-0.09699080082401183,-0.08604167576284519
592.2531794,0.025235336486677945,0.002966797284896909,-0.028964234093425238
592.7531794,0.16077542052330368,0.04819037241187533,0.08620649285748871
593.2531794,-0.18302149931544454,-0.07025097561843222,-0.1389410597982296
593.7531794,0.11642000118397242,0.027047094383295237,0.16154666519647562
594.2531794,-0.1712912161575137,-0.09272237487073429,-0.11249767182078728
594.7531794,0.16013237833760838,0.10742401059242589,-0.11008674764319455
595.2531794,-0.1150372141196908,0.05262884717387112,0.15800971234038177
595.7531794,-0.0525774004744409,-0.10391340499166062,-0.1337340748124242
596.2531794,0.026094757061176678,0.07913595136202801,0.2814862832194812
596.7531794,0.043156946658874214,0.03376393772121749,-0.08236436624062002
597.2531794,0.05561577812569865,-0.06442026474468189,0.11838767494413847
597.7531794,-0.15582894979850923,0.10743697117135712,-0.20688795554218686
598.2531794,0.07931155951506506,-0.14449189775795823,0.22444515073229832
598.7531794,-0.046536326939861705,0.053223496968005976,-0.1456343315481028
599.2531794,0.03239316571824496,-0.23411577682819731,-0.25286673783932134
599.7531794,0.07109398592170471,0.2425600017958537,0.1426754582579748
600.2531794,0.030048304430039554,-0.11888755416514804,0.049916667309253614
600.7531794,-0.12477250248571109,0.16169330850875346,-0.06692585681962498
601.2531794,0.14530499973638267,-0.08233839324361508,0.09387314212848319
601.7531794,-0.08156256856872894,0.04288318373003868,0.04633962694413734
602.2531794,0.09835720597141454,-0.014859817116832631,0.13375551089267027
602.7531794,-0.1614921709940652,-0.10420259104625464,-0.16796247512980142
603.2531794,0.26635158200718634,0.18272226410577833,0.30421614297249033
603.7531794,-0.1713522558709322,-0.20965031828602435,-0.41008118193270354
604.2531794,0.11042183021054866,-0.012206186832493797,0.08995882907348866
604.7531794,-0.05009963291267758,0.07484257812010306,0.05901238742414245
605.2531794,-0.04460372484117074,-0.05105845355734502,-0.05986457872098763
605.7531794,0.023940185793958922,-0.08890385312946865,0.14444586548079055
606.2531794,0.0380503806950755,0.10967158731771434,-0.16668951287245154
606.7529794,-0.05275040490062895,-0.14436546662720273,0.07865877546435632
607.2531794,-0.005868054143862132,0.15432493773737435,-0.027274205662651062
607.7531794,0.007286917109212826,-0.036734012702708964,0.14864078239451342
608.2531794,-0.04454031987020992,-0.0031862916200521767,-0.3883926219936082
608.7531794,0.06058484166007225,-0.06085007206563401,0.17163437896213282
609.2531794,-0.050205988276401124,0.17232214734019247,-0.0067344728623665384
609.7531794,-0.04641560698842398,-0.1820619093113654,0.01591736415814391
610.2531794,-0.045444911435225874,0.1857218920549044,-0.06665460237580083
610.7531794,0.13897820523628746,-0.09338159485057566,0.031092908866746646
611.2529794,-0.04843176602337718,0.08071003671656643,-0.04328886841438634
611.7531794,-0.034019205574177196,-0.16930101442428108,0.1998151704836972
612.2531794,0.0019096792432014191,0.22957962295245982,-0.16754298497381645
612.7531794,0.12653962416484352,-0.12640473071960862,0.056961292617632345
613.2531794,-0.1308487864199638,-0.022756518196658027,-0.06140822181905205
613.7531794,0.10093175059424492,-0.10226371394632955,0.05549513649880857
614.2531794,0.03180897117468298,0.11664250084850884,0.10166099472651498
614.7531794,0.02373195332433899,-0.14657631267786378,-0.14531728597658197
615.2531794,-0.02859159744305126,0.06147425541483307,0.24663791235838414
615.7531794,0.06291110714235676,0.0220156380788691,0.11367456605612007
616.2531794,-0.04017846274968191,0.04361321695514086,-0.12108171976193795
616.7531794,0.0011802304046146018,0.04135774392712383,0.03401411017567586
617.2527794,-0.02312542872590348,-0.04521921853858521,0.10988456007116704
617.7531794,-0.008739957227180184,-0.09757018981135823,-0.2142175253087927
618.2531794,-0.01634454504469794,0.1206393989359037,0.13075226072409282
618.7531794,-0.11851589556549799,-0.08304465256040619,-0.027137359997705564
619.2531794,-0.04429259367793482,0.024714306332427737,-0.08742853492441187
619.7531794,0.029176014083694603,-0.08435682119817299,-0.004639115603634335
620.2531794,-0.08794364497927608,0.09822178599494377,-0.14011705552150938
620.7531794,0.07092841060084919,-0.20582058234695125,0.06887312259706577
621.2531794,0.09421122962979238,0.12996383830283798,0.10943839215405499
621.7531794,0.04178422330231865,-0.05647397672840035,0.030559102804661235
622.2531794,-0.0887257642256589,0.159609122804619,-0.09464677615933097
622.7531794,0.10908550516884069,-0.04623146596011273,-0.012198974927078807
623.2531794,-0.06795268820195631,-0.10144794670920161,-0.16387226203038918
623.7531794,0.06932024726798564,-0.08886911818028956,0.18558297987956038
624.2531794,0.02146292234631173,0.21497537085684004,0.24342169936926425
624.7531794,-0.053520064021495485,-0.13294587129223323,-0.23031138341007895
625.2531794,-0.02976090830612044,-0.009729872197628527,0.23648766016038786
625.7531794,0.045494101212833794,0.17912867839204288,-0.001975883557111271
626.2531794,0.2005977467117879,0.09558328528269974,-0.3114702770294208
626.7529794,0.14807499497208548,-0.12413630131563105,-0.26878585462699894
627.2531794,-0.20816253026177337,-0.1890783235637252,0.3006573312243162
627.7531794,-0.05148184274637549,0.014723769375941807,0.22308861106709546
628.2531794,0.5456753823007245,0.24312657645685407,-0.4306592363061025
628.7531794,-0.05701880224737323,-0.3087904783673883,-0.2294412639983262
629.2531794,-0.2046219733288589,0.08991947680711583,0.053895297786965106
629.7531794,0.013849118116563596,-0.11104978424217749,0.42044724666349237
630.2531794,0.06078341531815822,-0.04663055934427804,-0.03224139460207174
630.7531794,0.024659184151646255,-0.0488525553002789,0.05183429817438655
631.2531794,0.03754897573577255,0.1493570267337451,0.015485922586905308
631.7531794,0.02465937972700931,-0.012248972062391197,-0.03493188099901154
632.2531794,-0.0023266235168831963,0.026787521630067944,0.011273926306393971
632.7531794,0.01026043303046988,-0.04185901353069279,0.007579622295752609
633.2531794,0.006777288450536385,-0.007454559139628767,-0.005919449586886576
633.7531794,-0.014123451400813667,-0.0179644401592135,-0.009964261788359317
634.2531794,0.01168623338898216,0.024325708398764117,0.0009405093926985916
634.7531794,0.004048114565812836,0.01263333255358343,-0.002197420958606697
635.2531794,0.0015520323873611916,-0.00541383774306607,0.0005847596524740832
635.7531794,-0.004438573210802545,-0.0010912611641191545,-0.0033754324529103002
636.2531794,-0.004086991482135865,0.017374963933577386,0.0027575419843347106
636.7531794,-0.031304750018048014,0.07521892987337166,0.004446362224842972
637.2531794,0.00953857900862416,-0.026078482263783863,0.020034776046880486
637.7531794,-0.07775329681910546,0.14095798422014513,0.04256860295686511
638.2531794,0.05016815191076552,-0.03772941383874874,0.21778708805479155
638.7531794,-0.12267973278244465,0.15256696498115319,-0.0522021529920437
639.2531794,-0.10113620375614808,-0.034266987575529054,0.13210742231420577
639.7531794,-0.01309290400586382,0.17300079024508883,-0.34651862253977234
640.2531794,0.15419331765904123,-0.1802548231665679,-0.3257840196388508
640.7531794,0.05089323987805011,-0.13124974227650615,-0.05813259656677992
641.2531794,0.10707502019636736,0.0531146539807275,0.27251070944463857
641.7531794,0.022722085105763644,-0.012410305386624769,0.10032349561632771
642.2531794,-0.2397349524936839,0.3047946076224146,0.6820815084569959
642.7531794,-0.018822401662035807,-0.010941835976544799,-0.5850656455727852
643.2531794,0.0737071702691568,-0.10830159554477359,0.17653788239110987
643.7531794,-0.05201404639390871,0.09972430974498972,-0.008609177838086714
644.2531794,0.06623942086823684,-0.016639053300396243,-0.05427335400750494
644.7531794,-0.4003382731976552,-0.09445426623154975,-0.5185707861727235
645.2529794,-0.04422383297873664,0.3263477801178547,0.48786771262987494
645.7531794,0.3894248747115073,0.3618496327795144,0.03912871404415095
646.2531794,-0.13530239670453648,0.09444853429324153,0.014853151148606318
646.7531794,0.007004892037850534,-0.07684699772547554,-0.06671169670653311
647.2531794,0.19080965476071743,-0.21879657530732047,-0.026660057475567493
647.7531794,-0.09500319759207025,-0.08800990124296276,0.022861342406140243
648.2531794,-0.09648381488127322,0.09951175909986373,-0.05226989729522367
648.7531794,0.06708963525426152,-0.1938057810241227,0.029385305858640947
649.2531794,-0.029878416078149814,0.24095025073525705,0.03918288453168545
649.7531794,0.038588139206995636,-0.0836494234121483,0.023126528913096304
650.2531794,0.044481803092334606,0.11457525678523278,-0.020904487055336096
650.7531794,0.0359389535769273,-0.08398124943769684,0.022690167399472747
651.2531794,-0.02682922020748682,-0.04592628270743982,-0.08232815574450793
651.7531794,-0.05415474686826931,0.03947440659191262,-0.035650449203068674
652.2531794,0.03332369775094846,-0.1330908366598975,0.11777117490736845
652.7531794,0.04220720736037086,0.2614185680909641,-0.060783058779635815
653.2531794,-0.06464605908599592,-0.15407883787312715,0.01699705946116078
653.7531794,-0.046201127933406846,0.11926634414633312,0.08535541704225202
654.2531794,-0.05004039261910595,-0.11101602705441073,0.027866762791249902
654.7531794,0.06360068457526177,0.0921709520644645,-0.1747180267651114
655.2531794,0.008271841065898834,0.005996775795373066,0.15283399938928877
655.7531793999999,-0.0419501506375072,0.010124567731184649,-0.1018591266966519
656.2529794000001,0.021622532801389593,0.031311646894616185,0.04376635077184072
656.7531793999999,0.0003706958346883904,-0.004148666167543513,-0.1895511998864178
657.2531793999999,0.04036374001342983,0.04297081648314247,-0.04046627091538281
657.7531793999999,0.00943458688942729,-0.09158244512875718,-0.04037848547895192
658.2531793999999,-0.058737237296521784,0.050341447177925325,-0.025801749204134236
658.7531793999999,0.006303439340936675,-0.10139107701262796,0.2701850129554371
659.2531793999999,0.15794097531565185,0.21188698974218012,-0.14188214352236697
659.7531793999999,-0.21048938435949296,-0.16927100595684177,-0.011180753252016782
660.2531793999999,0.08882648050385832,0.16938239165794894,0.051045696283662574
660.7531793999999,-0.03732682733792181,-0.12201080253182445,0.01760636855072446
661.2531793999999,-0.05632434201005736,0.06850645757219391,-0.08013066424628627
661.7531793999999,0.09485486504997759,-0.25252631093582445,0.0521958300928298
662.2531793999999,0.008792882706767844,0.03995752881816707,-0.17258660379611693
662.7531793999999,-0.10414901678992873,-0.2596923122044166,0.02648336027983895
663.2531793999999,0.4139576794986786,-0.12583701419286633,0.03851702547942839
663.7531793999999,-0.09963797820196495,0.03197525684655182,0.022097521793398394
664.2531793999999,0.1969264962539969,0.6857061327898911,-0.4091943400308113
664.7531793999999,0.09059022215920037,-0.3698951828347527,0.07998022804529875
665.2531793999999,-0.5204433467561933,-0.29229699693751515,0.2010156078291499
665.7531793999999,0.2543162862207809,-0.07853634560323686,-0.06380491492040004
666.2531793999999,-0.14244266200344774,-0.08117169230875661,0.12765116447160865
666.7531793999999,0.2888435201312506,0.25768660529934195,0.15463419963319824
667.2531793999999,-0.08013591029019464,0.0776717892105207,-0.024470660073592502
667.7531793999999,-0.11797030917294371,-0.14713800959512663,-0.024370677323908456
668.2531793999999,-0.14458761106147816,0.11790458536601928,0.12434947988600348
668.7531793999999,0.11256387644927368,0.14407247264716314,0.12651723190388556
669.2531793999999,-0.032211020258211806,-0.09432849459453699,-0.15072813989000713
669.7531793999999,0.04202743443570856,0.057794415321748734,0.01917713001994495
670.2531793999999,-0.11711459396217151,-0.09141187570849786,0.01546755193472843
670.7531793999999,0.09619559435161505,-0.007113303509338058,-0.14526099677113935
671.2531793999999,0.1806079459506628,0.25772149078462436,0.33560136876454644
671.7531793999999,-0.046496613855053964,-0.1876426780632639,-0.15760648926778523
672.2531793999999,0.013304649156459484,-0.20233410874431917,-0.05857878770628888
672.7531793999999,0.020420673347659027,0.11849413291558707,-0.19236306234893333
673.2531793999999,-0.024302364198357417,-0.21239466105052615,0.015174728402325175
673.7531793999999,-0.05314031167460253,0.20769022046982313,0.04603905845187223
674.2531793999999,-0.16662553890544843,-0.2290776595159212,0.026291754547897936
674.7531793999999,0.09597243130244591,0.2981191325729918,0.08378717700218559
675.2531793999999,-0.01639282569666993,-0.25092594060102785,0.056876407899053356
675.7531793999999,-0.03327987632416942,0.057896458430862746,-0.1121518778010934
676.2531793999999,0.0010537570247028322,-0.3578054091112359,0.020302010332262012
676.7531793999999,0.028967016351682136,0.34726158311643507,-0.09448211245257283
677.2531793999999,-0.12936490394064673,-0.12865549616082828,-0.0726779469796813
677.7529794000001,-0.060060967989084856,0.08126773589100576,0.10591744121430934
678.2529794000001,-0.017396038959158474,-0.09425235742277938,0.11529097988909945
678.7531793999999,-0.10633177662286136,0.2982765017552505,0.02547643899334337
679.2531793999999,0.06150224395991535,-0.24312591265581682,-0.13370521244019587
679.7531793999999,-0.10017730404337843,-0.07797340036695392,-0.10308873142844499
680.2531793999999,0.16413654976765127,0.0062175962289878935,0.18842853290183764
680.7531793999999,-0.09232505082646551,-0.009376817434957576,0.022434824150141752
681.2529794000001,0.028551667960271327,0.07761601677382628,-0.020649665384468347
681.7531793999999,-0.011629724900119208,0.03270329025230776,0.14635955686545032
682.2531793999999,0.06995472372911422,0.07615929081351719,-0.1189680598044777
682.7531793999999,0.05849482476591347,-0.039314228004408244,0.20118688314693461
683.2531793999999,-0.09638383356974696,0.05933851518891047,-0.303155931968379
683.7531793999999,-0.04971603605311807,-0.12106673633773075,0.1437448701810105
684.2531793999999,0.034253598850185495,0.22175606657108818,0.03562244337368275
684.7531793999999,0.13997561026163566,-0.23601695689408597,0.0037111728978006142
685.2531793999999,-0.119555639188724,0.05675424637418877,-0.15108327020496762
685.7531793999999,0.05134156835448333,-0.13283951505864125,0.1562520588879309
686.2529794000001,-0.15326211512497626,0.12781301619712687,-0.23984316842815925
686.7529794000001,0.09308396937928781,-0.057396253168518374,0.25876338387043285
687.2531793999999,-0.1698630670834651,0.07401194575405134,-0.2257829604799335
687.7531793999999,0.086898706988512,-0.14242919147518715,0.0303772702153975
688.2531793999999,-0.1477946824428902,0.09072971768384917,-0.18347874289814967
688.7531793999999,0.018500080290299727,-0.13819695833968043,0.15061280214142192
689.2529794000001,-0.056040309985358465,0.04076433654964502,-0.0740946346861668
689.7531793999999,0.1521091482392019,-0.035211702814042595,0.026367058897888082
690.2531793999999,-0.0708532081511871,0.07563522717918611,0.12510244525687703
690.7529794000001,-0.008411024057844925,-0.009510356228815882,-0.044773653501944614
691.2531793999999,-0.027539869151152706,-0.029892812449175726,-0.01556168555910393
691.7531793999999,0.10289167519822083,0.1479425062214005,-0.18442846051366138
692.2531793999999,0.08025689809653137,-0.21708708677622743,0.19109637888469827
692.7531793999999,-0.12861895034296617,0.11930860078470319,-0.29132687904499194
693.2531793999999,-0.06390257508105775,-0.20984633732706684,0.143893986752441
693.7531793999999,0.05326700388925425,0.22625613534464456,-0.12312120399411436
694.2531793999999,-0.04523973899107713,-0.19220829168976336,0.08098399928010674
694.7529794000001,-0.009072231055256088,0.27044789621614895,-0.10726514184231242
695.2531793999999,0.15942101584832163,-0.11008676838909295,0.19599619068203694
695.7531793999999,-0.23611895845045963,0.08425588049434879,-0.49281643729492286
696.2531793999999,0.20549676756713306,-0.2043775763334052,0.0531395986985539
696.7531793999999,-0.0578765110107738,0.07473451387367837,-0.1582122491689744
697.2531793999999,-0.024657624328521234,-0.10356060436030443,0.22028095052874064
697.7531793999999,0.01304525172833423,0.11977243181087135,-0.3012140381948833
698.2529794000001,-0.020893607081258772,-0.07772152390911122,0.2273709251320884
698.7531793999999,0.03674418481346186,0.014766679266734467,-0.42704874724425196
699.2531793999999,0.006982160341173687,-0.05981790472984134,0.24345432470145142
699.7531793999999,-0.03883612344315353,-0.04925598439309481,-0.182949126044884
700.2531793999999,-0.022864060002199982,-0.04625546416999955,0.12387834420496084
700.7531793999999,0.07387463323357726,0.19876418616117975,-0.18001908940793845
701.2529794000001,0.07989972196711038,-0.0039932817823561,0.36384585391521407
701.7531793999999,-0.1211282077764047,-0.12301110419629063,-0.3303259785013177
702.2531793999999,0.01627717716466225,0.06251544473543745,0.18677490816206885
702.7531793999999,-0.029177197065825736,-0.12676828099967236,-0.15301686106211304
703.2531793999999,0.022339507496989777,0.26961038398548526,-0.06481178379155746
703.7531793999999,0.11785952718037315,-0.1727308397422008,0.08980073171285874
704.2531793999999,0.026526335657997526,0.1163756060403124,-0.3777068597742526
704.7531793999999,0.04141604124214016,-0.05276224493008527,0.33583116704581706
705.2531793999999,0.07122461423718782,0.19875533267597106,0.5140730824798672
705.7531793999999,0.03649027368411976,0.20458082907477843,1.0470772392604217
706.2531793999999,-0.1600162648208153,-0.24237416396088118,-0.7157104051721432
706.7531793999999,-0.03588604471500954,-0.018305985778380527,-0.10802928417791975
707.2531793999999,-0.09154423961736408,0.22446710041843215,1.2597120842613825
707.7531793999999,0.15506613909422623,-0.5441855278582939,-0.8648967281495765
708.2531793999999,-0.1296232560867648,-0.13143118369792237,0.6076061821447131
708.7531793999999,0.029775125282240092,0.3981823307293075,0.724246881885517
709.2531793999999,-0.006703110141926515,0.10544451312353303,-0.19795240492344943
709.7531793999999,-0.18123211816189155,-0.060169327791088766,-0.0014292868369683415
710.2531793999999,-0.1036901874247227,0.1557734578375315,0.022311326246935655
710.7531793999999,0.02273927332873269,-0.2865108175279588,-0.18025873349851793
711.2531793999999,0.10499879741609605,0.27154988543611563,0.190605339540717
711.7531793999999,0.020696789636215556,-0.27972789357716404,-0.09537693792116597
712.2531793999999,0.02587855169826565,0.317580976673444,-0.07766534386863035
712.7531793999999,-0.05730044679215924,-0.171287600676612,0.12350721355918026
713.2531793999999,-0.09087512320629523,-0.1723680030081293,-0.21344943708400937
713.7529794000001,-0.15951442106924266,0.09200266218048084,-0.23608626072568384
714.2531793999999,0.03649157321233508,-0.30525905250001073,0.15957711114808865
714.7531793999999,-0.11879175079975729,0.20727694573469488,0.03708043172073788
715.2531793999999,-0.17776346182587804,-0.05796556020053373,0.23499119651995276
715.7531793999999,0.11023127854933261,-0.13489115752825145,-0.18665766292341934
716.2531793999999,0.04820502727905796,0.2102707137787786,0.383731441368205
716.7531793999999,-0.03220310220398109,-0.21484930327288104,0.10479121384094718
717.2531793999999,-0.007688917841633392,0.16256365445614726,0.4108033112421134
717.7531793999999,0.0980098369227707,-0.0385216608523216,0.11568778434561007
718.2531793999999,0.00278358342728144,-0.061421863246464946,-0.05906586725802867
718.7531793999999,0.10757096425362656,-0.2494498044788829,0.47063277861581704
719.2531793999999,-0.13238594218990918,0.15195537919714655,-0.042749873780971975
719.7531793999999,-0.19876146285663587,0.13665757413539661,0.2525053069390689
720.2531793999999,0.1786564003721699,0.05456046617406497,-0.14195787251312272
720.7531793999999,-0.012879283591027248,-0.10842748961028623,0.20356871098075902
721.2531793999999,-0.16796794874365123,-0.03359147653318043,0.22446797971527438
721.7531793999999,0.1963313798198522,0.10375435308444318,0.09572638448749031
722.2531793999999,-0.034669110356932833,-0.029451731235352895,-0.20362284399744493
722.7531793999999,-0.0793175273973783,-0.15615454393881215,0.18592105945860685
723.2531793999999,0.03271738784570251,0.08603581245495195,0.005349950945192005
723.7531793999999,-0.1261365038638679,0.012872965477595035,0.1257071740769836
724.2529794000001,0.4428813068272895,-0.12667603478659645,0.04916239445736932
724.7531793999999,-0.18063765808148866,-0.05139915200696302,0.036932853208689324
725.2531793999999,0.04531562311979192,-0.016785653602593317,-0.12669209184079697
725.7529794000001,0.009807010403429644,0.17986096749714808,0.2817808291257128
726.2531793999999,-0.1374236559747074,0.011584882754851158,-0.21721048738548418
726.7531793999999,-0.049684963947292715,-0.059695022973934385,0.02580801890333279
727.2531793999999,0.02398450022225559,0.18202579368013705,-0.10766500557192346
727.7531793999999,0.04806558794935417,-0.10768341912324156,0.11963198558752029
728.2531793999999,0.10950709776209415,0.3657831964478217,-0.8122595165430624
728.7531793999999,1.2466944837541925,-1.0908375656229723,-2.3511494147450254
729.2531793999999,-1.4326523547030363,0.7975328733526631,2.101326411378935
729.7531793999999,-0.3354093648190085,0.29825279835532414,1.181558690232651
730.2531793999999,0.3112851701408822,-0.12001182571265226,-0.5866555171631019
730.7529794000001,0.25332075758637335,-0.0999589886488939,-0.5189291668541535
731.2531793999999,0.08560139544545586,0.16020338239678478,-0.17973190420135993
731.7529794000001,0.37260711552511855,0.1573463303280915,-0.726573962869957
732.2529794000001,0.1620520364542834,-0.32395809749782684,-0.6072067454290975
732.7531793999999,-0.12285821051788055,0.012627293711257695,-0.007100240481798054
733.2531793999999,0.5039533554920926,-0.5727551320809653,-0.34499202154758385
733.7531793999999,0.3988108677104809,-0.00444191027376193,-0.07833889108364472
734.2529794000001,-0.066239043656023,-0.05941882126656652,0.006617158099000887
734.7531793999999,-0.041399981566158824,-0.13735960528435118,0.5619650012314934
735.2531793999999,-0.3686375288492614,0.22267450602077613,-0.13061534564014982
735.7531793999999,0.3104018505098719,0.0346620025937935,-0.2738170630490821
736.2531793999999,-0.19255044709017888,-0.3170632930813604,0.19857755411153602
736.7531793999999,-0.2158240896049422,0.33196889079813935,-0.11608247542162038
737.2531793999999,0.023653486999826754,-0.1529022298412862,-0.26393249636678
737.7531793999999,-0.08275322716690293,0.03546742427050473,-0.21868888693489136
738.2531793999999,0.08084758005056647,-0.02941775304473349,0.1191400987805256
738.7531793999999,-0.09194078464615071,0.034791376192103755,-0.11415748581910756
739.2531793999999,-0.022661417346825637,-0.08207316588030615,0.03863904436795897
739.7531793999999,0.11535253776096832,0.2493826115215008,0.08742585418313753
740.2531793999999,0.026598957700379792,-0.16036702181846096,0.04334954006318999
740.7529794000001,-0.08793118860014218,-0.03601697035194638,-0.2772753717851575
741.2531793999999,-0.08194234232405823,-0.04181334084897539,0.12436035848127773
741.7531793999999,-0.1053189953997761,-0.0373281219184169,-0.14381489632917868
742.2531793999999,-0.03097726270235839,0.017868899968596325,0.2230334915670797
742.7531793999999,0.06666293833282247,0.12312806633984831,-0.00813254555999099
743.2531793999999,0.08282733163946034,-0.0665449799602917,0.0045524375624858915
743.7531793999999,0.11926231242897291,0.10387118423468916,0.1149360146854817
744.2531793999999,-0.15466162678564246,0.11070460577725948,-0.09528747730578929
744.7529794000001,0.05436278667644375,-0.17466628914415153,0.06721599575534111
745.2531793999999,-0.043819675844826295,0.1313501769958461,-0.06560181869540548
745.7529794000001,-0.0050920174077100635,-0.3493699433280319,-0.1357992298757768
746.2531793999999,0.12233713583323119,0.20234237058302998,0.21266373036902148
746.7531793999999,0.010680421227398991,0.018773643947609456,-0.04250447217123532
747.2529794000001,-0.03553284724467097,0.10584327457825235,0.22233789218776578
747.7531793999999,0.09387647976293528,-0.2039889728175596,0.17930739652965877
748.2529794000001,-0.37449627085926457,-0.028970866209773755,-0.545347727636884
748.7531793999999,0.10372598901710293,-0.14050376030131703,0.3051886803413357
749.2531793999999,0.06936007546531263,0.34950252937012627,-0.1303186915244399
749.7531793999999,-0.055752384897956475,-0.2761302345185119,0.006222247690920142
750.2531793999999,0.016907158261471055,0.42002956201600866,0.10798000779394487
750.7531793999999,-0.06410113758951369,-0.27104315737229273,0.13296300694057878
751.2531793999999,0.03056673813659672,0.12121799098020905,-0.16499293600085643
751.7531793999999,-0.07493883156171441,-0.2241119668003099,0.07376028288131106
752.2531793999999,0.015652175370643572,0.2181324517577912,-0.09457196790848363
752.7531793999999,-0.2679763774716313,-0.40862904480647144,-0.09527725293971373
753.2531793999999,0.048486170621704655,0.2415902010510033,0.098066937660621
753.7531793999999,0.06260037614977346,-0.13638917615055143,-0.035167411338616776
754.2531793999999,0.014909054243717777,0.1638647268330823,-0.10919620468489435
754.7531793999999,-0.05731994190272644,-0.20573935169215132,0.15546844060126472
755.2531793999999,0.006936606815052042,0.21277126603494023,0.0014443338825958984
755.7531793999999,0.016234640656541538,-0.21851307691294777,-0.06899774515281297
756.2531793999999,-0.03205178625856784,0.1546584405070418,-0.07992632199045008
756.7531793999999,0.17603049055761277,-0.051102879403589624,0.17058759686528385
757.2529794000001,-0.06580180412680846,0.15286309143920915,-0.06433551000724273
757.7531793999999,0.5022931606694837,-0.3107000578680649,0.09096825222642888
758.2531793999999,-0.4841293734845602,0.13586242595861392,-0.16265743302268684
758.7531793999999,-0.06358775941114063,0.03259497901509986,0.15334273725499387
759.2531793999999,0.01200140564938248,0.1232362282180134,-0.12302362382184878
759.7531793999999,0.02252788120345958,-0.31752864314331725,0.15964983042682065
760.2531793999999,0.020219715636594304,0.41181397332533715,-0.2048380533977891
760.7531793999999,-0.08558392987860473,-0.34236900424556566,0.04282176880819369
761.2531793999999,0.03966715931972001,0.18269315767269134,-0.14438664942434834
761.7531793999999,-0.09802350105492957,-0.16388609675712318,0.22863342198625614
762.2531793999999,0.11222324933427315,0.23095197312889693,0.027373462415004622
762.7531793999999,-0.05998276703946152,-0.17497709614114018,-0.12051192398533642
763.2531793999999,-0.06573462516402773,0.11305685101864549,-0.05424923372689286
763.7531793999999,0.10729123420240316,-0.15958242598842104,0.013819492927061828
764.2531793999999,0.04281862521827175,0.1824681144271048,0.05668236679915784
764.7531793999999,0.0057902967068599745,-0.14981248730479074,0.03357459250649196
765.2531793999999,-0.08828180523802466,0.09606428815105236,-0.09741222931008756
765.7531793999999,0.0769036858085843,-0.12023551704118814,0.03361216337261548
766.2531793999999,0.194786983357531,0.4363845588243694,0.3828557107175612
766.7531793999999,-0.20533085146972424,-0.28277002097229764,0.07960405461954202
767.2529794000001,0.07694425066260582,0.08329555333224674,-0.37499724728257716
767.7531793999999,0.028935467276046324,-0.05830431088357197,0.10431170868047125
768.2531793999999,-0.015405581747594106,0.13525585619975655,0.0869093480280534
768.7531793999999,-0.07419870283182295,0.08512568485378814,-0.114233685728591
769.2531793999999,-0.09046194029429885,-0.3102766700144089,-0.3283981422760532
769.7529794000001,-0.05706326936749484,-0.08919834515024241,0.08795246578902749
770.2531793999999,0.09444861516012276,0.19019642567340994,0.30462784518216546
770.7531793999999,-0.050093719789742634,0.019898820205794473,-0.07347897775654379
771.2531793999999,0.23273577424596148,0.5750664525079753,0.3026339718555536
771.7531793999999,-0.053111100369795106,-0.3683471370191317,-0.29922104849585857
772.2531793999999,0.0087857341304725,-0.10007282376393702,-0.01787397880769874
772.7531793999999,-0.12063883836195063,-0.03656744758554171,-0.1389934939839619
773.2531793999999,0.015496748861269045,-0.08102705892700701,0.08150224288793204
773.7531793999999,-0.036595944805043995,0.1311926652792132,-0.13356025206473332
774.2531793999999,0.046398135174308075,-0.04428625503832162,0.027039567976959163
774.7531793999999,-0.036280184267297476,0.009470874953316938,-0.04024578515956649
775.2531793999999,0.038128588096663404,-0.057864964283589074,0.11418172710571271
775.7531793999999,0.013313088775744955,0.15669946999443735,-0.048231575847875706
776.2531793999999,0.005119262295068883,-0.11240602959768799,0.06710455879464326
776.7531793999999,0.031223085393042537,0.16977468445066268,0.01097774222697858
777.2529794000001,-0.10160163765095465,-0.19717281168449252,0.00641917671993726
777.7531793999999,0.02210455599708223,0.14116642754571815,-0.15446863146092768
778.2531793999999,0.059886639901668814,-0.09648115367134817,0.16413028156522302
778.7529794000001,0.08568026447796495,0.2477606267976334,-0.11687740394786068
779.2531793999999,-0.09373948715603621,-0.19486330407551378,-0.07179161997639955
779.7531793999999,-0.0512042236776672,0.14065414208724802,-0.07579270430580891
780.2531793999999,0.009810848692310765,-0.1842155798756691,-0.02204966070932387
780.7531793999999,0.11275453687224583,0.1801898539500828,0.00815318004734041
781.2531793999999,-0.22799087214697916,-0.16178112019117274,0.055766366516323204
781.7531793999999,0.0718931091458435,0.12104796672157361,-0.06200482341775734
782.2531793999999,0.13730642712224095,-0.0683802893141334,0.11135922045003205
782.7531793999999,-0.052726663836404807,0.15738553024621363,-0.1354552533473988
783.2531793999999,0.029643600612809497,-0.038251679098781056,0.20804196461354035
783.7531793999999,-0.01454866393083843,0.19034571243007112,-0.17508255362568267
784.2531793999999,-0.02799509312366319,-0.17436562015979903,0.03396448150480557
784.7531793999999,-0.08984142234435191,0.06473100954154937,-0.007114155861519911
785.2531793999999,0.10826792816354519,-0.05735825398960772,-0.06470189214300877
785.7531793999999,-0.07272076933046195,0.06806899471820049,-0.11198139054934124
786.2531793999999,0.1832408553332543,-0.14122852978507489,0.18592770967130667
786.7531793999999,-0.07586103069250633,0.10452350311688924,0.03056918222386651
787.2531793999999,-0.038252635419953274,-0.02095727252674138,0.07014845176773025
787.7531793999999,0.04133011914615187,0.006923912569531644,-0.047628946434509996
788.2531793999999,0.058720574071476975,0.03977231703058642,-0.11346306633347826
788.7531793999999,0.02521484531013829,0.07097584314447686,0.21908503312255376
789.2531793999999,0.06196576022685079,0.05828670741651501,-0.0688825010752473
789.7531793999999,-0.1225014385488202,-0.1031010555300381,-0.041043497644251144
790.2531793999999,0.095433584256635,0.10525772926298452,-0.0017015628741075517
790.7531793999999,-0.05951261190989996,0.018101769120486652,0.26647018591631616
791.2531793999999,0.25825464516265656,0.034305856630448585,0.2944718690495789
791.7531793999999,-0.11285019696690007,-0.1752022051765141,-0.31364815323370443
792.2531793999999,0.11768962624175025,-0.08814760673920237,-0.15509749169942263
792.7531793999999,-0.16247147315222005,-0.009776279590756836,0.027695400162476607
793.2531793999999,-0.036075884899253036,-0.015604676688301043,-0.030045405996901975
793.7531793999999,-0.08622972911971068,0.1394074498401176,-0.0863396512916335
794.2531793999999,-0.05159683879571004,-0.14693168113148045,-0.013147668097423253
794.7531793999999,-0.05521482327242601,0.0157093737483708,-0.07916808256067594
