Time (s),Linear Accelerometer_X,Linear Accelerometer_Y,Linear Accelerometer_Z
10.24923949,0.11416080964406669,0.19702726741267898,0.3545078163479532
10.74923949,0.24482165029450337,0.05028657817689672,0.04006093738387774
11.24923949,-0.11162483553705553,0.07877985938395775,-0.25207305891060555
11.74923949,-0.11810300038197809,0.0029773833733876378,-0.0992352956870927
12.24923949,0.2190705270759691,0.15536708571854274,9.026228269579217e-05
12.74923949,0.12974858302932885,-0.09130699418601296,0.18385616352097847
13.24923949,0.318441456446731,-0.00026190513765048215,0.015911857827618746
13.74923949,-0.335604787690874,0.09063660666410994,0.13359060057529543
14.24923949,-0.3662909017968007,0.0030920149976985632,0.01738690487261331
14.74923949,-1.2433509850777316,0.03208585269580364,0.04694007315118778
15.24923949,-0.6858632679407728,-0.6400784058312423,0.30017260668068446
15.74923949,0.05285749026119731,0.02117629909566784,-0.22128260940470829
16.24923949,-0.1598571871469264,-0.26089760386892086,0.026708090401547445
16.74923949,0.6169791603397191,0.11066000217342299,-0.3298124140782727
17.24923949,0.17045186661919043,0.011011119099445119,0.13749981464372246
17.74923949,0.41335664588905635,-0.0880051503410492,-0.12548949301332635
18.24923949,0.35915296774194805,0.022942571980991606,0.04441139444246149
18.74923949,0.09032906396642003,-0.01296827569406501,-0.012936509593627426
19.24923949,-0.5251249635931914,0.00025267608229564113,-0.22782525334624842
19.74447986,-0.13148793176355336,0.011868806063945846,0.09011264625518746
20.26594176042553,0.2604915421493894,-0.04219060685995632,0.15979090703640036
20.75423949,0.4030790553475392,0.057798179163892155,0.042917564527098974
21.25423949,-0.4001859014650922,-0.019651833057895682,-0.1826085280620763
21.75423949,-0.1968186330585887,0.057308223988458966,-0.1954247610573882
22.25423949,-0.006982383686896945,-0.038560465388859134,0.11481468134282447
22.75423949,0.17819314859121474,-0.011924184810028271,-0.08596944976601201
23.25423949,0.05585278970799101,-0.1661299373693476,0.14620760383929338
23.75423949,-0.09775054483586894,0.07553509012666387,-0.04087724444639531
24.25423949,0.19963928162819208,-0.14634689551896915,-0.07136697595406735
24.75423949,-0.16910238361196697,-0.03625723523597225,-0.00589305212852627
25.25423949,0.076372076188349,-0.018565212120272206,0.17447150466264916
25.75423949,-0.3340339782396813,-0.013925680231465216,-0.06881367685556589
26.25423949,0.0032822935415253583,0.03715984342593487,0.02079544840839011
26.75423949,-0.27354019764476384,-0.07153241950891195,-0.05127553328220511
27.25423949,0.048922653135500316,-0.005143169415305223,0.05542682499271957
27.75423949,-0.4134788102956811,-0.16468869876490552,-0.15275508446951253
28.25423949,-0.06729239415119029,-0.08783029045292973,0.053458500045905195
28.75423949,0.011824242674488306,-0.1701815027053631,-0.33201241802984355
29.25423949,0.019220647644899832,-0.010402076133876538,-0.020532441455627177
29.75423949,0.26938474764563286,-0.14454146508623034,0.5386374104471302
30.25423949,-0.015967445512886768,0.10670588895751003,-0.40199322550357325
30.75423949,0.04363286921041636,-0.17241996428400205,0.06752345313257498
31.25423949,-0.06028328470652158,0.0943549055660754,0.04877698443038783
31.75423949,0.29396873157452635,-0.06740019464416762,-0.057157591481640055
32.25423949,-0.6759884851384441,-0.11152591842441162,0.022979947363334238
32.75423949,0.02297549032109736,0.0767229506181811,-0.09360118280074953
33.25423949,0.301404115354589,-0.05242762337731394,-0.00040788989801459507
33.75423949,-0.04983979421568419,-0.10043417663669234,0.19259534334372533
34.25423949,-0.056607818287739,-0.11745316306690627,-0.14419461916007192
34.75423949,0.24952021130964966,0.04017767128912353,0.007525128912967416
35.2542394792,0.17978367618297875,0.09102527386824706,-0.08262710966850151
35.754239309999996,0.23876323669198257,-0.22983794330017035,0.03926060319286029
36.254239309999996,-0.040861616654241,0.1318851415371482,0.13227744964874869
36.754239309999996,-0.2731002686713076,-0.19939169652094954,-0.13495600971240923
37.254239309999996,-0.41093366748148596,0.000320235597711358,0.17823719916184694
37.754239309999996,-0.585716243967732,-0.1588272595766021,-0.09000799362341093
38.254239309999996,0.046420750371089545,-0.010215943217656143,0.06816728487600515
38.754239309999996,0.2539349054697397,0.10042388621192767,0.056931878977086584
39.254239309999996,0.6879089699849372,-0.06543873610571058,0.12899317948927647
39.754239309999996,0.06363789645276358,0.16011174583075058,-0.0031414904049490077
40.254239309999996,0.4049192008540473,-0.024571739208720484,-0.25244861084494574
40.754239309999996,-0.14046676017350182,-0.06815454312978227,0.06524348249258749
41.25423931,-0.1701627875611754,0.015266453207366122,-0.16829089430347977
41.75423931,-0.16192789374420144,-0.21472509145377483,-0.02204437869997022
42.25423931,0.31659882486805363,-0.02406611089463481,-0.03013770421539723
42.75423931,-0.03085693709150191,0.0009093191605365869,0.03786338071206317
43.25423931,0.05004144714013261,-0.08398123214769018,-0.05006086216563383
43.75423931,-0.24067156495318293,-0.018261009892587523,0.0705472980477659
44.25423931,-0.10822643096180967,0.024886738466453794,-0.018348767087023453
44.75423931,-0.0015584415479800073,-0.052423745174339495,0.17450134825310049
45.25423931,-0.04175182840665999,0.07726843114216081,-0.17326109774959364
45.75423931,0.11400696254843053,-0.032535479417768486,0.17201583234149387
46.25423931,-0.29154177737466597,0.07557635397106123,0.014306057077612242
46.75423931,0.06558000357193859,-0.11328530205673532,0.149517822233799
47.25423931,-0.07797113774999131,0.03917494788371308,-0.15394459089837242
47.75423931,0.35661513763666597,-0.10241540116267998,0.07399839448245304
48.25423931,-0.27739222373822,-0.0737409165495414,0.1249534209035679
48.75423931,0.134409254102071,-0.10208874890493566,-0.13184660768185144
49.25423931,-0.5047901627142904,-0.10423473458494577,0.035172601031192297
49.75423931,0.2582163628219313,-0.048841842584158114,-0.6515036185357082
50.25423931,-0.6577986590772967,-0.087705955775435,0.6041062809551359
50.75423931,-0.5174870026161748,-0.12614653669927345,-0.42578541658570207
51.25423931,-1.1158852535688304,-0.2386673699687671,0.2139820661686044
51.75423931,0.17885989918564046,-0.01927677827919279,0.11026148301515354
52.25423931,0.5851754333065218,-0.02171346102940797,-0.005021199811234105
52.75423931,0.1887070908807697,-0.02876426446407287,-0.09516160010202031
53.25423931,0.2144014396312933,-0.09088770006022173,-0.021969836543640594
53.75423931,0.28464737771350035,-0.13175876529487307,0.0008918544892384261
54.25423931,0.35903306752663455,-0.08057721489384818,0.2603114736492085
54.75423931,0.20312178826454327,-0.2344182235273917,-0.09698842625025722
55.25423931,0.09380785972584244,-0.13499804431418594,0.089438958907404
55.75423931,-0.3974006521695139,-0.22275257361748543,0.20024654396943714
56.25423931,0.06325499948699753,0.19922222751246235,-0.7116251926775906
56.75423931,0.7493087804889446,-0.31961281989093765,0.38905947286272635
57.25423931,-1.101302738312824,0.16717253790686423,-0.011214575205000061
57.75423931,0.4447919206042832,-0.1185033744227895,-0.466813319888309
58.25423931,-1.2429564748505793,0.07885201123136695,0.6734789677559018
58.75423931,-0.3565484076116273,-0.4643240575607458,-0.22118460361279357
59.25423931,-0.19191620684676852,-0.09135642792934635,-0.13777209604333243
59.75423931,-0.5401296019076468,-0.13509111729579065,0.034973691753717985
60.25423931,0.23455533060046155,-0.10985979898239517,-0.18381135291045023
60.74404015152174,0.42325951778083704,0.1034286785484491,0.18053384994963592
61.26363068375,0.1868436027596031,0.1426439297692608,-0.06440149643366155
61.75423931,-0.8462032886277668,-0.01753122819136343,0.20784347776829004
62.25423931,0.44986619893142943,-0.15849753277789855,-0.15389764112739332
62.75423931,-0.13856721658864782,-0.05674496406013147,0.3770149769768993
63.25423931,0.7568703075268047,-0.10147336190382827,-0.21336680475854372
63.75423931,-0.317922289405365,-0.1459271465252597,0.4267912552058789
64.25423931,1.179966751100866,-0.17499428190023297,-0.3567876456327769
64.75423931,0.14058848520422682,-0.11491627634695942,0.035458003763566344
65.25423931,0.14777015552090136,-0.13031136351198452,0.1304314351598897
65.75423931,0.5365982907120604,-0.037453069818315,-0.20742029843269363
66.25423931,0.5645759902994353,0.0017788821686888767,-0.03301068295082861
66.75423931,0.2663563017694787,0.025150850548934834,0.0712673844386833
67.25423931,-0.33646112930185607,0.11152051848917939,0.09588293928321198
67.75423931,-0.12115941630831858,0.03584453865490196,-0.2532486813720735
68.25423931,-0.3784447833714293,0.10044408235694727,0.3529933514034537
68.75423931,0.33519151707218325,0.023812842220883326,-0.02481153382979116
69.25423931,-0.0448321037090329,0.1306561801868908,-0.045381079449907026
69.75423931,1.065079088948809,-0.08071169986167083,0.07478730319805077
70.25423931,-0.29615866774064764,0.03632784368994625,0.35906724223701825
70.74538775291667,-0.924504639062011,-0.06945740782462814,-0.38764430433445457
71.25267736065217,0.19004307205221546,-0.471020612397271,0.2095100184972338
71.74923931000001,0.7488353573006441,0.03368710303485634,0.09813906967517137
72.24923931000001,0.18891167116784158,0.16303896596691303,0.4001127570471491
72.74923931000001,0.8542707208720755,0.02866272130669584,-0.19257846085607258
73.24923931000001,0.09499849957062965,0.039451813888099777,-0.01729113106469748
73.74923931000001,-0.2873911505390668,0.08895154149914522,0.06371099220761875
74.24923931000001,-0.1339331211629251,-0.22558844818935977,0.004863116509692522
74.74923931000001,0.3033064589182786,0.07853411626971853,-0.02021562655337541
75.24923931000001,-0.24786105407531836,-0.33292661588258,-0.010451340997661594
75.74923931000001,0.3021053631596259,0.07446641208020838,-0.0411811117828708
76.24923931000001,-0.24105018201922865,-0.20117858235471953,0.3204743800544118
76.74923931000001,0.4380139882498931,-0.14448050447424923,-0.45279467988424843
77.24923931000001,-0.34458305146828666,-0.05736177582646235,0.10766787743840807
77.74923931000001,0.045767346939630416,-0.04437927182027138,-0.2396755060617776
78.24923931000001,-0.6897170545033791,-0.27227977025934186,0.40037997073243153
78.74923931000001,0.023982085815440507,-0.19833973500821403,-0.4642285309434353
79.24923931000001,-0.6529997222882177,0.014571661437585632,0.34654742063593796
79.74923931000001,0.0810929990150302,-0.012211485010669421,-0.337480407348893
80.24923931000001,-0.10102344392305464,-0.09259467146936683,0.331832915649998
80.74923931000001,0.43533746344659574,0.03821877255697847,-0.2585369402255608
81.24923931000001,-0.6357943242009368,-0.09929297781769927,0.24661993066314702
81.74923931000001,0.4172904039081542,0.009411800910961323,-0.31282837665649427
82.24923931,-0.5530783863538737,-0.1727803532836714,0.21965594915058506
82.74923931,0.1224404993906697,0.04505020642650136,-0.18399335350733537
83.24923931,-0.6710532312807388,-0.3027721118723068,-0.05379453119481041
83.74923931,-0.6986937538720747,0.09761314576772433,0.02283385120341966
84.24923931,-0.8903004455698309,-0.3064747216573028,0.1590919665784313
84.74923931,0.5463428829361299,-0.10530035245301667,-0.14392017408700522
85.24923931,0.5643701872319686,0.0039248325916975664,0.02704541621784905
85.74923931,-0.3258235473507272,-0.06145871689374511,-0.18892027029009167
86.24923931,-0.06319709081695452,-0.1662790386088054,0.10595489410179587
86.74923931,0.017895470646620438,-0.021529735119803623,0.03696889100016699
87.24923931,-0.13306325135467387,-0.12437710380013361,-0.070964267775488
87.74923931,-0.07603927442181478,-0.03721208668226,0.090740177627327
88.24923931,0.2754393764864973,-0.10682269815449466,-0.1741599074489005
88.74923931,-0.09008394516700415,-0.18993154675395174,0.17266926482204606
89.24923931,-0.16086136461154932,-0.07409358000856411,-0.06648578237924643
89.74923931,-0.13448844026195453,-0.07241071688231146,0.17829519340026156
90.24923931,-0.13716054037746134,-0.03837479342849147,-0.06280582829538345
90.74923931,0.016150444630351667,-0.21733633907937297,0.02731339513318779
91.24923931,0.0449630851310594,0.019290436839559486,-0.1824138638080152
91.74923931,0.11609816366847596,0.02344241623222387,0.11204564846932889
92.24923931,-0.11179714053863486,-0.045860415274429564,0.27622143875195915
92.74923931,0.3114639218224018,0.08222519595184952,-0.17396182952209066
93.24923931,-0.3041571254196656,0.12555709232266574,0.117934905180585
93.74923931,-0.17583043412154808,-0.1274967427399238,0.008100538994641405
94.24923931,0.10231611589048187,-0.04566446194586911,-0.05766097387311495
94.73732290555554,0.16644616436744764,-0.09249659841725734,0.0413169136570725
95.249239334,-0.03339713720972238,-0.14969445459965733,-0.17566227092915448
95.74923991,0.8912928333882962,-0.06584724438166693,0.0449710956669843
96.24923991,1.01840032772312,0.1926428174685112,0.03395417585644889
96.74923991,0.4565123425140413,-0.03604754971054039,-0.028867206139063163
97.24923991,0.32401726296185607,0.15886510658381212,-0.02844178080775125
97.74923991,-0.30816313576031934,0.0005116241585255432,0.20985605241905497
98.24923991,0.4459729677832188,0.07718333602033241,-0.2459047268810852
98.74923991,-0.5541509972331735,-0.09368453791402903,0.019444196441396954
99.24923991,-0.03846820199660906,-0.07372666155035272,0.03395887547305767
99.74449311163266,-0.1014855503117887,0.00048164453180740073,0.11118478210615557
100.25313796739131,0.13861190343518656,-0.12266146892783869,-0.020678153372322053
100.75423989999999,-0.502692427669545,0.03287716480250023,-0.15851941779272938
101.25423989999999,0.10231802547366314,-0.19991395889803207,0.0007626221999438482
101.75423989999999,-0.6554277856510233,-0.1460006296943174,0.04938786133731881
102.2485446375,0.11438515967839767,-0.004420965855265492,-0.26079982935009277
102.76397002666666,-0.2830439801279289,-0.16390657421042887,0.3883577791401953
103.24923989999999,0.20696094568712745,0.05961348292373299,-0.21023434735477614
103.74923989999999,-0.20207435424532538,-0.11182757239584318,0.09145126371905177
104.24923989999999,-0.03549949605976671,-0.02989932034282904,-0.08224319178732711
104.74923989999999,-0.2288848084013371,-0.13998992572622768,0.11024942782591962
105.24923989999999,-0.006385686475160499,-0.09351749639934788,-0.4815433048118254
105.74923989999999,-0.3045990794021452,-0.11880239986693035,0.6430417665949923
106.24923989999999,0.09046720631485515,-0.036802938608178654,0.19782061304419063
106.74476245957446,0.00786034545388904,-0.28574621190318417,-0.5930040588180715
107.2630645106383,-0.041858918007423515,0.0763085891713901,-0.05776406225548577
107.74923989999999,-0.11614410262526575,0.011934807605310934,0.025695429120434477
108.24923989999999,0.10943625774456635,-0.0654620005758413,0.034490844086951
108.74923989999999,0.17533249340471013,-0.23490032931154953,0.10557802603735585
109.24923989999999,0.05419764718970016,0.12760998834147952,-0.007978015612370609
109.74923989999999,-0.10600927008845616,-0.0010546140918719449,0.11818494471267256
110.24923989999999,0.18109360916641692,-0.027273799441786414,-0.13406657833908633
110.74923989999999,-0.5053014160000204,0.09886057383766969,-0.016332368009096054
111.24923989999999,-0.3131450098802563,-0.19588051325183017,0.017096295361669116
111.74923989999999,-0.008756447460103123,0.023358307483428965,0.21576268692724923
112.24923989999999,0.18440385794482847,-0.015259420549518187,-0.13251544559336262
112.74538231041667,-0.36680139712377907,-0.1335432000296923,-0.049752423125672796
113.26454139574467,0.07136784663674538,0.045569001576951394,0.06911163333630341
113.75423989999999,-0.07253248345811494,-0.16011347844482057,-0.18788843841980443
114.25423989999999,0.24861866433260313,0.0357977220228944,0.15029481980260376
114.75423989999999,-0.4019653358892368,-0.11704797218719921,-0.037512495087092756
115.25423989999999,-0.04012642334390501,0.07773793632390834,0.07349775508298154
115.75423989999999,-0.2690759446784137,-0.09140397064556126,-0.25956748850680456
116.25423989999999,-0.2043644996058107,0.008249285532879182,0.2703552453165935
116.75423989999999,-1.1303150586836137,-0.32772513400419356,-0.11536873558465587
117.25423989999999,-0.6404271222784682,-0.13293444070615507,-0.19088057112625262
117.75423989999999,0.716534809195752,-0.22171332478678762,-0.0182023020630898
118.25423989999999,0.31579213719557536,-0.043762233741475115,0.31462613896678104
118.75423989999999,-0.15121196442264712,-0.0032957324281883693,-0.1784210047194269
119.25423989999999,-0.27641190238733726,-0.10313611986950696,-0.05325785077572261
119.75423989999999,-0.31466095852298187,-0.1496108041050649,-0.146744510150967
120.25423989999999,-0.29301049504940613,-0.2015377193847398,-0.050055771904052734
120.74833473863636,0.5372319481784328,-0.03713486701758027,0.3477538019650985
121.24923989999999,0.2960013732982637,-0.19154093888177331,0.19606840621532023
121.74923989999999,0.3239295677474694,-0.029757637707526704,-0.016908880766177872
122.24923989999999,0.12439251498495052,-0.1609833015849363,0.1279546659485918
122.74923989999999,0.40369916120069455,0.047814285798112144,-0.3271130816094761
123.24923989999999,0.23284519590232025,-0.15555172577814186,0.24573234257679608
123.74923989999999,-0.15128677920719377,-0.07476297845900895,-0.21519238394989293
124.24285196041666,-0.1607859249994066,-0.08622242769264833,0.17885203184830553
124.76032925531916,0.11030951898111291,-0.11705121397665028,-0.19558458419220562
125.25423989999999,0.15051689141548028,-0.10229529672894802,0.14409646952712993
125.75423989999999,0.17839487938931783,0.009172971544029945,-0.1812415439187202
126.25423989999999,0.17766729524074257,-0.08650538002336702,0.2270183119125572
126.75423989999999,0.5048402932208471,-0.1304358747535871,-0.37050519406264276
127.25423989999999,-0.1289894625503497,-0.09850003813495936,0.29507795046587104
127.75423989999999,0.39746425524630424,0.19075858251834812,0.09239937419185104
128.2542399,0.6794754802569095,-0.09991791990762548,0.016666879256684097
128.7542399,0.9886348331806295,0.10943514217651618,0.4153182219747562
129.2542399,-0.37922328791299975,-0.16654317142605607,0.5037699410833745
129.7542399,0.7868896252130128,-0.12981839588978336,-0.30721252280799677
130.2542399,0.9844743660253941,-0.11968234623537514,0.12473717865376319
130.7542399,1.9944082077822787,-0.5647801541148282,0.4510737287010953
131.2542399,-0.6898521526924685,0.1392285830540597,0.14290710489487826
131.7542399,0.2610648812441935,-0.48552617324059766,-0.17000523724010136
132.2542399,-0.49032808845922043,-0.059808510895823425,0.0370455469035319
132.7542399,-0.313366523814833,-0.057724326124080634,-0.01116378055113092
133.2542399,-1.5135064764833621,-0.23427591791692176,0.130893144500403
133.74490593958333,-0.8443629380625843,-0.3621576572299788,0.2034350116553406
134.25399587173914,-0.9930561532292304,0.07782821996235557,0.0073528814623168934
134.7542399,0.4834868098819849,-0.3373353131427009,0.16365215327217325
135.2542399,-1.0643822033722785,-0.033680287838598,-0.12346196153554514
135.7542399,-0.9983950685882285,-0.4286522127639241,0.05330405260639923
136.2542399,-0.0818654710298125,-0.1248682871225521,-0.06424062972082696
136.7542399,0.10304194108924397,-0.14159196220837267,0.04093592779329252
137.2542399,-0.19793622424049545,-0.09575640700574599,0.14508047148865236
137.7542399,0.47113642247893783,-0.2011559097670903,-0.10341353334198215
138.2542399,0.7081105938740824,0.07103898571553537,0.027202629767495684
138.7542399,1.4347766655253986,-0.09078524808473132,0.39055361965540086
139.2542399,0.9500209121373803,0.15727774166793654,0.03240486097022028
139.7542399,0.3869919764887505,-0.19763582242149927,0.40878355653728116
140.2542399,0.9281197063398711,-0.0016859703991131613,0.2859741054424357
140.7542399,0.8470704219776876,-0.2593473724459025,0.27983531821047775
141.2542399,0.8795593233836189,0.04572627957238575,-0.3507652993458703
141.7542399,1.217806832604973,-0.3679037555289015,0.6129287697640227
142.2542399,0.6379114317347148,-0.4099210986437264,0.3105270179914351
142.74853835208333,-1.7413776056610955,-0.4211026957272012,-0.21593904686971765
143.26179601956522,0.5422251600392958,-0.7127396112880264,-0.09562039615941403
143.7492399,0.03699473919622442,0.024196296747885704,-0.05683435126543292
144.2492399,0.5124099914995432,-0.49478286667452326,0.1589912392722635
144.7492399,-0.4630576448661302,-0.22636202927880308,-0.08936803740606847
145.2492399,-0.6265447575718819,-0.4736650766815365,0.0503276725242206
145.7492399,-0.2869934507519606,-0.1615630815085338,-0.35923877614159194
146.2492399,-0.21406526985885513,-0.2608991340202452,0.47609996285524064
146.7492399,-0.4540802463345527,-0.07018106036507431,-0.39448012537440796
147.2492399,-0.3229876382294145,-0.39499122493618855,0.16342024557756257
147.7453324375,-0.15685864649910183,-0.06322190216990144,-0.5028064093933154
148.26324476170214,-0.5803617249029014,-0.39704948143310076,0.31506784610389876
148.7542399,-0.4813989020876344,-0.07072844914379801,-0.22806996349507838
149.2542399,0.5596803730478865,-0.31649761015119404,0.28832217201110855
149.74758338723404,-0.048218854569319056,-0.19128475023406424,-0.05367106484474972
150.26492705106384,-0.7971901885396934,-0.20926160666499377,-0.015185009452879492
150.7542399,-0.6185912600199479,-0.10068727755639985,-0.335409705319461
151.2542399,-0.906091030178413,-0.2767917923283497,0.32319852119564857
151.7542399,-0.38254208862885475,-0.12221762426463187,0.05772095436155265
152.2542399,0.7791786141706818,-0.1404012488182151,-0.04510775786905793
152.7542399,0.6025911404805369,0.05638804233926277,0.1349149434078427
153.2542399,0.6936248436841967,-0.06539327978586147,0.055412917080897676
153.7542399,0.38910783136827587,0.0036093666716034956,-0.16710691256172855
154.2542399,0.604849282722439,-0.23994227274170982,0.28749192332412676
154.7542399,-0.027378291995670993,-0.010897166038792512,-0.24725196725793885
155.254239864,-0.5936466773262156,-0.24282578809822553,0.21596376521959862
155.7542393,-0.2090464459103111,0.12430949527403967,0.1624094262683481
156.25111460666668,-0.5669154833631591,-0.43444148852135583,-0.009737746691962368
156.7542393,0.42239643035829827,0.15046494085228715,-0.1708148352548946
157.2542393,0.15131714966319204,-0.03554180176237053,0.04054472016556322
157.7542393,0.3648378379433539,-0.010657163251558254,0.1844091514726451
158.2542393,-0.2833437745762777,0.13475319005089367,0.052912753282411754
158.7487700851064,0.014260713232223613,-0.12621019290046379,0.06689989010605218
159.2634389125,-0.6896893868274588,-0.014608516173803232,0.17769887418983407
159.7542393,-0.11313468844865088,0.07104311019022486,-0.0926929311994505
160.2542393,-0.4982972532067803,-0.01885763905328613,-0.00927256317869457
160.7542393,-0.18177566581999569,-0.04744862384380616,-0.03243534489557314
161.2542393,-0.4703604144822336,-0.03689478643544145,0.0661966304687734
161.7542393,0.19645387761742,-0.05256490047026159,-0.11217989493071535
162.2542393,0.0713806650801451,0.0595015942582893,-0.09009065680506252
162.7542393,0.5487514925131937,-0.12660917889545772,-0.16442723686858968
163.2542393,0.1754843148744254,0.2265587954412611,0.08410063484079323
163.7542393,0.44311911609237936,-0.05852415080002128,-0.2982566824157045
164.2542393,-0.22191362138441753,-0.11166223588458984,0.9501332777409683
164.7542393,-0.48183549102447165,-0.2524113368838343,-0.5143613772902544
165.2542393,0.9867753758038864,-0.26695767572373824,0.0027842287847017256
165.7542393,1.1288811842357378,0.017828860535271423,0.07325639703883408
166.2542393,1.448384076585112,0.15316078806958372,0.21669761690427886
166.7542393,0.24586443439403208,0.21147742115701454,0.2275585613925813
167.2542393,0.2763093601683513,-0.005995048112728889,-0.23172939272152487
167.7542393,0.449863499453798,0.0841923038032832,-0.20454758454399571
168.2542393,0.2674796833965237,-0.1980428021010118,0.5889366546915757
168.7542393,0.4736260444156328,-0.13285301797436483,-0.3869333446384279
169.2542393,-1.151269745699078,-0.12735550780144458,0.14073898533786283
169.7542393,-1.0334393783724094,-0.21311810235352877,0.23042460337947732
170.2542393,-0.3059645642231648,0.16584677303828463,-0.5790618135742527
170.7542393,-0.3240474413951059,-0.11478840875664524,-0.23755367625441498
171.2542393,0.3314342635383929,-0.221008437125901,0.48540819577662553
171.7542393,-0.5769173364225992,-0.038324261249367525,0.19486077905397622
172.2542393,-0.9139036619977405,-0.4999769394246232,0.11806005971749287
172.7542393,0.5510504429740348,-0.12146445968282622,-0.08525280561046575
173.2542393,-0.01512425943260606,0.030265786414531683,-0.13201899580639784
173.7542393,0.9181297618324707,-0.2421605133295371,0.11152820595648634
174.2542393,-0.06286057073319219,-0.033120131055917046,0.12850264894412486
174.7542393,0.12035642100925056,-0.18224115600099233,-0.05460701705826129
175.2542393,-0.14858867178324786,-0.2521085374316688,0.23644013190020816
175.7542393,0.15624296779945884,-0.03750586021408262,-0.45498271218416036
176.2542393,-0.6829994955810536,-0.06615813070171032,0.36544788770394204
176.7542393,-0.09350802398418354,-0.19954118956928024,-0.14392425807940315
177.2542393,-0.5644712948381627,0.02069462326966388,0.1705632770787221
177.7542393,-0.3256635566039601,-0.10649370539599819,0.21706786175621462
178.2542393,-0.3228024299519668,-0.1953817848918485,-0.15061671420830816
178.7542393,0.2891959889334458,0.3300118384286389,-0.07596719226105235
179.2542393,0.2815117246986764,-0.12634170139041295,0.5646526131802724
179.7542393,0.23909566168705665,0.03125993017197489,-0.365814145973598
180.2542393,-0.6635831778820982,-0.028706036208985444,0.5482152774680504
180.7542393,0.43020601193358965,-0.1111171322869727,-0.3316841657575088
181.2542393,-0.3610860774213935,-0.12778407639776893,-0.1789894661973333
181.7542393,0.15502293600041525,0.11738727901043208,0.35787487429887294
182.2542393,0.14690855351286142,0.0970122697428685,0.18802350193055425
182.7542393,-0.4597601959764242,-0.09269728162181355,-0.23342550840659446
183.2542393,0.18274671930341352,-0.14850151018060903,0.07566074757005072
183.7542393,0.6327533315033192,0.011757338089678875,0.11497490389313086
184.2542393,-0.40247826932079256,0.023331474059067527,0.05364353380896064
184.7542393,0.19382148871161228,-0.028559846355871003,0.00575136804201106
185.2542393,-0.35524208658120804,0.09769226589251685,0.05070975175820758
185.7542393,0.30692029982036184,0.020925761359730743,-0.05361979223979933
186.2542393,-0.1971163967118469,-0.05576010598035485,-0.27071518599979905
186.7542393,0.03952555958016486,-0.19220502091693958,0.41786979568012245
187.2542393,-0.14619619081385257,-0.007141117952257942,0.2291197261620394
187.7542393,0.05494392208761923,0.01156816784447773,-0.5000673670954396
188.2542393,-0.21335036295774612,-0.295761609220327,0.40259498331783555
188.7542393,0.5544875413868755,-0.06884316752010944,0.9206933129471355
189.2542393,0.1743349049261197,-0.494858093068344,-0.9949534602927098
189.7542393,0.586147464741989,0.4722109411237491,-0.8631788825320338
190.2542393,-0.7543573302487588,-0.356853915837596,2.2547826687562527
190.7542393,-0.1923408788387194,0.10534637485074491,-1.5168311807124835
191.2542393,0.5679232812692011,-0.5018238459083677,0.5009650319071136
191.7542393,0.34321554773643653,0.02993264164923621,-0.39197062167056784
192.2542393,-0.7201725794488584,0.07779091817090705,0.3876176580044702
192.7542393,-0.07814479481934353,-0.22940336701709094,-0.3245170513030068
193.2542393,-0.36371749289740807,-0.13454766686417613,-0.019553005701752165
193.7542393,-0.25177409436762643,0.10588345736764831,0.20679827584352903
194.2542393,0.12317766234654293,-0.13038508993704273,-0.11075797269838399
194.7542393,0.14130566397847627,-0.12381174701033881,-0.09352488042740754
195.2542393,-0.8139826764226084,-0.1602082127576404,0.09992712516451713
195.7542393,0.6118780706819728,-0.037518219753252556,-0.20607818006978335
196.2542393,0.3514090415276382,-0.05541723767187067,0.19350254701311262
196.7542393,0.3256466610468854,0.1375663539605445,-0.2380633470264866
197.2542393,-0.16660520915663213,-0.17827714302448544,0.2049673891500194
197.7542393,0.4489164735187751,-0.15886361027622248,0.01129202344758875
198.2542393,-0.22628068111616034,0.06304405004047828,-0.01156901272546765
198.7542393,0.3553904835017677,-0.09587417232781828,0.11082946780018978
199.2542393,-0.49768580732959383,-0.027594889089452946,-0.10927539218286565
199.7542393,0.15167516136918752,-0.20343292585965053,-0.16025346809707336
200.2542393,-0.26655074944609664,-0.007561527345567448,-0.11324926264495495
200.7542393,0.3321452532732048,-0.09850829424748148,0.08463400743326879
201.2542393,-0.21345391997871385,-0.04903666402664249,-0.027718655089337067
201.7542393,0.24464728308833106,-0.015429962019445562,0.14353193797429398
202.2542393,0.37177594154703736,-0.004391961250392049,-0.008580944978735836
202.7542393,0.0023788544280160862,-0.005678667560126988,0.12040466520868995
203.2542393,0.8454742265118772,-0.3280504755672781,0.23487562056672476
203.7542393,-0.9977554221697449,-0.21092641180738858,-0.644667204822307
204.2542393,-2.972214493776854,-0.2880729746935986,0.8046533909511198
204.7542393,-2.489113293546708,-0.041830613218550194,0.240937808852768
205.2542393,-2.683343005430425,-0.08696500813029992,0.5126419303372143
205.7542393,-1.8464083206611561,-0.7512541743706442,1.0529983184382785
206.2542393,-0.6228007994670208,-1.6783040428380425,0.42549422265929043
206.7542393,-0.217911792218828,-1.6313175414913332,0.08601761892981408
207.2542393,-0.18994648627165334,-0.945524431767845,0.28340434373299717
207.7542393,0.5994399506464125,-1.1436471016590997,-0.542548104381721
208.2542393,0.9058699173614697,-0.5655941494364465,0.5436537655824294
208.7542393,0.7581032867198475,-0.4344081542852227,-0.6848224119676057
209.2542393,0.2350235791163312,-0.044449786835588805,-0.010476468299441604
209.7542393,0.3532826478615229,-0.6975307739294665,0.27783500052815435
210.2542393,0.0515331125898034,0.058570516937724075,-0.15728019467612697
210.7542393,0.5905430787214948,-0.1862912269255538,-0.05006698184508633
211.2542393,0.6165201400199974,0.21644288224906882,0.16607550778191343
211.7542393,-0.11508991588485941,0.23849676589066565,-0.29697562255266974
212.2542393,0.3243138802495851,0.23878805823624666,0.11937954444940414
212.7542393,0.4802268333752097,0.45269179630007245,-0.031122076756140617
213.2542393,0.5227769858550014,0.5251768650548899,0.05880207742308903
213.7542393,-0.1091514786232724,0.6454348851879504,-0.17914836746608553
214.2542393,1.5329156648937314,0.496176310339115,-0.3331903898460408
214.7542393,1.1476707491215932,0.6378598775705917,0.6294353312759529
215.254239294,1.5182856856571838,0.3682167186205277,0.5071247104467365
215.7542392,1.670724434042519,-0.3457975353153582,1.1474001606000728
216.2542392,2.0657033616204874,-0.8893658746172243,0.9336322723567058
216.7542392,0.23268169292316973,-0.5614898725221624,0.6889181173964934
217.2542392,0.9683084817322151,-0.48631111060682863,-0.12370665645149784
217.7542392,0.10309845030989495,-0.5225801196753581,0.01317669308590973
218.2542392,-0.18531290541729106,-0.39827650636419704,0.027265681462218066
218.7542392,-0.5854144055669649,-0.38637636488413846,0.07121153279079351
219.2542392,-0.8296309915046456,-0.4298007363560451,0.1951654802501074
219.7542392,-0.36650574140535463,-0.38192738864422127,0.13925219031495137
220.2542392,0.27830991048033643,-0.4081870500109563,-0.07144278163214249
220.7542392,0.02569416854048003,-0.12352494381546368,-0.10592386231558595
221.2542392,-0.7049750157061956,-0.320664192925774,0.284210769404834
221.7542392,-0.29328301399917167,-0.23944345256224175,-0.07898152463433318
222.2542392,0.10705844362298732,-0.2528093298912157,-0.04476490534385005
222.7542392,0.3484240199325292,-0.0847275209777822,0.15154672527410973
223.2542392,-0.16427451266195,-0.17172626583226713,0.33877011062923457
223.7542392,0.7713926920415792,-0.002308972728786418,-0.37299002988047514
224.2542392,-1.4266447699031488,-0.06875357923065485,0.3590594105244753
224.7542392,0.47225583334851445,-0.4689271165517804,-0.27802886313746666
225.2542392,-0.08536477937026021,-0.05620711854722342,-0.1531439712284429
225.7542392,0.30381126108131107,-0.12159360964231639,0.19783145393886692
226.2542392,-0.24648656011702347,-0.200200996153643,-0.0819488898964398
226.7542392,-0.39861030276987514,-0.10402938666595052,0.019797747935270026
227.2542392,-0.3070483171069579,-0.21805034905951537,-0.04247574748417193
227.7542392,0.4917555373265106,-0.059002671012342675,-0.11517080489601994
228.2542392,-0.43658353063496547,0.04820200710161018,-0.19659276476727272
228.7542392,0.7670815897645924,-0.1703708849602323,0.36344202782747553
229.2542392,-0.3339254927688347,0.09163636872497265,-0.28557821044669496
229.7542392,0.3733659501449163,-0.08311590641993766,0.378464146639284
230.2542392,-0.046873530100364214,-0.14503012751477806,-0.4510708648614738
230.7542392,-0.027110660870908652,-0.0529286106125703,0.23271530617370886
231.2542392,-0.36470451239475055,0.0038273875200673002,-0.23923664957314753
231.7542392,-0.32914097753371707,-0.3082068489972677,0.04515507960038928
232.2542392,-0.3117514378860206,0.04384271326369167,0.09733931218957392
232.7542392,0.4723890325118197,-0.13283560450821752,-0.25462686356089265
233.2542392,0.5054193296888386,0.0800277998760591,0.0546155723061266
233.7542392,-0.09957606393829797,-0.03596418345128259,0.025059725893406964
234.2542392,0.17099316250649635,0.026349030263412905,-0.0503552303126366
234.7542392,-0.2702788451293799,-0.08334310592228195,0.3153426805132449
235.2542392,0.05240055587842571,0.040696758699462945,-0.2870300058221783
235.7542392,-0.015203873233612551,0.019491827635670752,0.2631848979325365
236.2542392,-0.1750417113567675,-0.032848296491884685,-0.21289262504021578
236.7542392,-0.3356405843655094,-0.09830989314842711,0.09372129153203336
237.2542392,0.07756721021132322,-0.11121372079630687,-0.1527982214228248
237.7542392,0.14370907753065104,-0.011002284546409821,0.22619736519073655
238.2542392,0.19343972344394697,0.029386023140635494,-0.1708578788851046
238.7542392,-0.3072388137420049,-0.16259296542976664,0.27010540773644
239.2542392,0.22224013399110995,0.06733071242466492,-0.25449059181460293
239.7542392,0.4414237950743779,-0.017919447747972553,0.2032035597971259
240.2542392,0.11188453847059916,0.02367051628662777,-0.05566326973973235
240.7542392,-0.16817668875147354,0.009137252826640829,0.18183836674987247
241.2542392,-0.057189285457849105,-0.0644532901605315,-0.2873769806769663
241.7542392,-0.24489436298267886,-0.07396293780266862,0.24634943361809897
242.2542392,0.22344182301069512,-0.05857438092760543,-0.21980470718948575
242.7542392,-0.5500940945759192,-0.15047261873918008,0.4462337878051132
243.2542392,0.34881192437219305,-0.07785722138999855,-0.44625699741703334
243.7542392,-0.23566729784239765,-0.01508096809113106,0.2985611071690936
244.2542392,0.5339878704632219,0.05705205470849663,-0.29680126360415493
244.7542392,-0.5610448135114424,-0.06288285946319722,0.23061467665357188
245.2542392,0.2060157743168813,-0.10037074328730812,-0.3359928261854767
245.7542392,-0.24920490820483604,0.018501307678839722,0.30664974455498706
246.2542392,0.33896580387487574,-0.0363261039003542,-0.19024689462404384
246.7542392,-0.636185700809534,-0.16367275704128395,0.18463909374795393
247.2542392,0.37137663983463076,0.03268068781620906,-0.295093523148446
247.7542392,0.4462407759925531,-0.03412067831812374,0.0024151101573538026
248.2542392,0.01625473875748842,-0.014565337760507013,0.25391356290248807
248.7542392,-0.20225090228698808,-0.0039720421137431185,-0.27264151776910556
249.2542392,0.14932401050375027,-0.05129519318021408,0.192179705451307
249.7542392,-0.1680072230701173,-0.06795619390302064,-0.1239908438090192
250.2542392,0.11083435835082253,-0.05488638457784445,0.08871543952332292
250.7542392,0.013265337289026059,-0.048200594819594406,-0.23160874702143924
251.2542392,0.10152233357821898,-0.06082762028249933,0.0854784195551845
251.7542392,-0.26302156362525264,0.002627309599208437,-0.17046543706788564
252.2542392,-0.2049657333051855,-0.1399250468243846,0.14862368692975467
252.7542392,0.3421987893866155,0.06211160155825434,-0.15218550805504485
253.2542392,-0.01527895123392361,-0.027602241861712073,0.3037080198212122
253.7542392,-0.11921460528616383,0.04037458313861124,-0.07377786375168777
254.2542392,0.0229653031925479,-0.06303861739164017,0.10637449175418351
254.7542392,0.2393135304019921,0.05429919039918847,-0.12693411092613022
255.2542392,-0.15338257877865405,0.05409133066136922,0.378111435640707
255.7542392,0.5576833560338915,-0.08988455910729551,-0.2616138816805413
256.25423920000003,-0.6026282407842983,-0.09364409859412928,0.14610673548057804
256.75423920000003,0.24040023724418244,-0.1060236560911863,-0.21814225715282948
257.25423920000003,-0.25218645599638484,-0.10546135832484489,0.05797156839234607
257.75423920000003,-0.10244174962371053,-0.11708647492415053,0.19172139036109812
258.25423920000003,-0.3697590142866064,0.07549400400763905,-0.45491137309559887
258.75423920000003,-0.08411512094155152,-0.10665301293307797,0.11572139438111022
259.25423920000003,-0.12453201007142116,-0.03156038600813396,-0.02519274301921301
259.75423920000003,0.11925612923451416,0.026261543062223263,0.02694320769931754
260.25423920000003,-0.16431812323154166,-0.060468388388768037,0.028274653427592073
260.75423920000003,-0.485419228346794,-0.17998783437101096,0.16102818832334087
261.25423920000003,0.5591649742658764,0.03005664160256365,-0.14032521538905257
261.75423920000003,0.4693759942356372,-0.20459183190353053,0.2736485369247605
262.25423920000003,-0.6723664062392433,-0.03974799277096588,0.2326009678205647
262.75423920000003,-0.18668001811534135,-0.12115141404957709,-0.5186254559922563
263.25423920000003,-0.0693467082668245,0.023438052544868894,-0.015939159231696295
263.75423920000003,-0.6824739039064066,0.1373810702778278,0.4675740672179884
264.25423920000003,-0.3639861130611914,-0.16955586956222948,0.31040899718479376
264.75423920000003,0.10463715194293201,-0.17864342810504752,-0.009216643860822065
265.25423920000003,-0.39023954281370743,-0.23215373147009305,-0.0666701572905602
265.75423920000003,0.02641198029390256,-0.0662570906028413,0.040484683822749015
266.25423920000003,0.15294719280286564,0.009261201501040492,0.07619007617983323
266.75423920000003,0.47758235849721836,-0.004078966202170627,-0.168343679462182
267.25423920000003,0.5091189070205056,0.09654179817075612,0.4144012917933374
267.75423920000003,-0.4806313692536138,0.4088735458232751,-0.13566988444209194
268.25423920000003,0.3485501604535008,-0.08172495237546022,-0.2794858197371286
268.75423920000003,-0.22243462882086099,0.27546319978395645,0.8180257696007917
269.25423920000003,0.08298244747561563,0.20581605538594616,-0.4146467442447381
269.75423920000003,0.2448289185163931,-0.0779548215495249,-0.3086747009294863
270.25423920000003,-0.2661764997818494,-0.13657127692156013,0.45371098616462757
270.75423920000003,0.13593180129948224,0.13352990980980362,0.3572679638094795
271.25423920000003,-0.561010147490396,0.021527110061781377,-0.4530844895252704
271.75423920000003,0.4582918955528321,-0.29463496929567934,-0.21875384390792785
272.25423920000003,-0.1762742722618465,0.18179766808191833,0.3977749942786712
272.75423920000003,-0.4970206432508843,0.06518382487328424,-0.05034661338708103
273.25423920000003,-0.28056909276788816,-0.1634998076629153,-0.1562231408289567
273.75423920000003,-0.3841236636626805,-0.038384470670753325,0.11553655374567903
274.25423920000003,-0.5475587324063218,-0.08606843465351063,0.5061428765046131
274.75423920000003,0.34475976907061356,-0.06602951462678147,-0.70613760788671
275.25423924,0.0633808687693534,-0.0005598469137516254,0.08306451217254582
275.75424019999997,0.5188627277063427,0.08084139748281541,0.3054734423480013
276.25424019999997,0.818334962504649,0.1460379236572096,-0.0912853280268906
276.75424019999997,-1.7003067280153312,-0.0753184840136951,-0.11227971280108236
277.25424019999997,-2.005317700162092,-0.5525282380637488,0.31305199333939204
277.75424019999997,-1.5558607298859095,-0.0849341584873442,0.48290835162982243
278.25424019999997,-1.9900605257227215,-0.05413595894069391,-0.21281206702495578
278.75424019999997,-1.2878130623317767,-0.4111051526209525,0.8740334342181746
279.25424019999997,-1.114992901652254,-0.21978813627647809,0.36454831385324565
279.75424019999997,0.08426883133167258,-0.5436352999616942,-0.37809159764104455
280.25424019999997,0.14900193842849133,-0.37439414600924037,0.2352305563623685
280.75424019999997,0.23091816477915372,-0.5162199812373169,-0.23787944631819172
281.25424019999997,0.3674272811792065,-0.23983245442587145,0.2515767357580058
281.75424019999997,0.6179060913308332,-0.2746191945859179,-0.11358295230442696
282.25424019999997,0.5744303832157742,-0.5190943396363321,0.22728057091196902
282.75424019999997,0.6239640045750057,-0.018604201903467742,-0.2811982763452668
283.25424019999997,0.4318387249657847,-0.32208149545355247,-0.09454391274734267
283.75424019999997,0.6441491729467532,-0.23185863042274124,0.16814900090396157
284.25424019999997,-0.07125693872313979,-0.0799333580157428,0.4455273416187523
284.75424019999997,0.17197283544894693,-0.16196858062980662,-0.42100265003828996
285.25424019999997,0.15501004532723442,-0.29963099950345157,0.18075334996220918
285.75424019999997,0.271329174008661,0.09264902285978113,0.07284640574437617
286.25424019999997,0.13333007256654722,-0.2762836356397396,-0.3533341152266033
286.75424019999997,0.2834593827271638,-0.09197283995329611,0.24444048982110722
287.25424019999997,0.7196221177323305,-0.053021141499230595,-0.03498893774333466
287.75424019999997,0.531313645275718,-0.031149679005889653,0.10644952609295874
288.25424019999997,0.33729939162507816,-0.17097149503643844,0.4284797038883935
288.74736113863634,0.25388345527816153,0.015164553032386908,-0.28723915707836156
289.2492402,-0.15658471538256571,-0.13110821558382327,0.0998488145514304
289.7492402,0.2871808789047012,-0.1343798151415813,0.19318133458146888
290.2492402,0.6102142347409439,-0.31396175806879584,-0.005030501390393845
290.7492402,0.36219907614067154,-0.17584821896375466,-0.1659419616685358
291.2492402,0.44376903553609737,-0.15752390186732498,0.2231857235621916
291.7492402,0.030303684553584148,-0.010578795847251918,-0.6951763388671275
292.2492402,-0.09839747359497418,-0.15175586296215132,0.4324846705386004
292.7492402,0.32757580499888794,-0.03989783882201553,-0.040252552842698325
293.2492402,-0.0043842213035099244,-0.04857318810995024,0.14865042593988367
293.7492402,-0.4041536564341517,-0.2171728268036444,0.008100685426277373
294.2492402,-0.22929728942231403,-0.4013255921186091,0.35182668562222474
294.7492402,0.24999397306011065,-0.24895003649191594,-0.42891162946629025
295.2492402,-0.1369950820414022,-0.1154407903510949,0.08965556572265246
295.7492402,-0.176087381002337,0.022051089670967968,-0.24527924364384596
296.2492402,0.5856793798862344,0.10656452579671058,-0.12905412909815148
296.7492402,-0.24957860788439667,-0.15746542825280924,-0.02477225645982002
297.2492402,-0.3894260049160552,0.3225133873321655,0.6731826187181984
297.7492402,0.44092137087853767,-0.023137306810827332,-0.8161914480356213
298.2492402,0.06982820593899673,0.011384715042764592,1.1395017809245787
298.7492402,-0.16635725826514458,-0.19796036373988535,-0.9513329422078902
299.2492402,-0.15244699661231406,0.05645582840488367,0.1515316677936976
299.7492402,0.5869280141170643,-0.32456378849736595,0.27352870709205007
300.2492402,0.2374075859689794,-0.06241300378751886,-0.056639681804346545
300.7492402,-0.12618067886989315,-0.3146844158827418,-0.27637410491188436
301.2492402,-0.17880923563726875,-0.24747163224990018,0.20159032836991173
301.7492402,-0.38498384480336606,-0.2789016170312072,0.0047088027520053675
302.2492402,-0.005420853085274005,-0.2146686207862818,-0.033751481192507905
302.7492402,-0.3159451161073246,0.1158211171105885,-0.14778190486175263
303.2492402,-0.07230154917787565,-0.21858875466301267,0.14119835231885372
303.7492402,0.197455213116295,-0.1447448849117627,-0.1090846591611117
304.24526747659576,-0.5072543261348659,-0.031422024883950926,0.1241448483410659
304.75871735714287,0.13164258803397144,-0.1445925170830141,-0.179563956895057
305.25424019999997,-0.08037081011716139,-0.15964695433104653,0.23183405952282007
305.75424019999997,-0.07572205635960716,0.0054177176675536546,0.13926177810228313
306.25424019999997,0.1511529594895727,-0.18569727403464723,-0.32957729075735176
306.75424019999997,0.1773559873057003,-0.0030705957884058764,0.5045626142669386
307.25424019999997,-0.33782110006367705,-0.13547332873624138,-0.16335109829330732
307.75424019999997,0.2400219333142043,-0.25057513917628677,-0.07506500118570028
308.2495371489796,0.3526083245434305,0.005976001469745456,-0.3354600825097366
308.75397358666663,-0.3826734744353258,-0.08979593749195093,0.33649975048267716
309.2492402,-0.015351615264004616,-0.13003028815822865,-0.06760112999680457
309.7492402,0.44023164976227996,-0.1450076990513803,-0.18165449151825683
310.2492402,-0.31631732454695954,-0.23050428444407017,0.11745894061124185
310.7492402,0.2374417983374208,0.15930255450519606,-0.04197373242325855
311.2492402,0.04380777930086506,-0.07727789764805366,0.11824071664977145
311.7492402,-0.502871185444472,-0.24994867628956816,0.005179360181311116
312.2492402,0.5195608358075732,0.24025458609329142,-0.013359052823475936
312.7492402,0.07720948138889284,-0.0013379967961921202,-0.4957577223516526
313.2492402,-0.21865749200927476,-0.3708529653400927,0.4976509742511584
313.7492402,0.4995366581381328,-0.03993248362336349,-0.2867866195084412
314.2492402,-0.3640940525258479,0.18518726383267708,-0.15913258972595673
314.7492402,-0.19611266577213324,-0.14682664245261814,0.7564548488176972
315.2492402,0.19360404495910033,-0.14679988715409625,0.1015542000718747
315.7492402,-0.2537769919449142,0.04839425628270445,-0.8720791236221132
316.2492402,-0.05288098219539524,-0.26883499599196814,0.5897262366317082
316.7492402,0.04070418426304102,-0.00030146483197229345,-0.17775851339337628
317.2492402,0.5904953122387812,0.048690858872250296,0.046555819188487085
317.7492402,0.829253033179988,-0.2216220551990223,0.36087485361396615
318.2492402,0.0020360889563667815,0.043925898576105585,-0.4397787000769919
318.7492402,0.2870796493728476,-0.06138661676628443,0.5448085089870653
319.2492402,-0.42247116020191133,0.06262240986628721,-0.08296222929021861
319.7492402,-0.055911218187108924,-0.31936432204725446,-0.4088092911372254
320.2492402,0.03132239712710871,0.11825335281280118,-0.09471120680502372
320.7492402,0.6019293164917554,-0.20578796036324454,-0.1887356062649558
321.2492402,-0.5850400510557356,-0.31363685930382684,0.7547899604162289
321.7492402,0.10856475853560273,0.031247582876615977,-0.9392798066522117
322.2492402,-0.045367102286670014,-0.05633672206272007,0.5594809853818006
322.7492402,-0.5380808750983682,-0.10718731080152707,-0.01704912428821123
323.2492402,-0.2538142339910074,-0.2317186055169804,-0.05244522171761469
323.7492402,-0.6052112807182659,0.12566157941147987,-0.4559147014395987
324.2492402,-0.7952083873108545,-0.21947331925525276,0.340894043660876
324.7492402,-2.738085345473544,-0.6369976454872969,-0.11006659135348391
325.2492402,-1.189764672978974,-0.5059865443136158,0.6659272038415487
325.7492402,-0.39464883618023344,0.13705114660974332,-0.8067740540198051
326.2492402,-1.1671126919528423,-0.012097188858045277,0.14889225910651413
326.7492402,-1.629922803904584,-0.39130147302523716,0.031831980270335014
327.2492402,-0.47731914103917966,-0.8936219033027244,0.5925945835270281
327.7492402,0.2242958501660482,-0.2727043146356869,0.01899412249242076
328.2492402,0.07459330641284018,-0.5121017232235459,0.31296139427128233
328.7492402,0.3321203542896298,-0.5545543759743591,-0.11891500057986218
329.2492402,1.263838411765402,-0.542062503497267,-0.18035734776154663
329.7492402,0.5415725712974315,-0.32788368359683945,-0.05330026602372378
330.2492402,0.23925378291846716,-0.5050133819406033,0.2477576809928168
330.7492402,0.4979778263697549,-0.25597137344992693,-0.04045054004716535
331.2492402,0.5861204561712163,-0.2765130922097219,-0.14000252857494405
331.7492402,-0.036293871253897096,-0.30008112327619757,0.19611927327266027
332.2492402,1.0635632562975177,-0.17397840122940836,-0.23531821300516448
332.7492402,0.02920162008887601,-0.06643733588356093,0.3984929658099239
333.2492402,0.7153431148422286,-0.21920972447288523,-0.17254525289484135
333.7492402,-0.785337660272773,-0.28626693983545287,0.32894116044862765
334.2492402,0.8700382880936064,-0.08227286331964206,-0.4739475700213908
334.7492402,0.19878806478565175,-0.05790253049537915,0.2694583178745706
335.249240196,0.044964488717099724,-0.22846501539643532,-0.15562702860568878
335.74924,0.11215845274468414,-0.2729698481020296,0.20411495020296183
336.24924,-0.014198978279593582,0.02436039329259817,-0.02806753120112992
336.74924,0.08293827010341559,-0.010331307848585426,0.27850352603902545
337.24924,-0.09566745499474508,-0.06918263233967162,-0.3093558432140037
337.74924,0.47910257071133416,-0.18790735849838783,0.24315317105421552
338.24924,-0.19194122811648878,-0.09574870484543437,-0.3373622314700524
338.74924,0.1222950279376449,-0.17769815886888857,0.06799421493839009
339.24924,-0.1530628797990084,0.12192714457337188,0.16407616817408172
339.74924,0.08528547190061854,-0.36278425436180944,0.01580306326477023
340.24924,0.14009248075284736,-0.31086818708738895,-0.06124698373766581
340.74924,0.09020748421167718,0.02568681281756093,-0.12689587016983522
341.24924,-0.014492232669264533,-0.021208384643422465,-0.07954221880029878
341.74924,0.5020396837357585,-0.22619183771278073,0.06491276293479414
342.24924,-0.401085767254424,-0.09122391329650834,0.5041347728963244
342.74924,0.3352777608544214,-0.13788072340586108,-0.010150008211299575
343.24924,0.052019167262767674,0.04682721223031059,-0.25795612006016577
343.74924,0.11712735738563959,-0.24081805289543798,-0.09245895315368456
344.24924,0.2583397832966465,0.16850397322954402,-0.03989095982851094
344.74924,-0.3200975562481924,-0.08293444960890489,-0.17337913009669678
345.24924,0.08115863886964031,-0.11237891620476687,0.6845453894392061
345.74924,0.05286057542645826,0.03210426828576249,-0.42619727734654445
346.24924,-0.2561315726882156,-0.03867841509946012,0.2690906985381437
346.74924,0.26841177589138365,0.1351364259220459,-0.5013532928599301
347.24924,-0.34535537785252673,-0.09532827421286166,-0.10193828211266137
347.74924,0.4918971582535266,-0.24586817682458378,0.16701694694115457
348.24924,-0.15806946727266377,-0.15920545222585514,0.6868161435099723
348.74924,0.28336973693871104,0.20027547052129613,-0.22097073655677263
349.24924,-0.2725107548726269,-0.0688993894983752,-0.5119026943790476
349.74924,0.2499760808251956,-0.1279677433302383,0.27219588951730744
350.24924,0.20838612138046783,-0.021792964108579328,-0.29629990373788856
350.74924,0.045068162154632295,0.18882971874093696,0.36344486511154217
351.24924,-0.41212311432769866,-0.021302090478136585,-0.04015623566242699
351.74924,0.5444080227189765,-0.2198954330237581,0.03310585796411099
352.24924,-0.09078000742417791,0.018441694446012954,0.41420880780634856
352.74924,-0.1724547015499683,0.0827018624440992,-1.1597063985999718
353.24924,0.03371664547646981,-0.23850799268617212,0.7768540123779123
353.74924,0.23862196868289018,-0.20920683937915466,0.07685351112178615
354.24924,-0.18009094684038382,-0.016104755230865596,-0.23707109470686874
354.74924,0.1029019117192178,0.11792367902640384,0.3380058631592446
355.24924,0.18695384740995827,-0.4183475369003182,0.24578677366768845
355.74924,-0.007333904875627881,-0.11905249129282186,-0.5324454403258939
356.24924,-0.11528955755713038,-0.3151260071327462,0.6871907755411775
356.74924,-0.055178130755674945,-0.07292319050330015,-1.0384953929382021
357.24924,-0.3923162927466175,0.23824354578435694,0.3424393848474172
357.74924,0.3806576522801706,0.010799205824003684,-0.028438003521187562
358.24924,-0.14110055717845568,0.0001376861216186076,-0.2252049864953431
358.74924,0.20592984036265882,-0.2061081933693773,0.1915692839169003
359.24924,-0.33980201018624046,0.08371786290342988,-0.05616354462217368
359.74924,0.7481617056539185,0.15368570184027266,-0.15056343034854247
360.24924,-0.21945028466351396,-0.09336237422760679,0.2980426796246975
360.74924,0.27985218438242715,0.05933198795907986,-0.018766135256958662
361.24924,-0.45044918794640376,-0.1969764018949426,0.14124451307897343
361.74924,0.29187947695381117,0.06966588179526148,-0.5683134215733682
362.24924,0.02280713356331283,-0.10794826774231542,0.3618319468302228
362.74924,0.07549635052227656,0.09499169380306112,-0.13931482663005376
363.24924,-0.00946913408054578,-0.0322444612122082,-0.1870523215931395
363.74924,0.10155754122675723,-0.10080372749708384,0.0995208022551455
364.24924,-0.10499965622213944,0.008478306968189069,-0.13606735407884427
364.74924,0.3306722340685264,-0.15791124180467717,0.2708762289264358
365.24924,0.07084768582124273,0.06922577593984362,-0.2601588590186352
365.74924,0.19403914947514958,-0.08611714013230434,0.09333663246168969
366.24924,0.12827896526002688,-0.16381775488922729,0.5378389944503622
366.74924,0.3561285705284483,0.1755651130598293,-0.38735542217558705
367.24924,0.7691616240879326,-0.05486379404372111,0.31717865337894224
367.74924,1.1278631304068194,-0.04725770793527772,0.31277515422718816
368.24924,0.7268409989025859,0.46762617478916796,-0.19039207007657472
368.74924,1.5428832223620226,-0.10436672034144776,0.7135715018721956
369.24924,0.6757188455680605,0.04264876672744715,0.0986109910476682
369.74924,1.5863046653996073,-0.3045477987987092,0.3712735423271188
370.24924,0.17230473557164735,-0.2506043441698704,0.40622965937773897
370.74924,0.5839540085651985,-0.7664325214028743,-0.12052482643468404
371.24924,-0.7982082290526031,-0.338426954213598,-0.31557763039214454
371.74924,0.6725523200906202,-0.7701595874477873,0.12361914421909512
372.24924,0.32960942751775746,-0.46803196221961035,0.20256496600045232
372.74924,-0.3206820920213643,-0.7322418799960747,-0.2923720383807311
373.24924,-0.8162990727966707,-1.2853116049973698,-0.019882449260162863
373.74924,-0.3933085429961669,-0.6839666439779251,-0.10946601848173194
374.24924,-0.7409430723445252,-0.46440695938792004,-0.0038205270206091856
374.74924,-0.3380843773535559,-0.546014935239114,-0.20325778107082218
375.24924,0.2225821636683426,-0.4001865032333996,0.12328662446970133
375.74587199787237,0.3458010815611932,-0.22954684970953004,-0.10719935882038335
376.2626388382979,-0.20463968435666904,-0.0728116669763435,0.08070957969653819
376.74924,-1.1106912373866042,-0.20445141583166912,-0.12280159022688389
377.24924,-0.8016259176594148,-0.45312733427249385,-0.03835317593373136
377.74924,-0.6272591963481372,-0.3687507394989124,-0.1662826897093636
378.24924,-1.4402532497468044,0.24188890807154845,-0.08062389654306536
378.74924,-0.2475373067954906,-0.2465316588361234,-0.02262766474474308
379.2463529591837,0.7294231106005814,0.0033875241277110052,0.1689042092822189
379.75841427446807,-0.966732945429914,0.578072303833873,-0.1176218134510413
380.24924,-1.0360321233379566,0.09562009096316093,-0.0042194412391420725
380.74924,-0.051949401230064945,0.24661751968615897,0.13663392203072808
381.24924,-0.1350811247396944,0.39646807170827253,-0.18495100505260317
381.74924,-0.041859689485835225,0.9827811717385216,-0.3747848437576735
382.24924,-0.7208447537162798,0.6576915801751992,0.7828935529449075
382.74924,0.19039709606113905,-0.5054936570208267,0.8472011910470115
383.24924,0.2960457273367487,0.040363784799776516,-1.0689021790543647
383.74924,0.323683833397253,0.41230075720696724,0.3292987177303484
384.24924,0.8767999471926283,-0.795693663186819,-0.3683766335956109
384.74924,-0.43618742730176213,0.5821855880302294,0.8219025969360628
385.24924,1.0838393114035556,-0.6369658150528863,-0.30380041198736873
385.74924,1.523087387598774,0.051443148817718255,0.24673405076033567
386.24924,1.0149753811470277,0.23508521568573992,-0.0124348291366259
386.74924,2.3074057578916056,-0.25281198989069753,0.3740944787971687
387.24924,1.3723775359546218,-0.44835903462272597,0.9811275858911386
387.74924,-0.39928250176767177,-0.011639580217412524,-0.15312842657326217
388.24924,-0.7099619999162201,-0.1069231911489378,0.23419689550842002
388.74924,0.20731088218046023,-0.4547734538743523,-0.29672863784736236
389.24924,-0.3566069097141575,-0.16372240208768418,-0.08254967829937616
389.7457432020408,0.29364108778595843,-0.3744081392462458,0.5467413224353475
390.2595034673913,-0.16429931195990854,-0.11390507750725531,-0.6991184275555951
390.75424,-0.395813582442816,0.021893152005214828,0.44660054214284317
391.25424,0.2556795112646664,-0.20519319974085234,0.25332900914202044
391.75424,-0.7236768230426047,-0.12182109615391865,-0.1264397890337352
392.25424,0.9906193879222914,-0.30475771237450067,-0.13375607964440028
392.75424,-0.8807874771479588,-0.20811644106614757,-0.27895771338389436
393.2448622088889,0.062260700208819734,-0.412886177243621,0.1752295949202472
393.75424,-0.20949883961207064,-0.5123604717481338,-0.06268396900064759
394.25424,0.5533991159422269,0.06731757803992278,0.21440497480836523
394.75424,-0.45297697315192464,-0.48272884510149766,-0.4461127656430878
395.254239998,0.07633465247693479,-0.06682077698727132,0.2352847754789363
395.7542399,-0.10780165125341476,0.0397343477271098,0.05099131719335321
396.2542399,0.7044481636201317,-0.17270133921095032,0.3577551976864187
396.7542399,0.2765518779108578,-0.15318545515754198,-0.5298195561227209
397.2542399,-0.35294644895064053,-0.08160920437387245,0.7057702587298982
397.7542399,0.16922131592806575,-0.2388600101497356,-0.5833490523577443
398.2542399,-0.44638704200795354,-0.1562594799658132,0.4372033252273871
398.7542399,0.3911628686361985,-0.15358099898592528,-0.6475814729935514
399.2542399,0.06780390268250482,-0.06152744517332617,0.16225951915272738
399.7542399,0.001885827568719236,-0.24256008179934818,0.4890257829191242
400.2542399,-0.2958865878703157,-0.13864943934097337,-0.5252972499317268
400.7542399,0.25977756859750306,0.2134007912938851,-0.15452154509662339
401.2542399,0.230379512051889,-0.5546041120815031,0.14543868084889902
401.7542399,-0.36840118073000516,0.16068345052803387,0.11111930302251027
402.2542399,-0.0015354756200244423,-0.23772471312884755,-0.23599609143087785
402.7542399,0.5308779591425251,-0.10355239635148963,0.26761006619965305
403.2542399,-0.18900613760188206,-0.17570671589209877,-0.14726188033545304
403.7542399,0.3869722105313056,0.09416626231612008,0.06624255999512269
404.2542399,-0.4634793744361877,-0.16517987788842015,-0.25926772950911137
404.7542399,0.24369974156577462,-0.2982709295586566,0.42758166645075013
405.2542399,-0.31485769370701805,0.002760257336310272,-0.406673080521174
405.7542399,0.29441535248015477,0.071930539422208,-0.05084790059537234
406.2542399,-0.42264784583753046,-0.10920862439557691,-0.1924097711598719
406.7542399,0.21622882851804504,-0.04205443570648531,0.25224063950900116
407.2542399,-0.2658868458794055,-0.06384170781551352,0.07215788725579109
407.7542399,0.8170317803414876,-0.17675597299025456,-0.05024419265581853
408.2542399,-0.04422430493526932,0.06077813350176184,-0.14040387492809786
408.7542399,0.7154765551346719,-0.48627632807083315,0.407063695562105
409.2542399,-0.911175617968329,0.3461796516348975,-0.1364186519118587
409.7542399,-0.49139456227617706,-0.6087378445125059,-0.17219413719001167
410.2542399,0.6109650762904189,-0.12121811046181367,0.3147912213036509
410.7542399,-0.39397313940816536,0.20939065540320778,-0.2923164808965035
411.2542399,0.457112185628386,-0.6285282750606779,0.26209751678693227
411.7542399,-0.5114358122860133,0.07038962958856848,-0.2664580842568812
412.2542399,-0.11125716565470453,-0.36632029816123435,0.1552001682900874
412.7542399,0.6168004744528592,-0.21815455445968632,0.3581497435389689
413.2542399,-0.02024168196707063,-0.11953150412522799,-0.7454707372484978
413.7542399,0.060222341569112464,0.24148562584468017,-0.1429169462071932
414.2542399,-0.8853726156326267,0.13037202779815935,0.2766120850873778
414.7542399,0.22714398350999127,-0.009411028758738503,0.13171340835148299
415.2542399,0.2620349094518165,0.18311270704902935,0.28722423055022017
415.7542399,0.1372048849902399,-0.16675568655399306,0.20525076829345937
416.2542399,0.1164706143450596,0.046121284025011366,-0.5349865042995836
416.7542399,0.002431825599884424,-0.2600529960539095,0.019298105207119404
417.2542399,-0.023081476857331557,-0.2790956622195267,0.2954144597385015
417.7542399,-0.6996900951646668,0.07937894522762805,-0.22384415856504097
418.2542399,0.35894254758838007,-0.47374124937287226,0.07319839048930861
418.7542399,0.08740169290026811,0.0518619486407166,0.17230963893692525
419.2542399,0.05178370928849784,-0.25073874765559845,-0.074100008009874
419.7542399,-0.2767240633245364,0.11217895518722627,-0.24555698242476992
420.2542399,0.14498976777468367,-0.10333110048768755,0.06013290174715836
420.7542399,0.5741007665159527,-0.2844468875502083,0.3561857143653949
421.2542399,0.9639502284182919,-0.785728142918053,-0.03384005746821735
421.7542399,0.9564046077540409,-0.8163781867685539,0.15056559829115343
422.2542399,1.5821602924166762,-0.477098101599134,0.4511697839501587
422.7542399,0.031247208611388348,-0.3448399343863084,-0.14499551436463223
423.2542399,0.6118012400573527,0.8369984840112165,0.11362126601296373
423.7542399,-0.9007651680533751,0.5751330859557713,-0.08877586036064075
424.2542399,-1.1172845948320589,-0.4550725972958545,-0.011919094914635409
424.7542399,-1.6740915766236117,-0.2941047982694822,0.7062626916356013
425.2542399,-1.1763764375123182,-0.5892291292913664,-1.117517975510819
425.7542399,-0.6909372682527757,0.6158217169017219,0.21019369562887988
426.2542399,-0.921994068372753,0.1657375703795525,-0.0958347179553753
426.7542399,1.101929781448033,-0.16994585723951064,0.03521323303126191
427.2542399,-0.07486606861721196,0.24695386859001886,1.0168734462308169
427.7542399,-1.4491414547141341,-0.32755893703756905,-0.23168381563961365
428.2542399,-1.6591500780340993,-0.6095730010554964,-0.25088469001001407
428.7542399,-1.5279268621634612,0.028204314292480603,-0.3918370156586619
429.2542399,-0.49053258368115393,-0.39802395065227686,0.2117623814240478
429.7542399,0.20078965935012594,0.031179841525941877,-0.16822655387571017
430.2542399,-0.48120177840660916,-0.2889143770386924,0.4225947416808766
430.7542399,0.5583627893254828,-0.22321165618939942,-0.22647935262114643
431.2542399,-0.29289732595326823,-0.16865472399610998,0.2144091272692479
431.7542399,1.2686210161907474,-0.6486995160858494,-0.09979602851405939
432.2542399,-0.6939731006170304,0.13914392799454006,-0.23446769473224194
432.7542399,0.21892740979356762,-0.3354784873473037,0.11035178494582232
433.2542399,-0.4357392121221254,0.11977125230210937,-0.35804668733281014
433.74929576734695,0.3534367287323547,-0.23501791648312437,0.09944459596354012
434.25412674347825,-0.17307196441557754,0.04057462840669917,-0.10004857825260319
434.7542399,-0.1865052440865746,-0.1800928421318379,0.20720925750644986
435.2542399,0.1995275425160508,-0.00870797043622497,0.07562417362149762
435.7542399,0.1516882270039061,-0.2381010016414243,-0.14239569305098215
436.2542399,0.7039838315530274,0.10739942818594081,-0.1056317440611915
436.7542399,0.03241564295764792,-0.16197149464291832,0.09281377044060385
437.2542399,-0.06393418189846481,0.12395291367403571,0.6719159234557823
437.7542399,-0.030783247789123735,-0.39323802639624644,-0.5457870049457177
438.2542399,0.26280619741082634,0.1324657421433889,0.1262353266098701
438.7542399,-0.004874160511614667,-0.1351175296184579,0.424186723878629
439.2542399,0.9721228451813166,-0.5071206020052238,0.10833266964549042
439.7542399,-0.2209978293836377,0.21903842828552836,-0.38567629178675733
440.2542399,0.6259847697330042,-0.04905342885736285,-0.16562848965653615
440.7542399,-0.6034808220326954,-0.0897596092523412,-0.08475926319118787
441.2542399,-0.05891775573107681,-0.08313530661718489,-0.14813980916148312
441.7542399,-0.7300089849011095,-0.14666627611005237,0.22320639941479364
442.2542399,0.20845248041616704,0.0009414480765066657,-0.07365609973032713
442.7542399,0.014598824640519632,-0.08723675530078852,0.1605291870844934
443.2542399,0.8546085655964588,-0.05404250106478453,-0.13034317776557733
443.7542399,-0.3504238258895009,0.02607453160987561,0.3728472607723175
444.2542399,0.789680498041146,-0.09123825664628432,-0.29348879323315835
444.7542399,-1.028643135577329,-0.19814104629286772,0.0937770655378095
445.2542399,0.04695281335279748,0.06084469658190886,0.27243912608567167
445.7542399,-0.18929685925000084,-0.4367822182839541,-0.47186046229461986
446.2542399,0.21533523198648724,-0.013104436911350392,-0.13632397554546608
446.7542399,-0.33551594488810105,-0.18621961495238393,0.24205941755891747
447.2542399,0.42626827980727944,0.06293238258101405,-0.1843440980770685
447.7542399,0.012514168776899726,-0.15487908511578616,0.2996265763775764
448.2542399,0.6921320015251355,-0.10798842400465204,-0.3364566053840924
448.7542399,-0.18830717328044333,-0.06259839853082355,0.07257164381871375
449.2542399,0.5841471942217321,0.06583782245083736,-0.028022795093934762
449.7542399,-0.3827756931513487,0.15496045751537135,-0.2558009355658706
450.2441535488889,0.3775663410108757,0.07238586025875889,0.7317913097432719
450.7592399,-0.9022360427157033,0.0178270656711491,0.08685424495251368
451.2542399,0.30976703950575846,-0.12792153909582324,-0.36885770574157606
451.7542399,-0.8312004300486094,-0.20234846717691105,0.2732441152453869
452.2542399,0.4762082942585442,0.01104826948760752,-0.3400535996474134
452.7542399,0.05757480915786504,0.10881952512950024,0.24305362418533993
453.2542399,-0.01058428183043187,-0.20977287203187742,-0.24616906334052366
453.7542399,-0.07872492876658206,-0.1200632578544983,0.09566274996670705
454.2542399,-0.3816170045019729,-0.07229761665394935,-0.05958982753491908
454.7542399,0.028515417268444185,-0.13860170323397214,-0.15283978436078421
455.25423988399996,0.49293229925795307,-0.11774841853242762,0.5306678612843045
455.75423909999995,0.32671250035547095,0.11981093242107128,-0.3143719297565128
456.25423909999995,-0.7320089317671732,-0.1697579991520057,-0.4059444713556706
456.75423909999995,0.7639536671443349,-0.2940348069796091,0.06130250727500654
457.25423909999995,-0.1654871109842196,0.3031682659704195,0.5686099015213638
457.74500475531914,0.877574558442295,-0.007561601434866904,-0.541692470152177
458.2578518851064,-0.28978083455844056,0.07503108222478563,0.44227427143553505
458.74923909999995,0.041760086571807145,-0.30893508102310435,-0.1959439665716141
459.24923909999995,0.10275571409262302,0.0617147220855775,0.21493381017662438
459.74923909999995,-0.49326713479795226,-0.41758688752487283,-0.5242536624288949
460.24923909999995,-0.43812928419146535,-0.05128537408758614,0.31250907589495397
460.74923909999995,-0.00785679581542085,-0.02258765868039105,-0.09776073297874367
461.24923909999995,0.2992992154388207,-0.08611308776649143,0.1257310168841484
461.74923909999995,-0.34948366984738377,0.018307109169787446,-0.06363482504002439
462.24923909999995,0.805368489847869,-0.16214737153344788,-0.14704085591226046
462.74923909999995,-0.6515695107396181,-0.03151203348556925,0.13455754464896852
463.24923909999995,0.05709956495653524,-0.20388645512478887,0.5125030388862889
463.74923909999995,-0.22598449184983826,-0.06534337449834607,-0.2044271499960542
464.24923909999995,0.8020828507084263,-0.07084342391307334,0.06031105992658506
464.74923909999995,0.02032066476238054,-0.07027022817417244,-0.3235534152589687
465.24923909999995,-0.08216272385215934,-0.07306811995247661,-0.19847143314063578
465.74923909999995,-0.3206708651234915,-0.143363555462221,0.14044152314306996
466.24923909999995,0.21063571066315595,0.005758374922627512,-0.11483515696035874
466.74923909999995,0.5330002496941826,0.13878156994093163,0.09960838996127055
467.24923909999995,-0.5192081096883835,-0.04407486393001436,-0.1053676757549416
467.74923909999995,-0.10556494778772336,0.12950348487831287,0.20236756063077144
468.24923909999995,-0.17305027842985832,-0.19073230134940808,-0.1723087086561668
468.74923909999995,0.5461038400399163,0.05733912425544795,0.45867347752068943
469.24923909999995,-0.03196341260051877,-0.03138099385706547,0.2313867703108513
469.74923909999995,0.4106783411783506,-0.05455062936481601,-0.356923650957575
470.24923909999995,0.17104642939663445,-0.09031740042988978,-0.05687537872043892
470.74923909999995,-0.5499822831312585,-0.05680346714443526,-0.28146207300635373
471.24923909999995,-0.2517820579799943,-0.4170493290521604,0.3134822382431398
471.74923909999995,-0.17051751264354878,0.12940033741994877,0.07057683125151612
472.24923909999995,-0.03661462101808295,0.06768220475982466,-0.08569196496124015
472.74923909999995,0.3336450152989775,-0.17406584312998535,-0.06684152391658679
473.24923909999995,-0.09332554200193476,-0.21865524442039294,0.11669172430407868
473.74923909999995,-0.08484424111829374,-0.25880677112829387,0.04902635896388501
474.24923909999995,-0.0858312626087001,-0.03640529946924716,-0.2695944002800179
474.74923909999995,0.6834054538625692,0.004345400433470221,0.13835716734857614
475.24923909999995,-0.3791748959640047,-0.030064026446382654,0.1545348601467025
475.74923909999995,0.09223927479136339,-0.017208788152594977,-0.002099728860078165
476.24923909999995,-0.07567123734137621,-0.021213267905422578,0.026407130085527884
476.74923909999995,0.2683894183286812,0.03842613412899338,-0.4181672656148175
477.24923909999995,0.12238120515365193,-0.12244738148115593,0.26525103697771585
477.74923909999995,-0.27622506845122596,-0.059404960043262144,-0.08974553200114718
478.24923909999995,0.16747025719265726,0.030115182923269708,0.03077627820079086
478.74923909999995,0.01351459801928643,-0.07936461986285112,-0.38533900369208923
479.24923909999995,0.07862446441525829,-0.04997187562427494,0.48087663911113615
479.74923909999995,-0.32484657542429074,0.03219168699362825,-0.23817989670910358
480.24923909999995,-0.06111316897933839,0.09902828154061571,0.022316541246968972
480.74923909999995,-0.09964985189429494,0.018764632278842956,0.06495555404597696
481.24923909999995,0.2482586379081509,-0.034909862509192376,0.16337756755770982
481.74923909999995,-0.04530391701041271,-0.23596899886964004,-0.2694053321253344
482.24923909999995,-0.05401387575998843,-0.031114644669065314,0.1863457084492695
482.74923909999995,0.2745607307720166,-0.3873764240258339,0.301466491452586
483.24923909999995,-0.01801348643097037,0.324625334556097,-0.7932660493275212
483.74923909999995,-0.025707489307827684,-0.17332918915951914,0.11255689783200441
484.24923909999995,0.1387737022877511,-0.06873946172310273,0.7892232783424088
484.74923909999995,0.6814356077823989,0.014489568285337494,-1.0635599266760274
485.24923909999995,-0.2760439120468374,-0.08870835126803556,0.565356252687667
485.74923909999995,-0.008363351183308453,-0.1193866782425166,0.2584102541181299
486.24923909999995,-0.19006738062101575,-0.17478522230603427,-0.001672587808431114
486.74923909999995,0.08725572315287188,0.0781758450925714,-0.20519339736696007
487.24923909999995,-0.4923202067663884,0.08469432765655689,-0.2914504255357225
487.74923909999995,0.22738668264903825,-0.09096611963025932,0.19345640919619997
488.24923909999995,0.04542565991284367,-0.041023030954479435,0.07924231135849998
488.74923909999995,0.07711340245937834,-0.243819228204544,-0.08693639987719944
489.24923909999995,-0.011835603015565995,-0.14106533463949758,0.09449449228084804
489.74923909999995,-0.17315371706711852,-0.024814801946528367,-0.14944041804080183
490.24923909999995,-0.21477793953750457,-0.1540806830280865,-0.41874652867716405
490.74923909999995,-1.0748593359780951,-0.2658660206282378,0.4292459786206176
491.24923909999995,0.988187541858686,0.07699867859140783,-0.2921277025506551
491.74923909999995,0.7614178534721106,0.10826086703674774,0.786149293989644
492.24923909999995,0.8327670313795656,0.3300649331690245,-0.3285019863083541
492.74923909999995,0.23543394259865974,-0.12488649377201945,0.4826331379424916
493.24923909999995,-0.05627635718328143,0.18780604123539063,-0.26970918402338134
493.74923909999995,-0.5345220328923397,-0.07744555412491058,0.12045181593788767
494.24923909999995,-0.6944103298296966,-0.11313627516280945,-0.13223433273331223
494.74923909999995,-0.02746311189822056,-0.10602479386747822,0.08649793487082232
495.24923909999995,0.13949116114141938,0.05910087453196394,0.09661275678516679
495.74923909999995,-0.35384418628349074,-0.24355589156149848,-0.12823402434836031
496.24923909999995,-0.27822111765497765,-0.20407404502633375,-0.24411908486433834
496.74923909999995,-0.01970198202717453,0.056966028493015235,0.10873254273448495
497.24923909999995,-0.13852413589831641,-0.11361717828696503,0.06341584424895741
497.74923909999995,0.1004760832989001,-0.0014850193441109426,-0.014040765862689654
498.24923909999995,0.8326257417032592,-0.2155828289035627,0.10317382592565133
498.74923909999995,0.6625347998271767,-0.034740105694798046,-0.058970402088711626
499.24923909999995,-0.19804154917194006,-0.03205021638539612,-0.09509238758349563
499.74923909999995,-0.040258218697265556,0.0668017406904287,-0.29238990753964633
500.24923909999995,0.09289087536250867,-0.18345413536485594,0.09517988256481505
500.74923909999995,0.1278617822949107,-0.5695066063533707,0.3221611341855274
501.24923909999995,-0.03518792169247688,-0.435261359713492,-0.24053843237952385
501.74923909999995,0.056674976262733996,-0.19973542167221253,0.26199670332207436
502.24923909999995,0.5144818731487499,0.027614359094569833,-0.16953367953986984
502.74923909999995,-0.09642671040862708,0.1949609319200755,0.1795546383721371
503.24923909999995,-0.1045695982939767,-0.3197010350323253,0.014555939672021375
503.74923909999995,-0.31564920694775656,-0.7213419522540967,0.1476184238513591
504.24923909999995,-0.9620223555949774,-1.1860961245729345,-0.5630639336617649
504.74923909999995,0.5455385208138961,-1.0370131913982115,0.41474214272394505
505.24923909999995,0.2547862912435928,-0.14478840343505248,0.0384730126561952
505.74923909999995,0.06323760356113547,-0.038871416998278556,-0.3525386837997378
506.24923909999995,-0.5230668000009967,0.7585323553799985,0.4592925043995122
506.74923909999995,0.3511638055449255,0.31885714163826845,-0.25437544378256993
507.24923909999995,-0.13349499057194883,0.5477068909818233,-0.13287944786746947
507.74923909999995,-0.24458299828294025,0.2986911387740899,0.263742666392764
508.24923909999995,0.08215567704493931,0.39046027154093776,-0.14952625885176243
508.74923909999995,-0.05709984678278352,0.05249307678953482,0.3026421474913945
509.24923909999995,0.022604581919738825,0.15166477398114506,-0.2186990672292954
509.74923909999995,0.5384353261329978,0.4115896200782061,0.3779531818402447
510.24923909999995,-0.8242078980345073,0.3203271449473539,0.09513667914563818
510.74923909999995,0.24282082036434974,1.7535361866997141,-0.26471802106696757
511.24923909999995,-1.37292378386368,-0.0693704988573013,0.45940791851404555
511.74923909999995,0.26753792609790544,-0.9118889473615148,-0.3406436581786685
512.2492391,-0.1088547741081462,0.9560782925926506,0.2563369964966001
512.7492391,-0.3054962349633945,-0.6258473583246894,0.07837843937317833
513.2492391,0.5154774146661688,0.21785120049073955,-0.32025045660165824
513.7492391,-0.0726632228209555,0.4925145293366669,0.808469474342168
514.2492391,-0.6473584172394778,-0.35071901000572325,-0.3117476599468301
514.7492391,0.4648852599192292,-0.42895322662331076,0.25202678738720374
515.2492391,0.1582474798109198,0.05588654753624609,0.022571377822558438
515.7492407999999,0.5445212313166203,-0.17271312125242966,-0.9164909862952151
516.2492407999999,-0.4835673311809677,0.01108338767660838,0.5446036666936299
516.7492407999999,-0.3126210268877703,-0.13506744587760014,0.05470633285892351
517.2492407999999,0.19173035608600691,0.009749816528952246,-0.32229047523562115
517.7492407999999,-0.4088642680175441,-0.06565108573875542,0.3733965838442753
518.2492407999999,-0.8040379425662555,-0.21806769791038288,0.10157291876868652
518.7492407999999,-0.9491200379997893,-0.6379771905680305,0.05167714750396692
519.2492407999999,-0.23834944866205543,-0.14854629917683357,-0.2907243229324413
519.7492407999999,0.9689897688723093,-0.1569589837920578,0.2585796728420863
520.2492407999999,0.2846089775645724,0.12755299151192767,-0.057867728501794495
520.7492407999999,0.42114095333499774,-0.11766987027990741,0.2862725964943899
521.2492407999999,0.25838911307935897,-0.055034328494233516,-0.5525636328146197
521.7492407999999,0.3151511649292688,-0.18710397291416328,0.04511253101775317
522.2492407999999,0.41522200784226476,0.06869122905762057,-0.44598693221177443
522.7492407999999,-0.30100762054661123,-0.19726611985976839,0.2031632221837924
523.2492407999999,0.26524685612496446,-0.3102296399121012,0.23466285546371085
523.7492407999999,-0.30433516826113666,-0.15638020754772236,-0.2822426866978434
524.2492407999999,0.11213979144594877,-0.29567741283374444,0.10450575170296812
524.7492407999999,0.4188037760325043,0.20830846884763166,-0.2814545890261842
525.2492407999999,-0.22800656523070761,-0.1644071873714519,0.49082038752700763
525.7492407999999,-0.12511998282877093,-0.08506017370673546,-0.47464697676233714
526.2492407999999,-0.44313791558860144,-0.25569592357766185,0.10161264091474113
526.7492407999999,0.6107750040299925,0.014606118433350794,-0.05499919494799184
527.2492407999999,-0.5555653157422611,-0.15298350999992782,-0.07773218084336796
527.7492407999999,0.4326886451820554,-0.1518081669449839,0.08261833711009428
528.2492407999999,-0.5577659860780338,-0.24769817506476685,0.14492840425215844
528.7492407999999,0.6548855832237106,0.1106569464269283,-0.38823203000972456
529.2492407999999,-0.26110047794213026,-0.014635391593763418,0.33906635543187436
529.7492407999999,0.5054177157107003,0.0005586445032870268,-0.5628161539611867
530.2492407999999,-0.8676774642506443,-0.288690382777144,0.6042142424457174
530.7492407999999,0.40345882154360246,0.020805483844261383,-0.6086889780877982
531.2492407999999,-0.4444507335431729,-0.15716441254549673,0.387795379647561
531.7492407999999,0.6328570004295162,-0.0769720544327203,-0.23650325140479966
532.2492407999999,-0.07359325983798602,0.011005048633938969,0.11597474887036191
532.7492407999999,0.47170168220361247,0.1231097739033084,-0.3791472015004903
533.2492407999999,-0.7864873662192844,-0.3025052060728205,0.5991940372686041
533.7492407999999,0.4252686900375597,0.09838257951232161,-0.5567196011587374
534.2492407999999,-0.3287740019133291,-0.22792540393217084,0.11768462549038798
534.7492407999999,0.6146284363007308,-0.14617862709645937,-0.0302188993135176
535.2492407999999,0.21936982885818876,-0.016132137588869937,0.03442755304044857
535.7492407999999,0.14778873704611667,-0.07492052713666904,-0.0731906936230168
536.2492407999999,0.0411876496011404,-0.0849306956954567,-0.15264421267044678
536.7492407999999,0.29308346612284614,-0.1988551810614734,0.35941210174103877
537.2492407999999,0.4958544234671304,-0.07215867647462065,-0.3572407635258275
537.7492407999999,0.06525904937619126,-0.052117871511979226,0.1996235942685671
538.2492407999999,0.1753623607740965,-0.1604347067516341,-0.009397396682078556
538.7492407999999,-0.2537627909154252,-0.10470263999986809,-0.07400705985123487
539.2492407999999,-0.8188014823234071,-0.2346398422545263,0.09776209719558988
539.7492407999999,-0.7591106445400184,-0.06452727161586135,-0.16787830895360117
540.2492407999999,-0.7129221235160023,-0.26925641468075,0.01383252845817386
540.7492407999999,0.0479925319586349,0.19449706370061015,-0.11011466507155308
541.2492407999999,0.6466644686090115,-0.11839337477198111,0.2899129974307867
541.7492407999999,-0.27440321042344645,-0.054698735144211336,0.09259161265078979
542.2492407999999,0.07624999230103503,0.061302072119057485,-0.3480924931898698
542.7492407999999,-0.6126750498383613,-0.1107078274065509,0.10709688368228466
543.2492407999999,0.42094092109819087,-0.08450753240629112,0.2829603711538355
543.7492407999999,-0.3406365736093353,-0.27283013184954613,-0.1754509906102687
544.2492407999999,0.5170186822814247,0.17424954445127683,0.10773291328780166
544.7492407999999,-0.2771101236344114,0.022012048446532703,-0.29824064540914585
545.2492407999999,0.41392570849512095,-0.07309060201511897,0.003311263798342643
545.7454294795918,-0.25484450693386035,-0.05608342286477473,0.35418266787460734
546.2596207170212,0.43470076698700966,-0.0021604149307997158,-0.1455225688914071
546.7542407999999,-0.3012077848775528,0.06589109950230064,0.21883979528364692
547.2542407999999,0.7325731698668314,-0.001943611657960842,-0.18422912983987783
547.7542407999999,-0.17312911234594164,0.0012785919129012213,0.0976415692446939
548.2542407999999,0.19050123532971786,-0.24035027777258858,-0.2036280243617668
548.7542407999999,-0.07076048605927093,0.22436719520995477,0.17187531945186849
549.2542407999999,0.7074804129768826,-0.14644273266923416,-0.12595453313864044
549.7542407999999,-0.5728262592659943,-0.057479456234086124,0.38464649897471814
550.2542407999999,0.425071902560141,0.04843815057822818,-0.38435802453309087
550.7542407999999,-0.6176201333742253,-0.06495467811426175,0.008426022877556215
551.2542407999999,0.09571318804799059,-0.06830283868881981,0.04598859806794328
551.7542407999999,-0.31058560645688393,-0.1107534306692369,0.05788901586139735
552.2542407999999,0.606527310280728,0.1780913763347307,-0.32428077222589435
552.7542407999999,-0.6644595773998654,0.04512570040111358,0.15449196051742667
553.2542407999999,0.7629209209752308,-0.19787839552509323,-0.1777638216447855
553.7542407999999,-0.3012674796250145,0.2900608846878571,0.17412527997210328
554.2542407999999,0.3290318724776686,0.10964807473523458,0.2204311245491358
554.7542407999999,-0.04157014841803612,-0.08270824367814969,-0.2329027822727563
555.2542407999999,0.28645941256144786,0.014403161732655559,0.04614942521534791
555.7542407999999,-0.2767593190344589,-0.05327010936199654,-0.1537913598005194
556.2542407999999,0.1562226962039249,-0.1112550873487482,-0.018408562095164435
556.7542407999999,-0.8051797305042784,0.03806761431185324,0.16132217253251904
557.2542407999999,0.4341841055828653,0.07189614459443926,-0.22242309032685853
557.7542407999999,0.15561132056456947,-0.15398181164547942,0.5062734468075507
558.2542407999999,-0.1692617473725937,0.010079070086497739,-0.6392344353421757
558.7542407999999,-0.0587079216863326,0.05011192576415203,0.33272465381771454
559.2542407999999,-0.07898426644743123,-0.1608537905417471,-0.05245911147776134
559.7542407999999,-0.5754869012265408,0.15420862507487149,0.009068903027542348
560.2542407999999,0.2486024393161575,-0.21360452736604085,0.057049131273023815
560.7542407999999,-0.17463429757780335,0.07279257080875888,0.20695135916968474
561.2542407999999,0.09178019512068658,-0.19662758239860423,-0.3988913521449781
561.7542407999999,-0.01285972784925284,-0.045956447481570656,0.11343451885745898
562.2542407999999,0.2937169922136285,-0.09879896603538796,-0.3774542043797559
562.7542407999999,-0.4005304496667552,0.040437559346361354,0.1619216676587636
563.2542407999999,0.10951539501396859,-0.07041596880934145,0.5915403465081552
563.7542407999999,0.5251961164031353,-0.14336155841053164,-0.4847579041934409
564.2542407999999,-0.07615195713939128,-0.07017419640909692,-0.10983534580644416
564.7542407999999,0.031120594667509573,-0.06821131524998675,0.3445541020891037
565.2542407999999,0.19827129108619887,0.02580107528164582,-0.3316062455770507
565.7542407999999,-0.12353053549691488,-0.054984262263061766,0.11783386294120872
566.2542407999999,0.22195740119915494,-0.011811861677206,0.006844548002954338
566.7542407999999,0.07876365664183094,-0.05856289936937989,0.14806065720645803
567.2542407999999,0.13274984389507125,0.039681037718157446,-0.27162026846208875
567.7542407999999,-0.12565829575627208,-0.13457047475348427,-0.2278669514208479
568.2542407999999,-0.1643678206577064,0.38743633448799675,0.5651687312093328
568.7435105822223,-0.2793986662282038,-0.4565778360857402,-0.06788838386266309
569.2542407999999,0.38476401203382027,0.08822953159659816,-0.2228386727925288
569.7542407999999,-0.06777645465508654,0.27260841600752217,-0.08017695929238865
570.2542407999999,-0.10858683422203075,0.013160294888283972,0.38213671798816073
570.7542407999999,-0.10247669265735128,-0.3181754512170325,-0.269705899771514
571.2542407999999,0.39107637892350927,0.12486119240112974,0.006486594353455226
571.7542407999999,-0.11602151362131771,-0.0174468015899663,-0.18916334241810817
572.2542407999999,0.13756996159183033,-0.01944333635504418,0.2081690029408097
572.7542407999999,-0.70738844519131,-0.042000686686484406,0.37406263773373355
573.2542407999999,0.3873034985699273,-0.13696691792733304,-0.33774242575181046
573.7542407999999,-0.11019240006164534,0.1200210647177358,-0.05467020002960243
574.2542407999999,0.0194605655959791,-0.024425348995130644,0.3608705754205246
574.7542407999999,-0.29565422111383194,-0.007359924230157549,-0.40167911587723126
575.2542407999999,0.3282817951614756,-0.14957971161122288,0.21788052141782704
575.7542394,-0.09837605165878159,0.07510989923503777,-0.09124255680155026
576.2542394,0.7089914626398379,-0.028687644803579628,-0.2526410067287428
576.7542394,-0.4750325170652757,-0.00883936511242493,0.35469983187982335
577.2542394,0.8698840534570573,-0.07241496327817938,-0.2384161474393606
577.7471622590909,-0.2928408684065917,0.013233791010045771,0.2698688703200729
578.2492394,0.42424447183815417,-0.13343793872878268,-0.29662664636103875
578.7492394,-0.5533655910239847,0.03790223970315736,0.20050009519910816
579.2492394,0.42650028169761517,-0.182425400589599,-0.0983734880074137
579.7492394,-0.6600272800649553,0.05177803917967038,0.023838762574829097
580.2492394,0.38092015676279134,-0.025426613344025014,-0.17928919430926216
580.7492394,-0.6731331186854616,-0.06849249503440263,0.18875166524406273
581.2492394,0.7689919534426781,-0.29992993868991036,-0.10953637431156495
581.7492394,-0.32999373446908165,0.04596027849909632,0.3976886742657973
582.2492394,0.3800290477133243,-0.2750896748206879,-0.1332696699354804
582.7492394,-0.33961323448841496,-0.0495640915347573,0.17392060318963842
583.2492394,-0.1880606845652095,-0.16839514566260533,-0.377631156791394
583.7492394,-0.1209197146917003,0.07747043107340268,0.351041187987583
584.2492394,0.6907232259848968,-0.25200156390467354,-0.47644760377858847
584.7492394,-0.35381259411911187,0.14564368907565095,0.35536650721012886
585.2492394,0.11411578425516511,-0.1883810471932892,-0.4601302322372068
585.7492394,-0.16323887628492575,-0.0636628419050716,0.5343258942785877
586.2492394,0.07803932935240211,-0.12038101744331263,-0.43859976546021734
586.7492394,0.3278664302126404,-0.036686111410261776,0.1289966756717492
587.2492394,-0.04366418315222246,-0.1565378685702287,0.180883311799233
587.7492394,0.024280955808010887,-0.04647114544180822,0.13930070462253652
588.2492394,-0.08544928269159578,-0.07527023277950341,-0.590192822912481
588.7492394,0.12328966488950355,-0.3070041705921195,0.4697763744020512
589.2492394,0.09781816750773174,0.1709052172019792,-0.28703196954181487
589.7492394,0.08123152338822887,-0.0735494178083354,0.13695421970949867
590.2492394,-0.19845161234793468,-0.01468783129754927,-0.0009181376446594314
590.7492394,0.23269199524301842,-0.13776766085364517,-0.15402167672394573
591.2492394,-0.2000576200354861,-0.047642388384606014,0.23569730021152185
591.7492394,0.4187182599478054,-0.11345526632214334,0.029203141634509374
592.2492394,-0.30698596903948294,0.09583953919640317,-0.10745580716281931
592.7492394,0.4169359929453472,-0.04033584251242397,-0.2736998071045918
593.2492394,-0.6093478197382355,0.09257300135708812,0.4623057252604033
593.7492394,0.33992806284219396,-0.25954551950668747,-0.34412326430872286
594.2492394,-0.23251129737964746,0.013648176023606578,0.6518023276395156
594.7492394,0.278968824720837,-0.1820727955824561,-0.521804206635231
595.2492394,-0.20404842509455057,0.190380706246764,0.02233907187129445
595.7492394,-0.0117071657635026,-0.26979244862128793,-0.21863647717099247
596.2492394,-0.23212645654779415,0.06802969834304012,0.2944666168644135
596.7492394,0.15342400810179788,-0.16001080734422465,-0.19330849085378127
597.2492394,0.2564830684022787,-0.042904494409118275,0.011139811122561847
597.7492394,-0.09072690072152872,-0.1275071463154746,0.20083243556001157
598.2492394,-0.04292135406748256,-0.022638562532673764,-0.11077542199940132
598.7492394,0.5393986486985329,-0.02347141082743596,-0.17015833931526467
599.2492394,0.18675532486691748,-0.20015865452151593,0.27810424093696917
599.7492394,-0.45429961136269087,-0.00222722998321335,0.004046089264131938
600.2492394,0.13946655815766495,0.030005267337967288,0.05535241276899248
600.7492394,-0.32603415191410384,-0.13180603968321442,0.09134889763786132
601.2492394,0.36550346273276907,-0.0330319454728942,-0.23262133551138775
601.7492394,-0.5432702354249046,0.13070787365154568,-0.2575423030853564
602.2492394,0.5143236624703532,-0.30989902034441275,0.2608714966040211
602.7492394,-0.10619930196141336,0.026576448070515988,-0.22266534078538466
603.2492394,0.6245442549357312,0.13327355420109244,-0.17052911355421563
603.7492394,-0.768200408583584,-0.13111811744121016,0.5905907084612886
604.2492394,0.7501669104079555,-0.20353321597627075,-0.12342806769965821
604.7492394,-0.38666437199877685,0.33275771445546803,-0.2327091430907138
605.2492394,0.36240337140179535,-0.3701433373328451,-0.09584507980111905
605.7492394,-0.15904607341340252,0.29721500762872166,0.09260986532490832
606.2492394,0.0003506214815401387,-0.2633882243649291,0.15830705097924774
606.7492394,-0.5817736712206028,-0.1199806590031722,0.030546176099541487
607.2492394,0.23757846315692838,0.08206653171764476,-0.1514403435230512
607.7492394,0.3090847787621368,-0.025464414033240634,-0.21579171564522126
608.2492394,0.022635846107374468,-0.26022044589313936,0.040335485787803
608.7492394,-0.08365933121995736,-0.11114034362591535,0.24884579642068644
609.2492394,-0.13110920251741695,0.07114272773602273,-0.249309851044658
609.7492394,0.19007166122466682,-0.10976803352797568,0.1078003438606477
610.2492394,0.07817844648329444,-0.058620346201873126,-0.10177133976763456
610.7492394,0.1614876263264974,0.044706000727619745,-0.07189688184913763
611.2492394,-0.3033122406353433,-0.010698567479384429,-0.04622991106555043
611.7492394,0.2835043549428683,-0.22606790111304778,0.5358201326075995
612.2492394,0.26446720929408785,0.08837468345798723,0.051926866858473704
612.7492394,0.3633231858085274,-0.054555539623434006,-0.2597736809872708
613.2492394,-0.44958124018301165,-0.015654044153024294,0.0401572107970116
613.7492394,0.18854112819864677,-0.10921934335121562,-0.009348478492122276
614.2492394,-0.2325732826050989,0.07355316187143118,-0.5480352406813883
614.7492394,-0.1800025749800596,-0.11510855904551308,0.12436312104759555
615.2492394,-0.7026529708811167,-0.2175200173880912,0.32191496706819256
615.7492394,0.8720373558826475,-0.020968236145528295,-0.46886627966817107
616.2492394,-0.3453781678392475,-0.04875648619319012,0.596765033555424
616.7492394,0.5708298834056182,-0.09915151388510676,-0.2599846660854808
617.2492394,-0.4246647630037449,-0.14654914552156537,0.3472894562852733
617.7492394,0.38204706719978043,0.14860850057665795,-0.42032841234289026
618.2492394,-0.48378531672371167,-0.2380639946650963,0.2457196355531206
618.7492394,0.4646714903424909,-0.19240115029684304,0.07444452112676161
619.2492394,-0.05255315878884288,0.22467723807966147,-0.14890421525492478
619.7492394,0.39302119829107957,-0.1464675455905121,-0.009038840450433083
620.2492394,-0.36314078594205035,-0.02248160617479095,0.21391785674001995
620.7492394,0.18033300762714619,-0.2934161950149123,-0.2919101885265748
621.2492394,-0.3619386954625093,0.13651222790065212,-0.1942698410708852
621.7492394,0.37896921275041073,-0.027205166146895214,-0.022396514858064532
622.2492394,-0.1463888380375277,-0.24496142621275838,0.3833780435313124
622.7492394,0.29332630687209,-0.0019864549841465172,-0.4444587407362821
623.2492394,-0.5536738898467528,0.003007493949922886,0.1668103371131922
623.7492394,-0.34254772093289126,-0.9230478164294574,-0.1306930064294461
624.2492394,0.8743043443591846,-1.4294820832500086,0.45050499226727647
624.7492394,0.05222031955045611,-0.8075267856454829,-0.02978863898354916
625.2492394,0.08490123131405028,-0.4592664983220782,0.08884854209881958
625.7492394,0.36797350503087,0.0735311446932535,0.14498478059284622
626.2492394,0.5586387322370825,0.03159202233839178,-0.22247408090325604
626.7492394,-0.43374553789457215,0.09352728967812401,-0.346791870359006
627.2492394,-0.5054274430195363,0.043327196626059425,0.2636132021252259
627.7492394,-0.01187699049306283,0.5455224703205895,-0.1730953895109716
628.2492394,0.624486669004433,0.3803721696778845,-0.34622194740234064
628.7492394,-0.5094587039302035,0.33637480326183405,0.4734544805606333
629.2492394,0.04128340649595806,-1.1119872222529432,0.06237527807081762
629.7492394,-0.25965609748749946,-0.6703290990994825,0.11988509024197097
630.2492394,0.07947915160421394,-0.2133965206040337,0.07892584086234015
630.7492394,0.29525366621864585,-0.38318329652564515,-0.06700263574774473
631.2492394,0.1447493848211007,0.31751072760667315,-0.13955378219545075
631.7492394,-0.1745454737003288,0.35949952129189083,-0.05438252677122379
632.2492394,-0.2055505633620421,0.2759979043182373,-0.03516317297619841
632.7492394,0.14469979639369993,0.10241940544833553,-0.053176395936814475
633.2492394,0.05805599949329156,0.022273707454950074,-0.018999515951728375
633.7492394,-0.034527178960176305,0.063989400251108,0.0012513244953196087
634.2492394,-0.04097459345645731,-0.003680571624551434,-0.007669740481906871
634.7492394,-0.03331668708145186,0.015673623936233238,0.011028165627762676
635.2492394,0.06047510059510206,-0.029266834371707545,-0.009837403927879455
635.749239792,0.0074350105525207025,0.009746763977518481,-0.0032004260875682844
636.2492397999999,-0.01901638378456243,0.006268145719565226,0.0062305171192266594
636.7492397999999,-0.07281087698021758,0.004664654560753255,0.019213513267283044
637.2492397999999,0.09440132851195437,-0.032694406828245176,-0.01937716078942097
637.7492397999999,-0.0729203944977295,0.20918716232502008,-0.026509889391546516
638.2492397999999,0.05730960379866129,0.7222330994541024,-0.156578177415455
638.7492397999999,-0.0708054378532478,0.25815732157421517,-0.19014955993222935
639.2492397999999,0.16240837610047257,0.8425117781953269,0.0816909161094429
639.7492397999999,0.2956621403006345,-0.49419189114007395,-0.014156249089797512
640.2492397999999,-0.02363269966620896,0.3173031403629801,0.0571438088291303
640.7492397999999,-0.29134147840526436,0.18030983544109921,0.050665903746732716
641.2492397999999,-0.2862859750810736,-0.8115812563467858,0.04402473434287378
641.7492397999999,-0.20894098562666719,-0.07055700976927541,0.049723908428505055
642.2492397999999,0.03548407524802974,-0.31695744423103,-0.4452125001675082
642.7492397999999,0.32541164694796215,0.29803162376070186,0.6880602020030144
643.2492397999999,-0.37746592443244503,-0.32277314653571554,-0.23501914784246733
643.7492397999999,0.5939700149918626,0.12495084354266811,0.2369879031598463
644.2492397999999,0.020391605688209465,-0.32183684361948633,-0.2687918570843745
644.7492397999999,0.2044783276150779,0.310082667307815,0.03256173663869804
645.2492397999999,-0.8364260014871162,-0.39849212896530534,-0.13624202933558613
645.7492397999999,0.20665215540748216,-0.060948175823129995,0.6085443253433792
646.2492397999999,0.4275670765953798,0.036735243442043854,-0.0030763784407221674
646.7492397999999,0.0377138809753337,-0.10711236357263522,-0.16313273481263027
647.2492397999999,0.18804048156491213,-0.30524492252177354,-0.17568254670064198
647.7492397999999,-0.3562846208810005,0.17208479815726235,0.38739233967947356
648.2492397999999,0.1030039787011246,-0.24995815967911525,0.48427983760891136
648.7492397999999,-0.03884273449478035,-0.2249828793280332,-0.6665558660553313
649.2492397999999,-0.2528478244547167,-0.20715778386959574,0.31286667197686824
649.7492397999999,0.07995249025177889,-0.3925506867682828,0.04048829374447388
650.2492397999999,0.15617916817099162,-0.20699629148200324,-0.3688020515658214
650.7492397999999,0.03871389501325102,0.08853307883098335,0.21850931053752615
651.2492397999999,0.3783463548213831,-0.1411094093496759,0.1941515476321344
651.7492397999999,-0.28572732159888914,-0.2177576905677753,0.1230114966142698
652.2492397999999,0.05110075642803559,-0.040976860246182106,-0.18971643770318194
652.7492397999999,-0.0900154198914721,-0.10717525020568111,-0.238584067472241
653.2492397999999,-0.12075603878244254,-0.019444403561134395,-0.13775191387371985
653.7492397999999,-0.300026535929956,0.017142693222575018,-0.03027371781545791
654.2492397999999,-0.01367794268770681,-0.14407658588055963,0.29964502748978045
654.7492397999999,-0.08590273743826848,-0.028085456158240006,-0.14804514776750805
655.2492397999999,-0.07617430186599795,-0.054289134843566345,0.0836086928267103
655.7492398,0.314176920294458,-0.04256071262334711,-0.05376919365028017
656.2492398,0.15597822169567316,-0.0486431238332273,0.059923775289413436
656.7492398,0.4686887362282565,0.004483900965053232,0.3296887128830204
657.2492398,-0.09757097485452518,-0.027782507792540018,-0.29584913017722103
657.7492398,0.19232165851806662,-0.19186197726701879,0.23532718846387318
658.2492398,-0.3949004652477564,0.13158702315116816,-0.2885848304353039
658.7492398,0.4370305673074851,-0.23171394436497805,-0.20156586319258527
659.2492398,-0.1551587973784594,0.1505699307332348,0.2774528398700852
659.7492398,0.11210704283031543,-0.10264001742086991,0.18614675982712037
660.2492398,-0.10555436212557097,-0.10872462193567252,-0.5773104500947254
660.7447250844444,0.0431951877489043,-0.26172850167897305,0.2745314026587675
661.2492398,0.05711371666981926,-0.10735148746851292,0.5539614991754591
661.7492398,0.2698278045084783,0.028699367862565328,-0.3227698202790598
662.2492398,-0.4466526260664997,-0.18284189570039522,0.22611497773404288
662.7492398,0.19477262720182673,-0.03691486810582245,-0.05358171298796924
663.2492398,-0.2538562949784326,-0.31830626702287335,-0.19823907937207444
663.7492398,0.4206877523305011,0.015398367794010534,-0.029148430781698077
664.2492398,0.16292331553325856,-0.14356714910841048,0.016429670494404004
664.7492398,-0.14975777225085796,0.16766167697846293,0.3440308840282049
665.2492398,0.16091258094214048,-0.07585866712644225,-0.12080007255476134
665.7492398,-0.18536822094519068,-0.16966913326745003,-0.26647773418596327
666.2492398,-0.07233364211570324,-0.24217106588578638,0.2734270790143313
666.7492398,0.6295588019537023,0.24208517115957368,-0.2642684034569831
667.2492398,-0.12041726214259192,-0.1276010334068809,-0.2493802564317896
667.7492398,0.2639908088217923,-0.031292554507550224,0.36641946360838423
668.2492398,-0.6167450674395097,-0.03647461731773535,-0.0370323695681397
668.7492398,0.6536647576230254,0.06343522729655351,0.04819034973715125
669.2492398,-0.3005384632538147,-0.16019698308034092,0.07634194792338073
669.7492398,0.38482935083833825,0.006509668411401922,-0.08069264872005216
670.2492398,-0.12291409937818024,0.018382161642988896,0.14716636509850772
670.7492398,0.2707516025535605,-0.24350822680480533,0.13683952844700417
671.2492398,-0.8070290750084945,0.12250039063645075,-0.17019080539748851
671.7492398,0.9552016702354359,-0.09793604770802032,-0.5266637493797481
672.2492398,-0.3684110389617412,-0.07538452453539532,0.6234508030044865
672.7492398,0.7329724574791424,-0.019251494308780762,-0.699160904952193
673.2492398,-0.6245888369671311,-0.3907903540974246,0.15453218915902
673.7492398,0.36618908123739674,0.17269686522890357,0.35854136062037456
674.2492398,-0.1268719057110486,-0.3109183815754322,0.18605234012712316
674.7492398,0.2505383650018755,0.14642822054299404,-0.48841896546859576
675.2492398,0.01856106030891859,-0.10322506624425028,0.2638008587660996
675.7492398,-0.05923130048041807,-0.0961570394443032,-0.4038810623237607
676.2492398,0.07715271107045857,0.01748533719182242,0.5816891747735612
676.7492398,-0.26160860226211313,-0.35598663302793976,-0.5438741289743992
677.2492398,0.25321603984428154,0.0481486222667581,0.48918364720767377
677.7492398,-0.10499192814978901,0.04228692721653414,-0.4205541996470465
678.2492398,-0.12531928215880836,-0.10309650946653333,0.17435512712358345
678.7492398,-0.19797260630255575,0.09620831100558172,0.1572270015663477
679.2492724560001,1.4981304792760755,0.2528220666913684,-0.15397565735066954
679.7520771644445,-1.46899258349194,-0.282557707840231,0.630331539068606
680.2492398,0.6770198988691034,-0.2634594817527571,-0.7443340291042895
680.7492398,-1.1062696960497163,-0.09036663987664208,0.5019899157646855
681.2492398,0.35492115497178117,0.12956237727200615,-0.2983564654949728
681.7492398,-0.47644165772949343,-0.10882304055019092,0.444249764480795
682.2492398,0.5853916669184832,-0.04825731522194273,-0.41461253027799727
682.7492398,0.04745895463844032,-0.08296280640546501,-0.18072499251841692
683.2492398,0.14659564970503927,-0.1864152872662417,0.31698945054096095
683.7492398,0.0543443512828263,-0.07404513271275148,0.14436009941446212
684.2492398,0.22812257881315612,0.03319505715961204,-0.37420253713774193
684.7492398,0.19583696726259398,-0.07734005189606939,0.039908186328767206
685.2492398,-0.388930297582869,-0.11295072911232644,0.43909797158830516
685.7492398,0.4145737691203825,-0.112958398332852,-0.5724176008352979
686.2492398,-0.7783505883420346,-0.18635873487204457,0.36326437216543284
686.7492398,0.6277080697817388,-0.017872324168111832,-0.17197956479590115
687.2466466914893,-0.30459503200709453,0.009295966047505173,-0.01782409472523206
687.768593893617,0.813433970270443,-0.0397709290220765,-0.008081374113643814
688.2542398,-0.9893894572315483,-0.05781613477301209,-0.1495588932907694
688.7542398,0.4755228709971375,-0.30557179983255867,0.04581062239189376
689.2542398,-0.5379560747703453,0.008962413108568334,0.2738039622509213
689.7542398,0.38798864387399723,-0.04096102122709763,-0.3995123285817696
690.2542398,-0.7187155479606012,-0.10232823650529822,0.31366853579468174
690.7542398,0.5976913099954707,-0.12631645923911683,-0.0724637583217786
691.2542398,0.11199165880087555,0.0092542340663467,0.2354163274223636
691.7542398,0.5466213099596848,-0.10163409837519254,-0.19868570149719963
692.2542398,-0.03868839431178219,-0.12979516996453652,-0.03140176193896733
692.7542398,-0.2631164741066595,-0.31090528026415376,-0.1263501736892254
693.2542398,0.2871316627591263,-0.14732901415614752,0.2499677444876321
693.7542398,-0.3252544260259127,-0.09215336689312403,-0.2780053454358173
694.2542398,0.4507842066255202,-0.1274250690572,0.07145767200839542
694.7542398,0.1281656410897916,0.024874785978929538,-0.17549800933519255
695.2542398,0.6101270580989722,-0.1440171642417187,0.31982101432097054
695.75423931,0.008237853004125557,0.1717647752297043,0.003479607297006213
696.2542393,-0.16312701869109994,-0.5057963520707615,-0.07371262690296196
696.7542393,0.10932885102729131,0.13776152397682162,-0.41477447270521495
697.2542393,0.3088669172401015,-0.10018778173838375,0.3192022651258046
697.7542393,-0.03728575572410612,0.009316974601444615,-0.15150154212266512
698.2542393,0.27112628540481776,-0.034280940700110535,0.23743726688487235
698.7542393,0.11463102010980723,0.037697483169660734,-0.007579306015768199
699.2542393,-0.36221855368578637,-0.24082126510669574,0.0007861012262868261
699.7542393,-0.14022672337474776,-0.33719685437929064,0.15498561131182673
700.2542393,0.058879704655767744,0.05970123070606423,-0.17941208771877457
700.7542393,-0.03283789759071416,-0.12113516764043894,-0.2698034932468911
701.2542393,-0.28164780305207665,-0.05658758722594559,0.46508743048680073
701.7542393,-0.03389276039455716,-0.01512545526157561,-0.40376961400781886
702.2542393,-0.389304967592184,-0.2610228643459555,0.2943032455135747
702.7542393,0.692999423563104,-0.04265513750306353,-0.13704190126442417
703.2542393,-0.4104382484758811,0.03031583322206222,-0.30132842728664516
703.7542393,0.6827208219009395,-0.16526708872078438,0.24275544989545106
704.2542393,-0.001598236094614358,0.007232332940494876,0.20322588799063332
704.7542393,-0.25106198077935044,-0.19283148334089986,-0.13007437993916515
705.2542393,-0.5398386485490336,-0.12902445671014776,0.02519227432698609
705.7542393,-0.32762063896772625,-0.2685688259585627,-0.08075570735354748
706.2542393,1.2805100745577862,-0.2595061435489233,-0.15385303707671194
706.7542393,-1.8429479085178286,0.10661035508645801,0.3043944874515806
707.2542393,0.2833363386569006,-0.13816909828946997,-0.2033532897516771
707.7542393,-2.239586434549621,0.45797032094116025,-0.16619977051381127
708.2542393,-2.735958774394849,0.046009222423135904,0.08040630531285263
708.7542393,-0.511410957427675,-0.3588478578236184,0.43639639261641555
709.2542393,0.22055438943795758,-0.2510245529756137,0.44569355703829955
709.7542393,0.27788562351323515,-0.2110492949399566,-0.31076937090659557
710.2542393,-0.12419127908159654,-0.6220508293454948,0.32761441389161905
710.7542393,0.8845854301386573,-0.38972458051501535,-0.09141063237679699
711.2542393,0.18059717886620355,0.04175309862309043,-0.4310562613209504
711.7542393,0.60701059264199,-0.11270412927287761,0.5580778690302711
712.2542393,0.19402962716610747,-0.03990046446916006,-0.051678272358924034
712.7542393,0.7869106258489238,-0.8310297665648221,-0.29517657210957987
713.2542393,0.5511299699616365,-0.20841155442623713,0.5703927934028479
713.7542393,0.03137117844700041,0.2955167516212723,-0.5223635306924163
714.2542393,-0.5548173601378955,-0.250374606265729,0.2787475010016086
714.7542393,-0.19341945750997727,0.5375520581586716,-0.49479744937238496
715.2542393,-0.05805221886851524,-0.4232493382253271,1.063744042576283
715.7542393,-0.19828920330760721,-0.3287714043355311,-0.25235968287462496
716.2542393,-0.32417196899272843,-0.21266173976281624,0.4878925538057949
716.7542393,-0.5927213540979874,-0.8187316875976977,-0.31582233096016676
717.2542393,0.08229738033285354,-0.10030785916278769,-0.5495699400642553
717.7542393,0.1768090280174237,0.11701832527225417,-0.12285573858744435
718.2542393,-0.6535990023326097,0.1683198378359009,-0.2953601563400405
718.7542393,-0.5406975715612683,-0.01645986242954418,0.9116394866703762
719.2542393,-0.2781599572978548,-0.013970226915581713,-0.4874761777066454
719.7542393,0.5425317716514916,-0.35522988460900534,0.49735827369968144
720.2542393,-0.02048195377961973,0.05639975582059785,-0.3524199923559304
720.7542393,-0.8356900543742364,-0.5346837204584854,-0.14591686999793296
721.2542393,0.03100323446538784,-0.43243984536891494,0.34362059436874204
721.7542393,0.6046251923397393,-0.43615011021856176,0.027345763616512687
722.2542393,0.09265034912677308,-0.07612496462737368,-0.15508264131323052
722.7542393,-0.20073925482781227,-0.3611124570696341,0.4275992296218767
723.2542393,0.06352408503850736,-0.29511228994252264,-0.39107389208439114
723.7542393,0.252676346489386,-0.17107850979870404,0.5610319735163535
724.2542393,0.2864758988282123,-0.35791291276738263,-0.6574032330868786
724.7542393,0.43725766392493315,-0.533334074470023,0.29143184764651175
725.2542393,0.0335061176040617,-0.1661168572731269,0.21762693775571118
725.7542393,0.5629241566419159,-0.03705590542347575,-0.4240334343920339
726.2542393,0.32284408657707625,-0.2197929529266455,0.3117712184631171
726.7542393,0.4039647254922009,-0.20260911648249813,0.2721490368279044
727.2542393,0.053320781559914376,-0.19114638367613193,0.09086418062494386
727.7542393,0.5142716249968553,-0.36236598854875723,-0.15421968581152481
728.2542393,2.148871027929643,0.2826865142908248,0.41099701443553494
728.7542393,-0.6216586932369458,-3.519429186465662,1.5068837804911608
729.2542393,-1.2730817989132077,-3.4779111188389464,0.851135240023992
729.7542393,2.9572091347088127,-0.32931778250266974,1.9172833590483835
730.2542393,1.4798723828913267,-0.8878058927450426,0.543572514177308
730.7542393,0.9130384725870003,0.18467081144889164,-0.11702457141732178
731.2542393,1.418366829891594,0.25160880521270124,0.6412544219753192
731.7542393,2.43705843492914,-0.2799987090639304,1.0217817661984068
732.2542393,0.34591033618311273,-0.5770195068437475,0.329985415446171
732.7542393,0.3062630604872674,0.37552428530755977,-0.38453296110307583
733.2542393,-0.3659116887128069,-0.3280827417673305,0.7719400267827797
733.7542393,-0.9908199188280047,-0.8698316107222439,0.17143713903452962
734.2542393,0.1785478217880927,-0.482352940578789,-0.05567361525128838
734.7542393,-0.5898218689101313,-0.5117704533128989,0.2765713787858437
735.2542393,0.19404772050105706,-0.028556166077144587,0.021604606720373485
735.7542393,-0.8694087272454667,-0.524387049013345,-0.32173816174741016
736.2542393,-0.2888288044441179,-0.3203619606474405,0.177408790116551
736.7542393,-0.002502800150006078,-0.1852764450996432,-0.2018455927590218
737.2542393,-0.1272039066158097,-0.17894313844590307,-0.02606357399340144
737.7542393,-0.09249424360622577,-0.6307025080279656,0.4967223590511625
738.2542393,-0.01785594282818673,0.06057743473150234,-0.36123299077794685
738.7542393,-0.20716679901820556,-0.3638049341262058,0.12808114084517325
739.2542393,-0.20408185955836872,-0.14739503526123884,0.19098400316842656
739.7542393,0.12627298403828582,-0.113869857578358,-0.43365153817790353
740.2542393,-0.006126022980738149,-0.24035676361727298,0.17967437381352944
740.7542393,-0.19685864234526204,-0.2465619702006071,-0.20064343140192795
741.2542393,-0.6971954367078126,-0.1496516905794741,0.30451510336846643
741.7542393,0.6293788469864303,-0.184615129363328,-0.11968759556221845
742.2542393,-0.5358148407829716,0.10669147943000085,0.22954716798759073
742.7542393,0.7954548557880279,-0.07162785885913132,-0.07222487258649232
743.2542393,-0.5752444534948198,-0.15762686931849196,-0.23380806056321543
743.7542393,0.4530063785920836,-0.19393341465446215,0.32796368345185406
744.2542393,-0.16866860341880546,-0.009469443714752718,-0.16260049229311346
744.7542393,0.29083689531927276,0.033889912473726344,0.04078727734536116
745.2542393,-0.4785917578865241,-0.24918772175084578,0.1114722210621548
745.7542393,0.6773948918508106,-0.09873140160426695,-0.20131818789697134
746.2542393,-0.7056551524527427,-0.17302412124280891,0.1508135351660483
746.7542393,0.2359419979140321,-0.3218229399423297,-0.23465703511014838
747.2542393,-0.7214335752245782,0.21192070323136858,-0.40174927297354734
747.7542393,0.6379243051331964,-0.7594382220953768,1.0466937103177654
748.2542393,-0.735511394103044,-0.18928204779275265,-0.49932772678542264
748.7542393,0.07263462265529835,-0.3026048662704391,-0.2277559589299347
749.2542393,0.38878107394827255,0.17513951663038632,0.14385287037906636
749.7542393,0.17366179186167408,0.12024017163349988,-0.5149466214707181
750.2542393,-1.3764268035175056,0.5087757962854836,1.1628472326637815
750.7542393,1.5154151019809563,-0.5759530710639857,-0.7565429358485244
751.2542393,-0.4375958985124943,0.003010712166312659,0.1721705152248091
751.7542393,0.506539434975287,0.03659630504424624,0.1316189074877634
752.2542393,-0.18244178138133743,-0.06447454830461014,-0.5725700039587758
752.7542393,-0.18490227000300613,-0.4762283701122474,0.8563292969032179
753.2542393,-0.060789765589663994,-0.09742824817510438,-0.15150540875783441
753.7542393,0.3176877583285706,0.20271311546086146,-0.23738962194920524
754.2542393,-0.6268934876100833,-0.20071766002297672,-0.11509068085228737
754.7542393,0.2767108269366077,-0.1489492699463113,0.3317450086384705
755.2542393,0.11218131531581198,-0.10134673468796712,-0.23136852185893558
755.75424026,0.05407360682269562,-0.027823993220812738,0.22842497736488734
756.2542403,-0.3985340048891224,0.021641116179676043,-0.3294028648329432
756.7542403,0.018741429089821363,-0.23617225632135763,0.25093080313291016
757.2542403,-0.5301897481513865,-0.018677475414373538,0.3532742519961073
757.7542403,0.5512960281778103,-0.25044387829358333,-0.2809709202381975
758.2542403,-0.1309743364914732,-0.09101973258423217,-0.05301367195840487
758.7542403,0.4475620638575228,0.13974670587484578,-0.16319922117525812
759.2542403,0.12460286848326893,0.25062262209078146,0.06289387960294811
759.7542403,0.6491874302063444,-0.09377860314956774,-0.11001353073252723
760.2542403,-0.20793743309343235,0.018719190657769485,0.21115506057057928
760.7542403,-0.011288391809989307,-0.1927476572768222,0.25508448815018575
761.2542403,-0.6079304399465727,0.0698318721893125,-0.47077421828557964
761.7542403,-0.04812508702111231,-0.21119200642514915,0.45959239284151077
762.2542403,0.24788439574889393,0.05584707508005381,-0.4819349610527431
762.7542403,0.17798555460617563,-0.13157597897404977,0.42207133315189976
763.2542403,-0.2103298242993982,-0.022238753429256738,-0.2635558571052304
763.7542403,0.3461195554990236,-0.03829924954247645,0.030516741605106618
764.2542403,-0.1364148304941559,0.07282743790476853,-0.2738376148692055
764.7542403,0.48127656699015803,-0.1526950945649008,0.05613758782416241
765.2542403,-0.32622655501406234,-0.06257080003125629,0.06130529071365675
765.7542403,-0.05607351623317161,-0.2693965039408171,0.22824106035874636
766.2542403,-0.045624904653794304,-0.4432919325226429,-0.0272515771976337
766.7542403,0.056992398808563126,-0.29562022819798744,0.17912070254602264
767.2542403,0.07670889040806063,-0.12012598592034611,-0.23919229663117583
767.7542403,-0.5276597793442749,0.01063132700173692,-0.425120234672961
768.2542403,0.8791140193575184,-0.10074062683636577,-0.1056057937313683
768.7542403,0.12404741805350808,0.22955627224241454,0.6038614245600635
769.2542403,0.09811043286159805,0.24937350479650866,-0.10655772315432407
769.7542403,-0.990977248274948,0.2845071488603276,-0.19822043474996093
770.2542403,0.1621384987013393,-0.016539580652127767,0.06433037816672944
770.7542403,-0.4124029043804816,0.06101242926298002,-0.2169178262589076
771.2542403,0.6383330859581318,0.5191843529369728,0.5923901362763141
771.7542403,-0.18899432433171046,-0.5813723588748587,-0.6944273443040211
772.2542403,0.6104136139988,-0.36644045817776827,0.6936370957478327
772.7542403,-0.28848859812808264,0.22596331669733175,-0.09046812352712096
773.2542403,0.5583488907406027,-0.17018585006206458,0.012630541077491024
773.7542403,-0.09389017187993856,0.06966399468398278,-0.34084158237087636
774.2542403,-0.04247710349338922,-0.42137816410157314,0.4341432360645605
774.7542403,-0.6506709755660744,0.039186619053594135,0.165224376535011
775.2542403,0.3139537148750194,-0.11628195821706801,-0.15065786993714927
775.7542403,-0.023369741854789197,0.010742134693045115,-0.2983911130473283
776.2542403,0.18198897506108133,-0.11730774854502371,0.3306079587768446
776.7542403,-0.17993918903880457,0.10653090988733631,-0.1926207796388683
777.2542403,0.19789967107142561,-0.1099045612004555,-0.08441281612180292
777.7542403,-0.3976239108454792,0.02412199748271504,0.1482822721604315
778.2542403,0.6196674408259149,-0.2441907267658258,-0.11498234433142032
778.7542403,0.11227886028104667,0.07129535647183377,-0.1310943173924906
779.2542403,0.31180986632391144,-0.02897031676013498,0.19525879934724466
779.7542403,-0.026066176475400084,0.019278296144649508,0.224887340757235
780.2542403,0.340317168899283,0.013017102298989176,-0.3758683051763654
780.7542403,-0.17172337089548403,0.03343847979321044,-0.17879240387514694
781.2542403,-0.17929864720278876,-0.28603501898863315,0.40247651335347795
781.7542403,-0.763560403187379,0.3116888142322488,-0.6248114542689366
782.2542403,0.4125293326711602,-0.2405989279185718,0.44001740665384304
782.7542403,-0.43414605420469266,0.05830063125848296,0.010398012244141521
783.2542403,0.5199360538121826,-0.18381024173817498,0.1194400971360678
783.7542403,-0.1410571813007177,0.11962212318219115,-0.09577873486505548
784.2542403,0.3266433614712497,-0.16361133084204357,0.3721077711803191
784.7542403,-0.17883711201171995,0.008977557647808146,-0.1456004462878612
785.2542403,0.3033448756108085,-0.03702792767532906,-0.18776034208282544
785.7542403,-0.9004207119562238,-0.2106696826437517,0.27374637974619276
786.2542403,0.43482703222168495,0.06911825635511562,-0.6355544353130744
786.7542403,-0.281084711399998,-0.11820191881479486,0.0726461705376321
787.2542403,0.4651693779970245,0.02489518361987014,0.1277168731049727
787.7542403,-0.26364855532859527,0.03116872262487581,0.38185070387136266
788.2542403,0.11874593254164598,-0.29176650838940343,-0.1995726320957804
788.7542403,-0.07200311087988157,0.21878167599792497,0.07910221321914854
789.2542403,0.27802397817390856,-0.1560917681674791,-0.13687356134023035
789.7542403,-0.16023027653807576,-0.025826099015970435,0.07157149557611238
790.2542403,-0.03700187185904836,-0.19320980117787998,-0.09087839452640849
790.7542403,-0.25186265395104146,0.08383197844496112,0.22763142379648266
791.2542403,0.5742334813059593,-0.47338606428474944,-0.08041091621534377
791.7542403,-0.25682020779081294,-0.0017452758831276115,0.06356944731189274
792.2542403,0.18484306052259886,-0.36896270141173865,0.0579723181480494
792.7542403,-0.36676578548351446,-0.08740082195839184,0.1298387443712807
793.2542403,1.0956434154365369,0.012212226262986408,-0.45164546256263804
793.7542403,-0.22860048871790967,0.11220853614024044,-0.40825374402377324
794.2542403,0.5462690966610512,0.001560185936578598,0.4091393127393018
794.7542403,-0.5573208137943472,0.17600825706650325,0.10125954224740794
795.2542403,0.22282167301684996,0.20492175071341198,-0.4052194860219174
795.7542403,-1.100765418320384,0.42005897399239345,1.1722082959443092
796.2542403,1.1740026535774002,-0.7955345475105808,-1.1772729767142465
796.7542403,-1.46644938621847,0.008304981176581253,0.7935688756693624
797.2542403,0.90683775627702,-0.16175641563619148,-0.32513443657118396
797.7542403,-0.511480161175003,0.029914461112037452,0.3967588297888951
798.2542403,0.6789830348608124,-0.08470044094189022,-0.40858617006072717
798.7542403,-0.5624266789994385,-0.016419211816078055,0.4196762111696153
799.2542403,0.48290590272076206,-0.2500637015901954,-0.054211258609081533
799.7542403,-0.20690609648017005,-0.010934362686980687,0.048599539953055944
800.2542403,0.3493007500416558,-0.05911997505823989,-0.4685151257074311
800.7542403,-0.12725878702118895,0.10593178236234464,0.26498288079408555
801.2542403,-0.23416728268780013,-0.23581856552089406,-0.009554485059440591
801.7542403,0.0790008992779518,-0.11699452848468281,0.13402793178718958
802.2542403,0.21302677240452617,0.02873386148667153,-0.613453304435003
802.7542403,0.07940309975334144,-0.10792489585622082,0.359857799804244
803.2542403,0.10156320359031235,-0.053083103533147415,0.38311350845341513
803.7542403,0.7050224628644024,0.07023232598163456,-0.31259926101813224
804.2542403,-1.1246409289724848,-0.7501264976386873,0.9720960224067129
804.7542403,0.39004235941995874,-0.1183083928292453,-0.15752002811741714
805.2542403,-0.015160070286032586,-0.04394307452941244,0.1399271858897583
805.7542403,0.31164320897271813,0.040055294818219164,-0.4978530147748474
806.2542403,0.20686783337326964,-0.2650604789270386,0.5075163399943915
806.7542403,0.0431937086790827,0.04966146515301945,-0.2634117404147763
807.2542403,-0.2246302511587265,-0.3350166860309396,-0.2678222111484375
807.7542403,0.8163598034212599,0.4250097385297755,-0.1177222713571648
808.2542403,-0.10308833439191069,-0.28015071469822134,-0.0017248958896587507
808.7542403,0.3891102985213081,0.16416716805440157,-0.5379069019003488
809.2542403,-0.33520853103662335,-0.25611505954819563,0.4528581263709568
809.7542403,0.35503644310968013,0.389514403480369,-0.3745552518508744
810.2542403,-0.06982160309540747,-0.15760373123350088,0.26528277837600645
810.7542403,0.017784720327828418,0.004597290079461262,0.1341170370352073
811.2542403,-0.5257091255648758,-0.35205121483367113,-0.059167926193716525
811.7542403,0.1550060729426656,0.12901929716956578,0.05374262868629922
812.2542403,-0.06000680091033511,0.2105245665074214,-0.15010923066150816
812.7542403,0.29321853814723164,-0.13749973933718324,-0.2148536367738782
813.2542403,0.6391851865266571,0.3553057305069781,-0.24459411035297116
813.7542403,0.7894525991401105,-0.040223629398116356,-0.3664371424735621
814.2542403,1.5053210329108324,0.8002676352233773,-0.22273733229598783
814.7542403,0.3235301555345369,-0.3311913750390218,-0.45818927833169404
