Time_interval,Time,Acceleration_x,Acceleration_y,Acceleration_z
0,0.25340428000112,-0.36100733887878,0.355773805946,0.08423088923562
1,0.7496115340285714,-1.0550626668836736,0.016119901188979574,-0.5391759631197754
2,1.245818617,-0.42507968011959996,-0.4873853346009999,-0.553387229738
3,1.7470378551799999,0.3342774344398,-0.8588516254363201,0.9302726948714001
4,2.2482569800000003,0.194869434803956,0.59160942365683,-0.109916119893683
5,2.74947596182,-0.0004853903781184001,-0.0005741313566699999,-0.000697262696922
6,3.250695017,-0.00016037311400999999,0.0003388043775511801,0.00026478593006690004
7,3.75191448018,0.0005739234295237999,0.00044684595428800004,-7.596530480939998e-05
8,4.25313451,0.0001951842521936,-0.000435583302404,-0.0002829547971632
9,4.754355642499999,0.00023330218624679998,-0.00012519788915399995,7.715357234482e-05
10,5.250565696428571,-0.000304567874722449,0.00047528966111836735,2.0771073507346922e-05
11,5.7467768249999995,-0.0002159589668774,3.8138339235400004e-05,1.2453561609000005e-05
12,6.248001725,0.0003891781065528,-6.395840097859992e-05,-0.0001464753644518
13,6.7492279900000005,-4.006139000999999e-05,6.883469424000008e-05,-2.508653559899999e-05
14,7.2504557599999995,0.00010578086609799995,-0.0008510177022719999,0.000168466768214
15,7.75168484,0.00034329634155595993,-0.0003269692511599996,3.359155040079999e-05
16,8.25291522,0.00017629015718739974,0.0005695283952060004,-0.0005739588826830001
17,8.754147525,-0.00010607663538899998,-0.0008069202488453999,-0.00038367953382599995
18,9.250368760204081,0.0007233326323005307,0.0008072785136897959,0.00032267399249530604
19,9.74659054348,-0.0008901619166724001,-0.00018110166306040002,-8.362149818199998e-05
20,10.24782584,-0.0007158714719056,-0.000563597054788,-0.0010312423435648
21,10.7490630114,0.0004989816893220003,0.0012950472639120013,-0.0012847952841848
22,11.2503011872,0.0013552048522574001,-0.0009656133409165998,-0.00023508621628
23,11.7515405964,0.005448515667082,-0.00040360699457599994,-0.006606373579776
24,12.25278082,0.0087940414436808,-0.002712517063932,-0.0799648931278
25,12.7540211452,0.030854910807946,0.011638143901476,-0.264394211472
26,13.25025006632653,-0.0047495409706571415,-0.012033980037944899,-0.48123216629183674
27,13.746480265,-0.01914278899324,0.02090105023276,-0.659686133856
28,14.2477239,-0.027928274832670002,0.03688068207354,-0.786589069364
29,14.7489685148,-0.01699613160402,0.041394854570540006,-0.770195219516
30,15.250214289999999,-0.010743606593963999,0.043582158006018,-0.65140518427
31,15.75146136,-0.01959622845009,0.017698644733962,-0.511020392178
32,16.2527097,-0.027068781843440002,0.0180907779742,-0.506151971218
33,16.7539584812,-0.0028937709430499996,0.026233033435682,-0.552889255286
34,17.250196234693878,-0.010735217490988777,0.048538036798087755,-0.5161749233959184
35,17.7464352836,-0.01047871298808,0.018640372233080002,-0.319281131324
36,18.24768825,0.054636926367500005,-0.035321587267362,-0.21632359742799998
37,18.7489416732,-0.026100784345544,0.028358901208076,-0.0856772375884
38,19.2501962176,-0.00964119006888,-0.00801710975428,-0.0459085191418
39,19.7514521824,0.028945221145902002,0.039436128517697996,-0.049002839401199996
40,20.252709287400002,-0.00745018137664,0.007846180872056,-0.01867172439105
41,20.7539673088,-0.039489659153792,0.014522653147255999,-0.021627016716416
42,21.25021379081633,0.031561772583877545,-0.0008311128731632651,0.0038236289225312245
43,21.7464616082,-0.0126533512395,0.015816783729063998,0.003362290845742
44,22.247723147400002,-0.012134326231364002,0.00720790564806,-0.0029656579764746
45,22.748985390399998,-0.010618537506084,-0.00134756603977,-0.005454617312402
46,23.25024868,0.006174094630372,0.011168397423402001,0.0051197668299959994
47,23.7515132946,-0.0050539374722356,-0.00405782656826,0.0611781560446
48,24.252779190000002,0.006472370699570001,-0.0028422271089000003,0.099377732273
49,24.75404635,0.00514730527542,-0.009225057298642,0.238001235728
50,25.250302027142855,-0.020829740741138775,-0.06589975333448979,0.4501323669612245
51,25.74655865,0.004982249233144,-0.02483234807842,0.5622617661980001
52,26.24782867,0.02837198801326,-0.053525474155739994,0.66902416468
53,26.749099778,-0.012440109616199999,-0.029239571160592,0.506555371882
54,27.25037163,-0.0044889653010800005,-0.00254574297896,0.292627091104
55,27.7516441182,0.0022482594658660006,-0.018747858451812,0.1092262661464
56,28.252917160000003,-0.00662656943271,-0.01843755078399,0.0219117876119438
57,28.7541904614,0.004403876615708,-0.011427204959704,-0.009120682326392
58,29.25045134346939,0.004486031089102041,-0.01293031047055102,-0.01337107628577143
59,29.746712702,-0.022990756723380003,-3.172811272000003e-05,-0.01208496460096
60,30.247987400000003,0.01193191600018,-0.0003415177390560004,0.001879604628872
61,30.749262132,0.004850818793838,-0.015480027702520001,0.0022383963270958
62,31.250537518599998,-0.002213829951744,-0.00045788516216000027,0.001572868374642
63,31.7518133638,-0.0024990292005939996,0.0006409010854599991,-0.00962737020563
64,32.25308978,-0.0013163792807454,-0.0005790601862959998,-0.01294066729488
65,32.754366548600004,0.0060252886359,-0.0110164736567,-0.021259277462280003
66,33.250631077142856,0.0009055096386244898,0.015364595015408164,-0.01985768178879592
67,33.746896666000005,0.0038824940842199997,0.0135852948764,0.001881560850764
68,34.24817564,-0.01890159485978,0.01712864107578,0.00794350241744
69,34.749454368,-0.010404874477195201,0.0009157789764800001,0.02367966681696
70,35.25073344,0.006730663263755999,0.01182213448986,0.018939052755459998
71,35.752013240000004,0.0094337623283,-0.0164987664463,-0.013708005121325998
72,36.25329332,-0.016209490224903998,-0.01219597562996,-0.0045477290309840004
73,36.74956132408163,0.013063663435656531,-0.004816456640685715,0.0006222304942428569
74,37.2458302172,0.0081648119286,-0.005468138272539998,-0.005491569482402
75,37.747112863400005,0.024416571289500002,0.009303007942619998,-0.0023363868194466
76,38.24839622,-0.03693011052808,0.015771956389980003,-0.0069805644378940004
77,38.749679958799994,-0.0057453110075679995,-0.03599617862688,-0.01472584496706
78,39.2509641476,0.00510689770848,0.02258964606839,-0.008793971140454
79,39.752249227,-0.0007967630212000003,-0.00855520314836,-0.010414659997384
80,40.2535348476,-0.03106816153698,0.00569248568414,-0.013415846530941999
81,40.74980844836735,0.03249008582928164,0.018236349298557143,-0.012647887839393877
82,41.246082957199995,-0.005433111917772,0.0007351419694640004,-0.0480148857828
83,41.74736824440001,0.001086800033,0.01351783376208,-0.08734882220739999
84,42.24865307,0.011290387828974,0.01666841159608,-0.1219861568546
85,42.7499406334,0.00039084368361999946,0.008730059486540001,-0.156121310294
86,43.2512294774,0.016731627302568,0.028419191782098,-0.16333550423999998
87,43.7525190722,0.01666808467368,0.0026025798162200003,-0.155510261056
88,44.253809527,0.0029866020368479996,0.00793980568346,-0.1251357312564
89,44.75008708693877,-0.008332835843163265,-0.01884249244442857,-0.07697176188285713
90,45.2463647468,0.018663748044699998,0.011492450869388,-0.027070591896999997
91,45.7476563442,-0.0094892358021672,-0.00966074885675,-0.024088388327439997
92,46.24894864,-0.02940083034334,0.01876636046978,-0.0196311656199
93,46.750238798,0.02571802349754,-0.02155483744174,-8.23083707522e-05
94,47.2515293974,0.05777419410468,-0.02638489708356,0.01215535022804
95,47.75282339420001,-0.10530338633946,0.040695927705760006,0.0016354007065600001
96,48.254118399999996,0.049376804370874,0.012521841803719999,0.0009138062663539997
97,48.75040052489796,0.033720486435918365,-0.013797887448551021,-0.005229134516948979
98,49.246683139999995,-0.029070632448642,0.00021061181068400005,0.0036973567281379997
99,49.747979581,-0.03608397247274,-0.00026299829596340056,0.008810551574046
100,50.2492764972,-0.005602373750500001,-0.012828458088254,0.01255531502692
101,50.7505742772,-0.030300288162460002,0.0012908865600999998,-0.0006894113987340003
102,51.251872717400005,0.0061114855795600005,0.03083272406986,-0.030663751796836
103,51.7531715772,0.019734873482914,0.03941154448348,-0.026817079368052
104,52.24945837734694,0.0043404505174959186,0.009584958192307959,0.032612086786938776
105,52.7457453774,0.004359539328684,-0.015168352211596799,0.02375717077854
106,53.2470458774,0.00415691422086,0.0292973497334,0.0015943219987399994
107,53.7483474314,-0.016458927703092,0.011705778253467998,-0.00609977418801
108,54.249649829999996,0.010902872908288,-0.01795909923412,0.003928453147276
109,54.75095184,0.007224869020456,-0.0094261942804166,0.0109469006508778
110,55.25225398,0.009871351626044,-0.015778113314664,0.01303000968406
111,55.753557359999995,0.01348766658438,-0.0165742458682,0.00313204882666
112,56.249848459183674,-0.004139271308042449,-0.01213102081640204,-0.04704833568693877
113,56.746139412800005,0.001587144591948,0.023065180221938,-0.21121418387199997
114,57.24744402,-0.07637342369362,-0.012822893605902002,-0.284745016692
115,57.748748908799996,0.0401453343418,-0.009293679091438,-0.310380056498
116,58.25005418,0.011617073156166,0.0037399096975319996,-0.284047562782
117,58.751360745599996,-0.00455952766354,0.034643317442656,-0.162377757722
118,59.252667866399996,-0.008444671649292,0.02279741456774,-0.181838506464
119,59.753974651600004,0.022506823986271,0.02211486760665,-0.35025578678400004
120,60.250268668367355,0.017900728287612244,0.02244593365567347,-0.40389541095102044
121,60.7465638786,-0.017414933927303998,0.01826646658518,-0.350738778114
122,61.24787344680001,-0.010065494365402002,0.07373620189880001,-0.0568354506879128
123,61.7491836014,-0.0161387378253608,0.025252057146746002,0.297210953232
124,62.25049445,-0.05335126288222,-0.0900319672376,0.470506016014
125,62.7518057454,-0.016819187608044,-0.021858022455331798,0.554000085586
126,63.2531175864,-0.02831797851304,-0.018979521552504,0.617033250328
127,63.74941723244898,-0.022869536073940818,-0.04268078732148367,0.6308135159122449
128,64.24571765,-0.039043028205,-0.03292945697058,0.61847849965
129,64.7470321608,-0.0209867671126996,-0.01989994753116,0.625573801988
130,65.24834763,-0.03697608818326,-0.021300440505604,0.591647951602
131,65.7496635598,-0.03387442061644,-0.034028739137174996,0.5692557120339999
132,66.2509802376,-0.031047670105559998,-0.058047477358638,0.552840663192
133,66.75229736680001,-0.002161390977244,-0.05855122643494,0.39837060660600004
134,67.2536150574,-0.01209893487458,-0.0624043874051,-0.06788114897582
135,67.74992042040816,-0.00928996330367347,-0.015759989449061224,-0.3472544398816327
136,68.24622628,-0.0231231483453518,0.02107583394273,-0.306311039332
137,68.7475462478,-0.011514776190938,0.03582850735638,-0.08650970692768001
138,69.2488666772,-0.00892175801097,0.00478910827112,0.1410080712296
139,69.7501872962,0.009715734246212,-0.003667495222339999,0.172735516424
140,70.25150825,0.007724916710856,-0.01902236924512,0.1583139056
141,70.752829795,0.00300194423682,-0.02297560234513,0.0984458856262
142,71.25415178,0.005847814157788,-0.00756240529902,0.045217367178080003
143,71.75046068816326,0.011524844240591837,0.01790215212665306,0.0025665758661
144,72.24676999,0.0054926719418799995,0.0294240854679102,-0.0004117188461754
145,72.7480931356,0.002793317883886,0.0007229314665820008,-0.0007404704625366
146,73.24941689,0.006165288966712,-0.01141105785938,-0.0015304912698
147,73.7507413428,0.008578143045146,-0.01534817553108,0.00011934632655399999
148,74.25206626,-0.04242269342803,-0.00044465711435999944,-0.0024243405367928
149,74.7533904272,0.002909697731568,0.010951268628299999,-0.002188313268172
150,75.24970138244898,0.0035010024389151018,-0.008118780121197959,1.6401902254489767e-05
151,75.7460130906,-0.001265225885492,-0.00792212417348,0.0028093251374526
152,76.247338,0.012418721495206,0.01202831926742,0.005848922452438
153,76.7486632744,0.014541538506859998,0.0059496439995754,0.006759939131062
154,77.24998893,-0.00214983811626,0.004560957001856,0.00377323019564352
155,77.751314856,-0.0030256220046276,-0.005158481625359999,3.2299808181200047e-05
156,78.2526410156,-0.012977587999655999,-0.008556492320376,-0.004241163050648
157,78.7539672172,-0.0008580939473079997,-0.00488046624711,0.0011435031355519999
158,79.25028030081633,0.014829229021917346,-0.0019953079446027146,0.00023601522515102042
159,79.7465940168,0.0026608093175,-0.00822513041126,0.0059556493932148005
160,80.2479216074,-0.008312711818288,-0.0046673838415239996,0.002301426010766
161,80.7492491256,-0.006745982207654,0.00173700658642,0.0041989597770298
162,81.25057694,0.010874505191863998,0.0009277378214660001,0.0019839199073
163,81.7519053226,-0.00541550457454,-0.009172462532376,0.002489412142874
164,82.25323396719999,-0.0009238728882200002,-0.00211146007317622,0.0021785725770134003
165,82.74954948265307,0.00018857772087755076,-0.012036548471265306,-0.013821664795955101
166,83.24586544,0.006793681979128,0.009919019899846,-0.019119933392085998
167,83.7471948722,-0.01033255456934,0.0072471842808199995,0.006350852034448001
168,84.24852450739999,0.0022501873971179994,-0.01651103484413,0.006969409513414
169,84.7498544404,0.004880465520302,0.008801355085259999,0.007873107546352
170,85.25118461,0.005385768962899999,0.01179735704492,0.007350489038098
171,85.7525151122,0.0018847689314560002,0.00162639839534,0.008261484515384
172,86.2538459974,-0.001181596377832,0.002073270269234,-0.008829413300202
173,86.75016364836733,-0.004048584152942857,-0.004722724061567755,-0.06731354559244898
174,87.24648132,-0.00756128787056,-0.01397946878238,-0.115150851312
175,87.74781327000001,-0.0030454959814980006,0.0083613502874,-0.156570822892
176,88.24914573,-0.002885417193794,0.007949272245376,-0.147264442442
177,88.75047836600001,0.01573505972454,0.01495568810006,-0.148158685566
178,89.25181145799999,0.0062829876975959995,0.00986482434008,-0.14877755970200002
179,89.753144116,-0.017399374889342,0.00021085124261999947,-0.131216432156
180,90.2494637134694,-0.013568373046163266,0.008070065935857143,-0.12800206258571428
181,90.74578384419999,-0.008879064079582,0.017934724045057998,-0.136515643006
182,91.24711778700001,0.0133117472661,0.00880677997074,-0.145753787756
183,91.7484518676,-0.0032954031140559996,0.020183898201180002,-0.15789005786000002
184,92.2497860866,0.02030181317562,0.01447400087354,-0.07205308355699999
185,92.75112136780001,-0.0263134197145,0.006253384807779999,-0.0384954693174
186,93.25245750719999,0.008706989762998,0.00308626848362,-0.0008010346975976
187,93.75379413139999,0.007970908377228,0.00013001622576000072,0.001091633052552
188,94.25011815306122,-0.002981729472867347,-0.006807737480244898,-0.00017400585801061232
189,94.74644237759999,-0.007476523508906,0.0005097464286399998,-0.00222234611169
190,95.2477801,0.004829643703786,-0.005253004459931999,0.001018393905858
191,95.7491191724,-0.002428556242826,0.004185042949398,0.001547228153878
192,96.25045885,0.011045921621626001,0.000924711265022,0.000609710416739942
193,96.751799416,0.004468578957216,-0.0013087788325001992,0.002772290119732
194,97.2531408672,-0.0033555430266839995,-0.004547674600547999,0.001458958492178
195,97.74946865999999,-0.007668518091046938,-0.0012234274436481634,0.00020747750809436738
196,98.24579664999999,0.00227758708434,0.00112035991656,0.0007897532426822
197,98.7471389504,-0.0005798991402359998,-0.0012742490230400005,0.0007655039313198001
198,99.24848193,0.0012513767833179999,0.00914027536312,0.003518194984584
199,99.7498247864,-0.00016398293929599996,0.016222742916748002,0.00044139322120919993
200,100.2511679,-0.01585180816268,-0.002327232014599999,-0.000418833701308
201,100.75251166800001,0.02162716506724,-0.0029857579274,-0.002295290392378
202,101.25385584,0.00403261789204,-0.009957615181962,-0.0009152005028965999
203,101.75018680408164,0.0011598786186444898,-0.020990136222052248,-0.11480695841714285
204,102.24651812,0.010420249728016,-0.007042452813876,-0.198458976442
205,102.74786329599999,-0.052888714520400004,0.028611527263524002,-0.174327438624
206,103.24920874,0.0017156991357399995,0.016149273933764,-0.124601924566
207,103.75055499800001,0.024879965715146,0.023105946464140003,-0.146323909754
208,104.251901654,0.0042998750434616,-0.007881163325620002,-0.15742845386
209,104.753248232,-0.01162881863355,-0.0012754053919500005,-0.151914012136
210,105.2495815265306,-0.007199618860653061,0.013466528275938774,-0.1443125383632653
211,105.745915212,-0.0011712390736039995,0.022244580515932002,-0.135000488758
212,106.247262694,-0.0064213240979599994,0.007683128910153999,-0.126654694532
213,106.74861058799999,-0.005020838687152001,0.012638231014820001,-0.1075868335326
214,107.24995865999999,0.0136143422403164,0.013841748237452,-0.0495474094526
215,107.751307464,0.00496050443484,0.020305485715477998,-0.0016497543174720003
216,108.25265671999999,-0.002312907353096,0.00818316509043,0.0378868058696
217,108.754006312,-0.0011833547242800003,0.00897475333978,0.04238944176580001
218,109.25034227346939,0.0025267390233755104,-0.0036012907596734687,0.04176242429040817
219,109.74667894599999,0.0037472674438820005,-0.009191493262442,0.0325687388334
220,110.24802996,-0.001381206503124,-0.000562276468076,0.0248982509042
221,110.74938095600001,0.005107019143072,-0.009174570422834,0.0217134176564
222,111.2507324,0.006174322031989801,-0.016214484712958,0.020358131602279998
223,111.752084136,-0.0014103227202520003,-0.0022594968778000004,0.021445574760400002
224,112.25343591999999,-0.0016238280853999997,-0.00446550402789,0.0326504964008
225,112.74977531632653,-0.00013083307902040842,-0.0025602053769387756,0.03358283950734694
226,113.24611555999999,-0.004670205339996,-0.006567669623300001,0.0309506340702
227,113.74746895599999,0.00472905347105,0.0055030075449236,0.0412452246618
228,114.24882234,0.0018259365481880002,-0.002615515291564,0.0337212253366
229,114.750176688,-0.004091532574808,-0.009688224866856,0.025825139097599998
230,115.25153152000001,0.00723815088114,0.00474344625966,0.01646740268936
231,115.75288658400001,0.00328265788976,-0.003065951569814,0.01776763077772
232,116.25424206,-0.00038239182042180004,-0.0017305709144160002,0.0323591242364
233,116.75058425918367,-0.008524743554457143,-0.0011890183057755102,0.03936217637857143
234,117.24692655999999,0.000496169711024,0.0028726569654000007,0.0331713258108
235,117.74828312,0.0008628872222071999,-0.012509212103506,0.015449074153
236,118.24964022,-0.006719991368940001,-0.013477207013380002,-0.0010024952771794
237,118.75099714800001,-0.00488857251574,-0.010086063537080001,-0.01543554164432
238,119.25235412800001,-0.008451593741972,0.010000919001199999,-0.005294393294096001
239,119.75371157400001,0.007301284689654,0.02272034574284,-0.007980657148016001
240,120.25005562040816,-0.0032335021909326526,-0.012067545489112246,-0.011379861325061226
241,120.746400476,0.018108570846092,0.00975814114444,-0.006435644142294
242,121.24775984,-0.0009232139395640002,0.0158977224584398,-0.0022073061182655003
243,121.749118764,0.0009255551994000021,-0.01098183326234,0.0029350429467737997
244,122.25047764000001,-0.053863957637200005,0.011062534431002,0.003779757264532
245,122.751837696,-0.016871450823259998,0.00291859964854,0.005133243981344
246,123.2531982,0.03805315965826,0.00238080908514,-0.0008077843999004
247,123.74954514081632,-0.010124359175004082,-0.002468532046510204,-0.009764928921895103
248,124.24589239999999,-0.01556413072165512,0.005549173252742,-0.01433212110762
249,124.74725359199999,-0.007364925807022,-0.0061874005837062,-0.017704320120999997
250,125.24861496,0.0149232548660054,-0.02071016049042,-0.0231536095966
251,125.749977112,-0.02854588013152,0.01143863812958,-0.029681855067200003
252,126.25134004,0.0163919962568,0.005470212679314,-0.023241122719199998
253,126.75270266199999,-0.014801208898388001,0.02238564626246,-0.014983512590940001
254,127.25406505999999,0.02246930547058,0.0020349179306600003,-0.0173276936456
255,127.75041515918369,0.02041755664201837,-0.025386453007448982,-0.08357936737
256,128.24676585999998,-0.0126468103006026,0.00998129397403,-0.24773372233
257,128.74813034000002,0.0038804142460351996,0.03161044884441,-0.326359509826
258,129.24949528,0.017081423643261998,0.03965977629807,-0.271372270872
259,129.75086072800002,0.0033152695000140003,0.035502085667439995,-0.02777771939098
260,130.25222685999998,-0.01280387116572,-0.016186787858475202,0.314132491356
261,130.753593038,-0.01800581892022,-0.03579973942628,0.469356684084
262,131.24994594285712,-0.02730794080967347,-0.032153544007865305,0.5151351672081632
263,131.74629941999999,-0.014591411007270001,-0.031155198755914004,0.48242286264999995
264,132.24766688,0.0203255653289,-0.04037026665078201,0.285227243608
265,132.74903446,0.003238777825792,-0.0350140109474,-0.023924229517628
266,133.25040262000002,0.007757402369613999,-0.013378282871740001,-0.273947778642
267,133.75177095200002,0.017165506575769998,0.03854105998316,-0.313136684896
268,134.25313942,-0.00926881562936,0.013807341149559999,-0.213805056218
269,134.74949483265306,-0.00429809678895102,0.007906638618244897,-0.06067457289612245
270,135.245850736,-0.003538492573406,0.0078042773719000005,-0.022031955505040002
271,135.747221116,0.005967690655914,9.234813078200017e-05,-0.005178496688712
272,136.24859202,-0.0001833576242679999,0.004068884226380001,-0.00945303088992
273,136.74996371999998,-0.0031688320265000004,-0.0002435758507800001,-0.01493459146452
274,137.25133598,0.008040235871174,-0.0028963499596199997,-0.020906718764664
275,137.75270888,-0.008833394292732,-0.00981487745398,-0.027537227607760003
276,138.25408248,-0.008594123283622001,0.0152429429635712,-0.0047113952569948
277,138.75044235918367,-0.00043374669640000005,0.0014604935636640815,0.005095442925659183
278,139.24680214,-0.0013398009630537,-0.00855559381712,0.00526550168883
279,139.7481766,-0.01607565037918,0.01339360537234,0.0027531805146768003
280,140.249551562,0.01117112856344,-0.00728862277288,-0.007263968861920001
281,140.75092639000002,-0.01976101541894,0.00452600631132,-0.008544187958
282,141.25230159999998,0.01326092797308,0.010200052802738,-0.0067455703790376
283,141.75367712,0.01116504371068,-0.0005340576144859989,-0.005371686087570801
284,142.25003899387755,0.005651810253959184,0.0016803994832918377,-0.002266149395362245
285,142.746401478,-0.004504493419078,-0.013162826104858001,0.006557133360768201
286,143.24777804,-0.008594723911666,0.00449777000568,-0.00581835619198
287,143.749154986,0.029106769366430002,8.434094723999697e-06,-0.0233806299044
288,144.25053262,-0.023841650010470002,-0.0065579860931,-0.01546851349052
289,144.75191004,0.018145298883968,0.0087686420882716,0.020929777566476
290,145.2532877,-0.005396530674,-0.004436259019039999,0.01990486906826
291,145.7496519408163,0.006200155119120409,0.002523444050510204,0.008928471173463265
292,146.2460164,-0.01505731272712,0.012524901244546001,0.00742057695982
293,146.7473951,0.023039329573733197,-0.02627381440574,0.003750606039326
294,147.24877406,-0.0307113096298,0.007558031845474,0.004966894029430399
295,147.75015329800001,0.01185620459718,0.013522979793793998,-0.00029787307156400005
296,148.25153286,-0.0013755275393239996,0.0060155630006600005,-0.0072711689648876
297,148.75291253,0.00229007756303,0.009845587228951999,-0.0057646936898760005
298,149.25429192,-0.0017515420171499995,0.004720556613792,-0.0047729624365128
299,149.75065815714285,-0.012908202758120407,-0.020434029360591834,-0.005167581808708163
300,150.24702489999999,0.0075316901039259995,0.009231903430978,0.001989609999684
301,150.748405578,0.0036465774757164,0.004963781525602,0.01649353821788
302,151.2497868,0.019888960355534,-0.00849492824642,0.0091059926338146
303,151.751168342,-0.024636475843280003,-0.0021434620774839993,0.0041487745335532
304,152.25255022,0.009897250002206,-0.0096898884788324,0.0008855894673559999
305,152.75393252199999,0.00369483774531,0.00840670421682,-0.005996353458656
306,153.25030126938776,-0.012064023713157143,0.003009043719581633,-0.00524149327890204
307,153.74667024800002,0.01092213678182,0.0014297592364599994,-0.005825228707374
308,154.24805354,0.011917234379761,-0.01033981664096,-0.0033627799059179997
309,154.749436546,-0.0224954807291,0.01352050770996,0.0075954467175460005
310,155.250819716,0.005858239159549999,-0.0042055148820485996,0.007070202438554
311,155.75220335,3.0515901134000063e-05,-0.0009433724174600006,0.0018942021345614
312,156.25358746,-0.00230170996878,-0.0020224035913800004,0.0028898720675742
313,156.74995748979592,-0.004723064267191837,-0.0010405933513673467,0.0035766582884085717
314,157.24632752,0.0073455913549192,0.006207544580773601,0.024601822845019997
315,157.747712204,-0.0026070259696640004,-0.008274867888239999,0.053173902631200004
316,158.24909746,0.00249014832058,-0.00037377776584000073,0.0564560332146
317,158.75048258799998,-0.0026092984155179997,-0.01652773475262,0.046892717890400004
318,159.2518678,-0.002931733354694,-0.020664258198346,0.011225895970096
319,159.75325340400002,0.00628460398896,-0.0214101950846,-0.05139533041096
320,160.24962535306122,-0.016388302906657142,-0.01618199915169796,-0.07495526011489796
321,160.745997552,0.008063787613094,0.004624941888502,-0.0549705922604
322,161.24738404,-0.01059418078532,-0.00035060755879999934,-0.043840664885800004
323,161.748770516,0.0108007363225576,0.01560756947692,-0.013950013448646
324,162.25015729999998,-0.0017640403467999999,-0.00802429468502,-0.020694911466016
325,162.751544168,0.007683729938453999,0.0020930407284800003,-0.058521054685999996
326,163.25293108,-0.008367871465334,0.011295378030599998,-0.0748195733122
327,163.754318412,-0.0007169122811419998,0.029093212101462,-0.0614156804238
328,164.25069212244898,0.006036311540878572,0.009403018547369388,-0.013406741406902041
329,164.74706569000003,-0.010481291134002,0.0250267417906,0.037883661985478
330,165.24845290000002,0.010251395274228,-0.003384373691012,0.005673382475537
331,165.7498406,-0.015572530087296,-0.004937091281796,0.0011824272875102001
332,166.25122876,0.008276799134832001,0.010727077433,-0.00177106537616
333,166.752616676,-0.00824302202086,-0.005402122938943999,-0.0021915224472639997
334,167.25400504,0.019741775989244,-0.00884209592814,-0.00661326406766
335,167.75037982040814,0.00016043626934081603,-0.012537386819106123,-0.01010362989220408
336,168.24675491000002,-0.0009950210061360001,-0.02263094084416,-0.0049162689688682
337,168.748143892,-0.01451428438567,-0.014820578034239999,-0.0031653492617739996
338,169.24953236000002,-0.005720185209902,-0.0009100427089419993,-0.01132696776166994
339,169.75092171600002,-0.009014821667866001,-0.0037496676771600007,-0.02601643171176
340,170.25231146,0.0001192536011900001,0.011148037267779999,-0.010269676884668
341,170.75370098399998,0.006595470253578199,0.001234435177878,-0.0002980686352530401
342,171.25007671836735,0.0028530727330510204,0.007337876138897958,-0.00429654885733102
343,171.746452656,-0.00028403759970700016,0.011207764631568,-0.011454743435499999
344,172.2478429,-0.01282696513434,-0.00026993099677999994,-0.0089869517973
345,172.74923296,0.01854495619431,-0.0066395149657819995,-0.00453271815096
346,173.2506231,0.0033768978526759995,-0.011275722086277999,-0.0030157437873806004
347,173.752013314,-0.0030258848049140004,-0.0036501665320919996,-0.0028917594812756
348,174.25340368000002,0.034664561003421995,-0.007383383550283999,-0.056731477863600006
349,174.74978015510203,0.007973788410328572,0.00837524474642857,-0.21621574279591835
350,175.246156776,-0.005460645072116001,0.025517104426785998,-0.31799304843000004
351,175.747547312,-0.020325576783530003,0.03640851949352,-0.28859370082200003
352,176.24893776000002,-0.0216677609932,0.04856335569132,0.011454878808980001
353,176.75032863,-0.02718935808108,0.006123680993778,0.40946553468200003
354,177.25171926,-0.014650459009782,-0.023589297364386003,0.589556822778
355,177.75311039200002,-0.023286615079090002,-0.0386216365175,0.599025735858
356,178.2494875857143,-0.026989834240714286,-0.05682476815538775,0.6635139243938776
357,178.745865048,-0.03227275114474,-0.072365167888,0.6999414956619999
358,179.24725646,-0.0312712844553,-0.05296099301464,0.70132060885
359,179.748647328,-0.019084489540786,-0.02930852262332,0.6652799308359999
360,180.250038232,-0.01633113899294,-0.06964659238128,0.42053351312399995
361,180.751429272,0.010839059390422002,-0.035081620653196,0.020324039403408
362,181.25282076,0.02538903036066,0.011709723787522002,-0.18012900189
363,181.75421209200002,0.02293522571226,0.0161192225949554,-0.249387648406
364,182.25058953265304,0.002708850865389796,0.009203452704410203,-0.1685650227069388
365,182.74696727999998,-0.015838031461919998,0.019327761550298,-0.1035086484276
366,183.2483594,-0.012498125145106,0.014975328473500001,-0.0591534896928
367,183.74975103199998,-0.018075296506612,-0.004641944625519999,-0.011609951151034
368,184.25114246,0.0146178527179958,0.003110646486277799,-0.007089819559004
369,184.752534216,-0.011224681213194001,-0.00817945298696,-0.008009528257316
370,185.25392632,0.0031183113250599997,0.0028203340528959995,-0.00681265346246
371,185.7503041877551,-0.003842414024010204,0.0071666739251673465,-0.006624838033257142
372,186.24668192000001,0.000950718465988,0.008583522663222001,-0.0052689132722816
373,186.74807388000002,0.0035415663197616,0.009015442525016,-0.002631352215468
374,187.24946582,-0.003669188516562,0.00342929901622,0.006724478500014
375,187.7508578,-7.618872480000008e-05,-0.002945935343321999,0.00837591905128
376,188.25224988000002,0.0011566915354719997,-0.0029624927424364007,0.010460104769639999
377,188.753642164,-0.00125987747726,-0.0030943908344320003,0.0036416229792460004
378,189.25002049591836,0.0010470882514795918,0.0029763063242040813,0.0022021861882632653
379,189.74639939,-0.0030985215680419996,-0.005898562473332001,0.0013023933069979997
380,190.24779249,0.0028310926259634,-0.0029949537940400003,0.001378556822870022
381,190.749185846,-0.00020486007481999995,0.006181888124740801,0.0028935260977440004
382,191.25057998,0.002678394829682,-0.004116919608914,0.001170650064008
383,191.751973498,-0.000464224573368,-0.0039057239796700003,0.0019537101499515997
384,192.253366152,0.0043883221222659995,0.004909422956494,0.000974572061113
385,192.7497461836735,-0.0017417839978004083,-0.0004071876101497961,-0.0011241143302734694
386,193.24612644,-0.0001920605635300001,-0.0005573667119960001,0.00040113852828779995
387,193.74752071,0.002779127387136,0.00473076447854,0.0006351452157544001
388,194.24891572,-0.00029053581903079986,0.0002102113702459996,-0.00070875454928
389,194.75030966999998,-0.0037171501761980004,-0.0021923125720799998,0.0002895777322917
390,195.25170314,0.0034733821361919996,0.004937076000096,0.0007326352037644
391,195.75309739,-0.0004827248861968001,-0.0039040361067579988,0.00044463414813140006
392,196.24947786734697,-0.007425295750187755,2.452396579795898e-05,0.0035227467425212244
393,196.74585854,0.006399816824796,-0.003650249614466,0.0016321500111240001
394,197.24725406000002,-0.0009472231936960002,0.00454270708348,-0.0029132342804226
395,197.748648616,-0.0016483883558459998,-0.0018255028306399998,-0.0034179499232743996
396,198.25004213399998,-0.00381355674936,-0.00018959005439799919,-0.0038797839686019998
397,198.75143691000002,0.0070780958516320006,0.00608650158034,-0.0024612838913802
398,199.2528325,-0.0009463152480650001,0.002367073222908,-0.002969585522192
399,199.75422733,-0.0070528401990720005,0.00218524601132,-0.0049343779123152
400,200.25060804285715,-0.0008520152587346938,-0.005732547035979591,-0.005378148770500001
401,200.746989168,-0.003802832467462,0.00234142242038,-0.00481697563433712
402,201.24838383,-0.0006983708308839999,-0.0007362896303086004,-0.0044633160182600004
403,201.74977925,0.00966628058822,-0.003209303226484,-0.0019154599216231998
404,202.25117496,-0.00075977855371,0.0012735093015764,0.003333893602312
405,202.75257072,0.001416859227014,-0.001858169995342,-0.001133548421794
406,203.25396745999998,0.003610289637126,-0.0015479746364600003,-0.0006083771493318
407,203.7503494142857,0.0034389623094942855,0.005895144932010204,-0.00014284023623918374
408,204.24673082,0.00164783987183,-0.0005228779749319999,-0.00021265164711220001
409,204.74812708599998,0.002816141573582,0.00040295240448399967,0.0011057621590143999
410,205.249523432,-0.00438278960069,0.0008440878612139997,-0.00033807864412919997
411,205.750920062,-0.00012205361400799991,-0.00020534399925000002,-0.002603069653242
412,206.25231692,0.011958209714063998,0.0008797496931007997,0.0010777470376152002
413,206.75371384,0.0044891385083,0.00111516173012,-0.001962368184463
414,207.25009742040817,0.017002896700734696,0.0010437799749618368,-0.0002706195584395918
415,207.746480618,0.0073786594069281996,0.00260048581271,-0.0010056775528948
416,208.24787742,0.0050714579226176,-0.00034661184957520005,-0.0017994224186326
417,208.749274964,0.013883100729178,0.00476498962386,0.010874669265429399
418,209.25067294000002,0.015123372301232,0.0006202171021600003,0.01515374116098
419,209.752070552,-0.02896329800612,-0.0001527615551759999,0.0048036060553612
420,210.25346850000003,0.03399218384178,-0.018006772873724,0.00558016312765
421,210.74985226326532,0.01027898119812653,-0.026082562301185715,0.005919342242585715
422,211.24623536,0.016397113837654,-0.01698389897181,0.006190513552768
423,211.747633446,-0.0064952573454399995,-0.008550112582614,0.00945665599742
424,212.24903193999998,0.01414920885134,0.001041526840484,0.00806335123256
425,212.75043024,-0.051561928531319995,-0.0113529141783,0.007306805451049
426,213.25182892,-0.01182192699002,0.003170316526023999,0.01054762936675
427,213.753227434,-0.043678873966,-0.00037196844763200067,0.016874264423248
428,214.24961234285715,-0.027585658976285714,0.0024146830057346926,0.01922499295344898
429,214.74599717,-0.00760395080646,-0.012617516359999999,0.0091888595020894
430,215.24739654,-0.023246803254888003,-0.0023882251035999996,0.001864213849082
431,215.7487951,-0.025149458628130002,0.006137411828814,-0.020312401599474002
432,216.25019292000002,0.0019326844345520006,-0.007072990017739998,-0.1376978422682
433,216.751591708,-0.05926807988446,0.014651200815354,-0.320018023254
434,217.252991,0.007993445452064,0.0243843401502,-0.518379420636
435,217.74937600816327,0.00903924022289796,0.05542419020061225,-0.6837030928959184
436,218.245761,-0.016226228493976,0.08342042033004,-0.69835182071
437,218.747160152,0.02697354058726,0.0752902968212,-0.49694794536000003
438,219.248560272,0.007675865618544,0.047852251511,-0.28524155288999997
439,219.749960256,0.01301749878524,0.016918901931924003,-0.0787774440822
440,220.25135999999998,0.007139701666108,0.020842294126163997,-0.020029947254840003
441,220.75275997600002,-0.020501326918239998,0.012347408076110001,0.0039882679492296
442,221.25416052,-0.0038964116296399997,-0.00081588683706,0.01342040930894
443,221.75054714693874,0.0036152278132306126,0.007236963223204081,0.02632346365387755
444,222.24693436,0.006227528369369,-0.013367139901900001,0.0257220638168
445,222.748335348,-0.017957144957088,-0.006826027184712,0.01809752384204
446,223.24973666000002,0.003934192843756,-0.00027602789012440006,0.011073147039378
447,223.75113784799998,-0.0063014888949854,0.009477173378825999,0.0020798811781256
448,224.2525387,0.011446614936082001,-0.0012930029258899998,-0.000689838782436
449,224.753939652,-0.007649274012192,0.011370908301539999,0.003602325778932
450,225.25032639387754,-0.007769236902014286,-0.01562969099575102,-0.0007454337556520408
451,225.74671342000002,0.005817586910570001,-0.003621365251002,-0.0015664643350003999
452,226.24811462000002,0.0008286731041823999,0.00182232769242,0.0002637987257546
453,226.74951598200002,-0.00011507937681800001,-0.0008108264029000001,0.00037882739448062
454,227.25091731,0.005209248066216,-0.00474405796992,-0.00434655623055
455,227.75231871600002,-0.003665695078826,0.003185591911768,-0.0072801103282900004
456,228.25372024,0.002323259338238,-0.0025373573293,-0.0028850310712052003
457,228.75010769183672,-0.003031315243803877,0.00792276427897551,0.008193202335832653
458,229.24649499999998,0.006093715503574,-0.0004570388512940002,0.00836051047818
459,229.74789660599998,0.00288289729604,-0.0036667239291139995,0.0065456043187239995
460,230.24929843,0.007444459712294,-0.0030967909762220002,0.0008744300947106001
461,230.75070022600002,-0.001608934700346,-0.007391523532968001,-0.0022807846627302
462,231.25210216,-0.0035342430606999996,0.0012413886755460008,-0.005607051325604
463,231.753503712,0.004876096845044,-0.0017788285566000006,-0.0036413489751878003
464,232.2498912877551,-0.0018855804129283124,0.002372790686367347,-0.0043264697083755105
465,232.74627884,0.0029128710739580004,-0.003245568368218,-0.00145620271707
466,233.24768048,0.00993215140912,-0.005054212500808,0.0121032900816382
467,233.749082338,-0.00685486392129,8.847424738279979e-05,0.0468880103156
468,234.25048403199997,0.001960018836214,-0.01914431045784,0.1164717841184
469,234.75188594600002,0.045931612252407994,-0.019044626522544003,0.189762619732
470,235.253288432,-0.0460825060619,-0.0158285391806282,0.285986293562
471,235.74967647755102,-0.021087897324430612,-0.03417525360642857,0.31231130932857143
472,236.24606366,-0.004147532712558,-0.023122942857100003,0.296675592654
473,236.74746586599997,-0.021967477221077,-0.02704343498854,0.321563980574
474,237.24886847999997,0.006097381589989999,-0.016831883974415998,0.346699343324
475,237.750270756,0.00811877578518,-0.02991707084792,0.31894227326
476,238.25167304,0.027303477156200004,0.035338753706526,0.224313641492
477,238.75307559,-0.029479360804499997,-0.014935937980360001,0.125799530896
478,239.24946461224488,-0.0037805433384040816,-0.00736855969344898,0.06766649890673469
479,239.74585284,-0.015382237359316,-0.01158052260986,0.02920042619042
480,240.24725542,0.00699880406268,0.0044063593164040005,0.0183711140031
481,240.74865766,-0.0017814754691240003,0.00014310642089999923,0.0126881409528
482,241.25005990000002,-0.0007780915961940002,0.00174516830564,0.0069246898869704
483,241.751462788,-0.004899362074203601,0.0006965435207119998,-0.007530973326540001
484,242.25286540000002,0.0009392010138065999,-0.0040524640122,-0.01076010229102
485,242.754268962,0.011773028335996001,0.015075506633232,0.027240500289886
486,243.25065986734694,0.001961979426081633,-0.0015351868481,0.09540517156469389
487,243.74704982,0.0068883870357202,-0.024412503057363998,0.0734890516844
488,244.2484534,0.014959990652168,-0.03131322626054,-0.017252336765392
489,244.74985768,0.015202212808960001,0.00408279070648,-0.0727152250712
490,245.25126196000002,-0.000920786745532,0.018227023221644,-0.0545397499942
491,245.7526666,0.008271407401536,0.01729681744268,-0.030014500413000002
492,246.2540717,-0.004240909041406,0.0008592629707389998,-0.00981080037534
493,246.7504627734694,0.004972814372914285,-0.0014530380767612244,-0.0013368917387210205
494,247.24685398000003,-0.0018476644813020002,0.003396211228586,0.006559316720740001
495,247.7482595,0.0011051651833800002,-0.0004603798781199997,0.0004957765155536
496,248.24966560000001,0.0019045801464418,0.00288731840494,0.0007772600116398
497,248.75107152,-0.0054817221315219995,0.0023584258746399992,-0.0008512445608938001
498,249.25247714,0.00025446795824399986,-0.0067205671872338,-0.00157093897227732
499,249.75388336,-0.00277023912435,0.0030102013986,6.180076620980002e-05
500,250.25027551224488,-0.006645495956081633,0.002606256797918367,0.00025556667366489794
501,250.74666788,0.004792077001200001,0.004081041887532,-0.0009455574769386
502,251.248073824,-0.0025928967913080004,-0.006019787713414801,-0.00732685123582
503,251.749480532,-0.0024458914711980003,0.0003734489532901999,-0.0043086555739556
504,252.250888302,0.001502191033536,-0.0032215067375400003,-0.0033469468634760003
505,252.75229532,-0.0002489119856425999,-0.0002071828022799996,-0.004891321649658
506,253.25370254,0.00264534267591,-0.006794898453416,-0.00966756818356
507,253.7500957489796,-0.0032813058293591837,0.005626781396326531,-0.010259511485926532
508,254.24648825399998,0.006272701481275999,-0.001864958656934,-0.00951195928676
509,254.7478954,-0.008020533686236,0.0034983303112499997,-0.0045627924574386
510,255.24930243999998,-0.0016007902565440002,0.00874788554194,0.028245289232799998
511,255.75070952000002,-0.004088168656540001,-0.04568949316626,0.0127485832852254
512,256.252116976,0.004780181124792,-0.0130619071126156,0.024226369486
513,256.75352456,-0.002194459754936,-0.008263123445166,0.016943480228224
514,257.249918522449,0.007689471033273878,-0.008014124447744898,0.005041542684059184
515,257.7463123,0.0014599176218268001,-0.01025343022297,0.00515059097666
516,258.247719434,-0.0020441861450982003,-0.01468081311242,-0.015940674025256
517,258.74912732,0.0037975803486180004,-0.00250182174042,-0.043966954424400004
518,259.250535378,0.001052846117364,0.014714336824419997,-0.0700342036786
519,259.75194344,0.000916475653822,0.040481468503286,-0.0466972892166
520,260.25335158,0.007624401543076201,0.034717579586573996,0.021591604000219998
521,260.74974574489795,-8.632800514693877e-05,0.018713052194938774,0.08232003823
522,261.246140232,0.0031744830315119997,-0.0105488112763,0.08503135278820001
523,261.7475487,-0.0034057173314436,-0.0162740173843,0.069220780805
524,262.248957124,-0.0079429260649,-0.0135509443192936,-0.005374781801267999
525,262.75036558,0.011203143112189999,0.006429679749280001,-0.0388453315194
526,263.251774826,-0.00285609132636,0.00010080786438000006,-0.0443988241996
527,263.75318358,-0.004884426659054,0.003917019172084,-0.036440246962199996
528,264.249577777551,-0.0017890590816244897,-0.0025290919808510204,-0.021005895673489795
529,264.74597278,-0.0019535608309999997,0.00454815922358,0.006667998854018
530,265.247382004,0.0052616711986179995,0.0007732451053721998,0.00999870241208
531,265.74879153999996,-0.0030608823712859994,0.0028782844726240008,0.01246011532812
532,266.25020218000003,0.0002508120988899999,-0.004576890396139999,0.010515099044302001
533,266.7516122,-0.0003087639069479998,0.00332808415434,-0.006285028336
534,267.253021972,0.0014288555453560003,-0.0029621266224999993,-0.01292756723688
535,267.7494181387755,0.009521586393269388,-1.2671394140816453e-05,-0.013915269625795918
536,268.245814324,0.004932093974406,-0.0009772921665839995,-0.009606215083222
537,268.74722488,0.003657579552456,0.0009420254178599998,-0.00012425178196948
538,269.248635364,-0.0058970241620039995,0.0009468622225800004,-0.002264684340894
539,269.75004586,-0.005902420489256,-0.00617883080617,0.012023558255512
540,270.25145642,0.005927412100197999,-0.02607915716201,0.0412291218338
541,270.7528671,-0.0022574028091040003,-0.022234361405379998,0.0447853471348
542,271.25427794399997,-0.010927168577941999,-0.02413690939576,0.0339049971106
543,271.7506749,-0.0023368609100342854,-0.001498154354367347,0.02261485319
544,272.247072322,0.007445298424369,-0.02195011778498,-0.008451644184766
545,272.74848368,-0.0026362554078740003,-0.0087900175995,-0.0760346446946
546,273.249894696,-0.0008597708117380001,-0.00223395012336,-0.12044917091400001
547,273.75130637999996,-0.001986875850266,0.01870526399442,-0.1106724584142
548,274.252717968,0.0094279370831042,0.018912457488224,-0.0493902279056
549,274.75412991400003,-0.000686152754172,0.0063043928331704005,0.0282705426702912
550,275.250528122449,0.0028765205463367346,-0.005952197610869388,0.05972042778673469
551,275.7469262,0.000988449035134,-0.00676039582106,0.0668246936798
552,276.24833895,-0.000801449594902,-0.006673904843868,0.0738919595632
553,276.74975126000004,-0.0005403629314355998,-0.004140101596166,0.034860106706799995
554,277.251163734,-0.0022198981796940002,-0.00668610082058,-0.00221130397171
555,277.7525761,-0.0036561956072799994,0.0007283508129420002,0.0015629724809840002
556,278.253987916,-0.0033215517546399996,0.00675549118733,0.0376609014716
557,278.7503861326531,0.002603409915938776,0.0034984094946693876,0.04070598985653061
558,279.246784688,0.004111534887922,-0.0027420207763736004,0.02324906154516
559,279.7481972,-0.003878057879024,-0.0038831885538359993,-0.0005907060072399998
560,280.249609766,0.0019174987539560002,0.0061990192535,-0.050263598114
561,280.751022356,-0.0102005930146324,0.001021432206278,-0.0716939627382
562,281.252435508,0.005042146974834,-0.04987321118778001,-0.078502495289
563,281.75384818,-0.008444051258360001,0.02645664183423,-0.06947632052000001
564,282.25024658163267,0.0022015250476897963,0.07334011211571428,-0.050432425790612245
565,282.7466453,-0.04588360356166,0.0626622432096,-0.0022480338254739995
566,283.248057932,-0.009440568806822001,-0.0030480263751379998,0.051117507890200004
567,283.74947104,0.01693592606136,0.006670769891304,0.10527832776400001
568,284.25088396399997,-0.05390470464034,-0.00965915406226,0.1034778891512
569,284.7522971,0.027164640651056,-0.024052134314379997,0.03847351657111
570,285.253710568,0.007235225813030001,-0.011200436519380002,-0.0454229033926
571,285.75010966938777,0.018150875477448977,0.008586036507038776,-0.02356405179840816
572,286.246508462,0.028159742811926,0.023877198916499996,-0.01212177922017
573,286.7479215,0.0024405325489400003,-0.00429729901196,-0.01972381032954
574,287.2493351,-0.0047445173467406,0.010252969693178,-0.0186643712594
575,287.75074844,0.010498451767532,-0.014151710560396,-0.009135490367330001
576,288.25216192,0.0077360287772712,0.001454485859512,0.00695266391617
577,288.7535755,0.023549567889460003,-0.0049729751229680005,0.009338944917494
578,289.2499751020408,0.002060116373265306,-0.009314243340536734,0.0006540012333734694
579,289.74637481999997,-0.00216798512278,-0.009932408452588,0.0036300818493536003
580,290.247788564,-3.972503130999977e-05,0.023219512551519998,0.003352569602648
581,290.7492027,0.002420521033256,-0.019420279470166,0.0014716172079579997
582,291.25061762400003,-0.02150686020978,0.007237801980040001,0.00023610528074239994
583,291.75203216,-0.03453290051156,0.01101738123447,0.001950068611004
584,292.25344582,0.041767439365812,-0.0009714972481200011,0.00092298053190596
585,292.7498463795919,-0.027778642317232653,0.006521905353489795,-0.0038202177968163263
586,293.24624805999997,-0.0012135155218639996,-0.021643129864919997,-5.8642221822e-05
587,293.74766324,-0.010861949066279998,-0.01244359350764,0.004413186857668
588,294.24907852,0.0142707683797,0.011008393057112001,0.0056920515235780005
589,294.75049396,0.0045795856612,-0.0182750875219506,0.0035413154633102003
590,295.25190903,-0.023295361845971998,-0.006871399433366,-0.0036803839564168
591,295.7533247,0.0139466989424,0.014847162086506,0.00120857606187336
592,296.2497267081633,0.01371604943577551,0.01837286403505306,-0.003385421297428571
593,296.74612857200003,-0.0024798457795500006,-0.015807704153675998,-0.007103366428005999
594,297.247544696,-0.012913418915180002,-0.0055315549778200005,-0.0035144336613040002
595,297.748961118,0.00805986736942,0.0156980352656,-0.0022650503449184
596,298.250377206,0.00284105584074,-0.000614199339658,-0.0027929542772819997
597,298.75179384,-0.0027953536342759998,-0.000800235792632,-0.003195039802252
598,299.25321049999997,-0.0047666895019946,0.012779161621999999,-0.000797066176344
599,299.7496129387755,-0.00021988899381020363,-0.0033539015682857143,0.0021434218113573467
600,300.246014632,0.0048926212456680005,-0.016599407959863997,0.006892094765703199
601,300.74743124,-0.010915328217346,-0.0094886551050238,0.006312486557154
602,301.24884833,0.03613387556726,-0.012546076262554,0.0012867542519174
603,301.75026536,-0.022085132905957996,0.022193364147524,0.00080788240535432
604,302.25168324,-0.014819293348144,-0.016536225890605202,-0.0022537845464524
605,302.75310066000003,0.016274737101224,0.002176615670402,-0.006768384887660001
606,303.2495030142857,-0.0020302143044489797,-0.013782052683502041,-0.006327779977836735
607,303.74590628000004,0.011127706124038,0.014796556513480002,-0.002805135664758
608,304.247324928,-0.0017082904280859995,0.0036738112010199996,-0.0029488190823774
609,304.74874286,-0.011403542999712,-0.0038943266418599996,0.0012881333335088
610,305.25016082,-0.0028059796524919998,0.0013333055307400007,0.00425898862553
611,305.75157882,0.0048423747621040006,0.0039001371161599997,0.00042904672326600003
612,306.25299667,-0.0100176743611272,0.009837698238440001,0.0013019910326846002
613,306.74940069183674,0.03970631504673469,-0.006929886080128571,-0.0007702079769612246
614,307.245804804,-0.07107359945526,0.00417978141574,0.000678394218115
615,307.74722335999996,0.0579656504829,0.005647885129154801,-0.00041504849222022487
616,308.248642014,0.003403157777674,-0.008993253335371999,-0.00227836981646662
617,308.750060872,-0.0018918869276060002,0.0021173175898979994,-0.001681295934791
618,309.25148006800003,-0.0013107406161631998,0.0008921651444959997,-0.0010443531791568
619,309.75289932,-0.0019342471937795998,0.0041735438719,0.002358500862022
620,310.24930404489794,0.01098911332147755,0.005790535389653062,0.0027976387764708163
621,310.745709394,-0.00622383371912,-0.00258332297224,0.001873236660598
622,311.247129734,0.00785303289037,-0.0008386180175689998,0.0010716738620969999
623,311.7485498,-0.0123939569390568,0.0005029783022399995,-0.0015361281065924
624,312.249969784,0.00945907126202,-0.03861028685282,-0.0018448729161682001
625,312.75139004,-0.04109598193366,0.01761247754332,0.00411963984868
626,313.25281093999996,0.00752152828502,0.0319932241576,0.0038638974772046
627,313.75423166,0.006051125955088999,-0.00799697520226,0.00015480566426200003
628,314.250638155102,0.008009503547489796,-0.008141087187595918,-0.004371984916522449
629,314.74704462,-0.00149507548662,0.008236511870986,-0.0017130180774280002
630,315.248465206,0.004122836310476,0.0008485343210520003,-0.0032403020909960003
631,315.74988611000003,-0.001173869343164,0.004194641457440001,-0.002916642038574
632,316.25130729,-0.002203363525316,-0.0017719923704314002,0.0039285887964414
633,316.75272875999997,-0.0008918657804539998,-0.00041572923717999975,0.004661676450728
634,317.254150616,0.009513568366197999,-0.000406860485422,0.0010277643788420001
635,317.75055836938776,-0.006486173129855102,-0.003651265890897959,-0.002359303601779592
636,318.246966562,-0.002049706577904,0.008634595350182,-0.0022787282684934
637,318.748388972,-0.00351531486014,-0.0016772453502399995,-0.0034742835699062002
638,319.249810816,0.005947622293984001,0.010075876181782,-0.000800070252676
639,319.75123332,-0.010037471707879999,0.0060993617216022,-0.0022025837539984
640,320.25265602,-0.008075124472846,0.005506074205239999,-0.0021952656411644
641,320.7540788,-0.0039917300925558005,-0.0039446922761316,0.0010134099538397002
642,321.2504873673469,0.003484200857144898,-0.004449431242830612,0.004887050418025306
643,321.74689616,0.00017876871862000044,0.00016392922854200045,0.0043782298429796
644,322.24831934,0.012290001122963998,-0.009698940682672,0.0018786965531419999
645,322.74974274,0.0076990931479,0.003631483464902,0.0018992563988824
646,323.251167068,-4.1999454528000235e-05,0.02075182260942,0.0012884510855678
647,323.75259114,0.0018078361918399998,-0.0017355071477800005,-0.0016247101593082
648,324.25401469,0.00973930126041,0.00532793845973,-0.0007903212390078001
649,324.7504243122449,-0.010022166289212245,0.006487567690481836,-0.000630714279655102
650,325.246834492,0.004665716961324,-0.00566355527356804,-0.0016566626541946001
651,325.74825852000004,0.0003557382711994002,-0.01381762221492,-0.001946380751858
652,326.249682308,-0.002020256817674,-0.008219433296482,-0.001076324166466
653,326.75110646,-0.0021193536088799994,0.008501513674582,0.001795260207778
654,327.252530126,-0.0021771657185859997,-7.325228940003453e-07,0.0056009621895016
655,327.75395474,0.0041708566157,0.0013759638089540006,0.004675769405472
656,328.2503663489796,0.01197602471544898,-0.010746045067112246,0.00364394737905
657,328.7467775,-0.013634934844154002,-0.005800554062972001,-0.0034782989778220003
658,329.248201156,-0.0104579911937146,0.003112757662179999,-0.004923476663168
659,329.74962553999995,-1.4163683876000054e-05,0.0023735274096559995,-0.0040062700769780005
660,330.251049928,-0.0012460845337840002,0.0021389841291300006,-0.004598905044784
661,330.75247444,-0.005180862518792,-0.0013373047673619998,-0.0028725354211532
662,331.253899436,0.00039196900080199995,-0.0008510853535780002,-0.000493605796906
663,331.7503104081633,0.004401619289159183,-0.0001292959120367349,0.0005284834829032653
664,332.24672176400003,-0.0033456663505088,-0.00011434316605999982,-0.00022890912602739996
665,332.74814762,0.004568817764632,-0.0017714103873447999,-0.0015584488504634
666,333.249573216,0.00481062910592,-0.0023827550200419996,0.0012528294068064
667,333.75099950000003,0.004037163333,0.006916973635812,0.0030035951527215997
668,334.252426856,-0.011024580411376,0.012642398541843401,0.0016968517832120001
669,334.75385378,0.006539839235961952,0.005679536201084,0.0008733659085819999
670,335.2502661448979,-0.007727880534545306,-0.00860952730367755,0.001503741879391837
671,335.74667906,-0.0009005470756622003,-0.0035170985571519996,0.0024266537069312
672,336.24810693,7.111820436200009e-05,-0.0059336229225,0.0027949960076134
673,336.7495347,-0.005993861928997,-0.005248115407324,0.0028634771483186
674,337.25096168000005,0.006758576752124001,0.01335936830394,0.0029525895230979996
675,337.75238942000004,0.01526171772686,-0.00203932311378,-0.00032871575562419997
676,338.25381832,-0.005483548743327999,-0.005920047182082,0.0012812926166300002
677,338.7502323795918,-0.0025315036219189795,-0.003625361942222449,0.0010480506378430612
678,339.24664580800004,-0.005131392068902001,0.0058047060572359995,-0.006028350153794801
679,339.74807401,0.0024574752806220002,0.00508604283668,-0.00357442822088942
680,340.24950268,-0.004489155887063999,-0.011339446603992,-0.005817117958598001
681,340.75093128000003,0.002519994964904,0.00499600593922,-0.00923668702574
682,341.252359978,0.005796836968252001,-0.0024458304783000007,-0.00836870606058
683,341.75378881999995,0.001018437500712,0.0010835992721199997,-0.005130923678992
684,342.2502032469388,-0.01608136361824694,0.011120956694391837,-0.0004635409091806939
685,342.74661804000004,0.0142682849614022,-0.00165431378396,-0.0014226934489168
686,343.248047632,-0.0020015072820264,-0.008245289501686001,-0.008970044993438
687,343.74947715,0.0065960817787119996,0.0016320051537659999,-0.01555746299228
688,344.250906894,0.00024739190963800003,-0.0009436301608279997,-0.0094490714839
689,344.75233646,-0.001712880386332,-0.00878838467434,-0.00830116814432
690,345.253765738,-0.019362348923856,0.005312915677388,-0.00424824819447376
691,345.7501808387755,0.0315557842677347,0.0044893201976938775,-0.004267193298557776
692,346.2465966,0.016171022318456,0.0063757285478000005,-0.03010489099664
693,346.74802645999995,-0.007684887778475999,-0.022422722299216,-0.1329060180426
694,347.249456,0.005843745936273999,-0.01980308057761,-0.273036171788
695,347.75088614,0.016714745024376,-0.0005514680221460001,-0.33486306846200004
696,348.25231668,-0.015164179727990602,0.016387344999182,-0.29189944148
697,348.75374736,-0.01780967648112,0.04708055291318,-0.05961350434384
698,349.25016363673467,-0.010075202686240816,0.012578840034957142,0.2489517528734694
699,349.746580218,-0.007955339262064001,-0.016278091668860004,0.422163507936
700,350.24801125600004,-0.042016823673315995,-0.029472674998166,0.5106917351460001
701,350.7494425,0.003856385210058,-0.019990348312974,0.51754038096
702,351.25087404,-0.035312378173379996,-0.007468901584586001,0.508836879136
703,351.75230574,-0.036209306176942,-0.05294114379282,0.565806971794
704,352.25373787999996,-0.018710703877616,-0.045825586152964004,0.6426777708500001
705,352.75015565510205,-0.025066319092718368,-0.03985335068800613,0.6394139443040816
706,353.24657304,-0.032059160666932,-0.016103012924819998,0.6051468050559999
707,353.74800518000006,-0.016554807964736,-0.050863495524161605,0.48693042456999996
708,354.24943808000006,-0.02176690203142,-0.06524808047359999,0.1996518658415
709,354.75087076000005,0.012128046480723999,-0.0028267174680600003,-0.16713230475886
710,355.25230336,0.013498402582652001,-0.001653864346376001,-0.34817107498600003
711,355.7537361,0.014104520827481998,0.019814611738962,-0.31765332759
712,356.2501543938775,-0.009600773035622857,0.03963882845857143,-0.17031484257142857
713,356.74657288000003,-0.0028628638854540003,-0.021397908532964,-0.025585665565292
714,357.24800609199997,-0.011497907778364,0.01786630570834,-0.040663868188399996
715,357.74943924,-0.0037429312797200003,0.01499798647158,-0.02407277816934
716,358.250871794,0.007797948177593999,0.012077069210575999,-0.01188933947092
717,358.752304936,0.011291025840106,0.00411887200286,0.001659689242882
718,359.253738674,0.00915032999512,-0.014498784111572,0.01859707369257
719,359.7501577734694,-0.010540300685675307,0.0021076173796673475,0.048217730406938775
720,360.24657658999996,-0.012696802010288,-0.009688426069934,0.0502577396476
721,360.7480096,0.004917853819441,-0.008633017455532,0.0412180384622
722,361.249442366,0.05597214436016,-0.0111633391235,0.00264226726498
723,361.75087549999995,-0.06023476523908,0.013272569850474002,-0.0345603038376
724,362.25230971800005,-0.044868068349592,-0.00183087931056,-0.046299441904399996
725,362.75374367999996,0.06225660281212,-0.0015810886420920003,-0.038457819261
726,363.25016232244894,-0.009256648042632654,0.004243348984081633,-0.032597510999183676
727,363.74658194000006,0.00552123446024,-0.002155217594282,-0.0243659410812
728,364.24801688599996,0.00037025429289999976,0.0019523606812600009,-0.030276370514400002
729,364.74945166,-0.011711873095198,-0.02811007549054,-0.0411444253092
730,365.25088599199995,0.0024493088200920003,0.04898857738806,-0.0465058244766
731,365.75232084000004,0.00436261191971,0.047421356590594,-0.023133733875338
732,366.25375620799997,0.0025221665556400003,-0.0008722457479314004,0.04640926256716
733,366.7501772020408,0.012013937993244898,-0.05107423437638775,0.07985480950816327
734,367.24659865,-0.00711096292369,-0.019797714129354,0.0733885025976
735,367.74803435,-0.014843593919499999,0.031951025230988,0.0808653831482
736,368.249469848,-0.0378709109871,-0.02505329875584,0.0674271246042
737,368.75090566,0.0383305564894,-0.016873829020132,0.015584982242780002
738,369.252341808,0.0033114488425180005,-0.010569383015059998,-0.0507613999028
739,369.75377789,-0.0032571914793000003,0.026522064638984003,-0.0619107367096
740,370.2501994102041,0.0034016857058367356,-0.016467056235959183,-0.03659441198585714
741,370.74662116,0.0038117601075400003,-0.00966005502016,-0.025174779536304
742,371.24805713200004,-0.006623936705025599,0.009841356380731999,-0.02479926853432
743,371.74949328,-0.0005016460264,-0.00688755933104,-0.030920463801
744,372.25092946800004,-0.00995834314284,0.015423235436959998,-0.045742302499600006
745,372.75236590000003,0.01300254398004,0.0009939816866200001,-0.0694341987374
746,373.253802472,-0.001421685321696,0.02593313233844,-0.032313822834099996
747,373.75022445510206,0.07835167926114082,0.027774847529797957,0.04029376300662041
748,374.246645908,-0.062009903760159996,-0.009067761358916002,0.0684074775134
749,374.74808147999994,-0.0016092978042600002,-0.05629370900024,0.0588372611254
750,375.249517316,-0.02119583968018,0.03958418261084,0.09288252458020001
751,375.75095302,0.00012116241257800017,0.02214038817198,0.0896514192218
752,376.25238876000003,0.0439449415728,-0.030057307567599997,0.023813433226636
753,376.75382473999997,-0.027195210634046,-0.029526580552559998,-0.030226282992056
754,377.2502466918367,-0.0036903559418014283,0.013164655297734694,-0.08176467962918367
755,377.74666899999994,-0.008790751788926,-0.00030789942493999914,-0.07873052045659999
756,378.248105906,9.6805477036e-05,0.020389936288256,-0.029061041698120002
757,378.74954304,-0.00800647576361,0.004342459112236002,0.012469359799472
758,379.250980426,-0.008165243955539999,0.00702654521628,0.011328288994390001
759,379.75241796,0.009770440952899999,-0.03734420062796,-0.011907981121853999
760,380.253855568,-0.009437457406348,-0.006215150700876,-0.0018823210081800002
761,380.7502790265306,0.0001490341163877546,0.04197283220320408,0.01613688424265306
762,381.24670280799995,0.009056526608780001,-0.01564206657857,0.002657520087222
763,381.74814100000003,0.008763218131283999,0.003284143321516,0.0247834645392
764,382.24957936799996,0.003364273682256,-0.014606245141686,-0.004382981293028
765,382.75101774,0.030016644393079998,0.003079793974478,-0.011351804302962001
766,383.25245581,-0.0008683518361999975,0.01956936272754,-0.01052357401234
767,383.7538942,-0.019530886451026,-0.01908475675072,0.00016745700702800026
768,384.2503186571429,0.02190573033567347,0.01072869115193878,-6.575768411224437e-05
769,384.74674302,-0.01824366152384,-0.014920443081679599,-0.00464774593924
770,385.24818191400004,-0.003985339952834,0.007456679688918,-0.006317842086202
771,385.74962084,-0.002471863571364,0.0024926967358200004,-0.0030998174520999997
772,386.25105984000004,-0.008853936120432,-0.0014123432054919999,-0.0044224795279824
773,386.75249904,0.0023879151235359996,-0.00250600848496,-0.0046070561766814
774,387.253938188,-0.0075947468176419996,0.00516642840912,-0.004725169742996
775,387.7503631020408,0.0077821235653734696,-0.01198310614269388,0.01227640385567347
776,388.24678816,0.07593206854184001,0.0028162720721,0.010139903120086
777,388.7482277,-0.06463709836578001,0.00728510048152,-0.006221184720974399
778,389.249667596,0.030029324104552,-0.01793674619588,0.0119740848936936
779,389.7511073,-0.015651659038120002,0.008226264846226,-0.008115304907395999
780,390.25254703400003,-0.009604520062516,-0.004233939797954,-0.011647862565684
781,390.75398681999997,-0.0028845700247284002,-0.0025173190418200002,-0.01063132761594
782,391.25041252448983,0.00032312490453387775,-0.0003933498199183675,-0.0007737558989265306
783,391.74683830000004,-0.012889617793164,0.02396028710674,0.011546141738494
784,392.248277872,0.0026703118348520003,-0.01338880902302,-0.0021811414078760005
785,392.74971791999997,-0.001254414599404,-0.009402861837366,-0.034283775392
786,393.251158968,-0.0005645054485608,-0.018759585125300002,-0.0848099778592
787,393.75259972,0.004078016718946,0.028919566180891997,-0.0591947014632
788,394.25403976399997,0.05086515350358,0.026358387815380004,0.027539195804932
789,394.7504658040816,-0.05612367614783673,-0.007934716281426531,0.06085390673612245
790,395.24689231800005,0.00772347492148,-0.0005814258739979995,0.0601657509062
791,395.74833337,-0.01686525260124,-0.026869138098402,0.054741594642000006
792,396.24977497599997,-0.003687860695616,0.029741917895164,0.0738519711792
793,396.75121644,-0.041097471544456,-0.006732108286007399,0.0559808856622
794,397.252657132,0.041407009388926,-0.02892638856497,0.0337453102977
795,397.75409834,0.0021475579411632,-0.022133978522901998,-0.050006723404
796,398.25052566122446,-0.0039368388903653065,0.0012677458625979592,-0.06898455473816327
797,398.74695298,0.0014447173569800001,0.00898207671068,-0.06435659892880001
798,399.24839518,-0.0062847800558646005,0.003657002420634,-0.024912369756496
799,399.74983732,0.003571693729496,0.0005863758538000005,0.012136328799688002
800,400.25127931000003,-0.012871064227652001,0.0011502267417,0.00724052396578
801,400.75272146000003,-0.0014341731462100002,-0.005116078757696,-0.014332736919739998
802,401.254163072,0.0025918904876699998,-0.0053194145301060005,-0.010975422161018
803,401.7505907265306,0.0036665657535306126,0.006145522587451021,-0.005127154504676123
804,402.24701873,0.0001770592200400002,0.00358420717589948,-0.000828506548422
805,402.74846125999994,0.009315819982012,0.0045354306887079995,0.001913585374184
806,403.24990392,0.0438285522528,0.00692707155086,0.007498319505358
807,403.75134663999995,-0.10431730325038,0.0035454186992599996,0.002079791419808
808,404.25278975000003,0.07529936889180601,-0.002731649344746,0.00676741660572
809,404.75423258,-0.0024659372774399994,0.01149119972272,0.0003773263260219999
810,405.25066036734694,0.014698762113985716,-0.0007613733298775503,-0.0023323158183104083
811,405.7470885,-0.018058626176992002,-0.026480096839598,0.010311448371734
812,406.24853164,0.0100123511166,-0.00215207245294,0.011552421018226
813,406.74997484,-0.006171569628636,-0.0006306753686659999,-0.00697758556814
814,407.25141800999995,-0.0074535556416754,0.005274830404198,-0.0071308373391762
815,407.75286134000004,-0.016824205713122,-0.004752481738622,-0.00280781135314116
816,408.2492903632653,0.0068801155369183666,0.006555843578618367,0.00023433213989591844
817,408.74571944,0.0066521527247399995,-0.005178749933008,-0.008897978061785999
818,409.2471626,-0.007485642144588,0.010185339385448,-0.0061965627244828
819,409.74860602,0.0015811916162439999,0.01366819918204,-0.005436257571128001
820,410.250049784,-0.0076159652416,0.007426299825206,-0.01041643594401
821,410.75149356000003,0.008355302344464,0.031625582518658,-0.03662800795404
822,411.252937532,-0.00725800650266,-0.0384889840134,-0.0737596110996
823,411.74936697142857,0.010248362144333265,-0.002436321845612245,-0.032713417634040814
824,412.245796032,0.0343351194045,0.057529506045609996,0.037392622007366
825,412.74723983999996,-0.03286511687552,-0.0064273080785400005,0.21408752113799998
826,413.24868375600005,-0.0480306980557,-0.05659450430296,0.17096191018780002
827,413.75012798000006,0.04518586077674,-0.034995670411906,-0.047536613914299995
828,414.25157267199995,-0.00954162536186,0.0009590141652800011,-0.1261251200726
829,414.75301726,-0.0006149851531399999,0.041560721704660006,-0.0777269185322
830,415.24944726938776,-0.010118684731285715,0.009695272654938775,-0.020578370139859182
831,415.74587752,0.0020961133110640002,0.011374390488940001,-0.0005537721699342001
832,416.24732261800006,-0.004760872319814,0.0015665076341800001,-0.007388327705794
833,416.74876778,-0.016222727606106,-0.0111519246263,0.0013224397203320001
834,417.25021330000004,0.0025666010282399997,0.01282878411846,-0.021618754785305998
835,417.75165874,-0.003008846855162,0.010388637275105401,-0.01293391079217
836,418.25310398,0.01216680811641,-0.004429428449720001,-0.0063111835652019995
837,418.74953488979594,0.00606570390022449,-0.022202372302,-0.006294286229922449
838,419.245965424,-0.015159857310408,0.0059435001759399995,0.0113073246181
839,419.74741058,0.0077369701117180004,-0.0180205686207452,-0.02217587603275
840,420.248855992,0.003497994886772,0.009033746747201999,-0.1239484956782
841,420.75030138,0.00832398379228,0.023058644737765997,-0.275864639286
842,421.25174657,0.027604160216056002,-0.017022183565042,-0.41472702741600004
843,421.75319209,-0.015005670506326,0.000992089333721,-0.413596205112
844,422.2496231469388,-0.04302645643905714,0.001132447519265306,-0.48637700567551023
845,422.74605434,-0.017726141606374,0.02306066432872,-0.457449633484
846,423.247499968,-0.0152791367751,0.04347822364515799,-0.35328391551599997
847,423.74894573999995,7.714094643599998e-05,0.06553749093784,-0.174334402224
848,424.250392102,0.0181122646216,0.00030018350124999955,-0.11062233939760001
849,424.75183824,0.004580961019214,0.01246357400002,-0.0737796504794
850,425.253284028,0.00016769848793199996,0.00966623161888,-0.023177208006579998
851,425.7497155734694,0.00515307597277551,0.0053515782555244905,-0.014182410773408163
852,426.24614686,-0.00686396962012,0.0005939771978,-0.01247004467512
853,426.74759281999997,-0.012713562612839999,-0.007192606190532,-0.025839347577399998
854,427.24903906,0.01585826699594,0.01326819297946,-0.030859507768799997
855,427.75048524,-0.005309276813336,-0.0018923015331796004,-0.0264313766544
856,428.251931666,0.0038769754393886,0.02555579230234,0.004717977668104
857,428.75337804000003,0.0086883658453424,0.0095430436920562,0.0562947219614
858,429.2498100571429,-0.006055230341014286,-0.00442704459533,0.06660803399836734
859,429.7462421,-0.002367027709682,-0.025409799637212,0.0441523774716
860,430.24768871599997,-0.00930854888609,-0.030380856525354,0.001494378143856
861,430.74913546999994,0.014156532427303602,-0.010325857186858,-0.014949162024904
862,431.25058250200004,-0.004916693280220001,0.009352857237752001,-0.044026419660120004
863,431.75202958,-0.0005985906624399999,0.01500922265512,-0.02437772803906
864,432.25347668,0.006034996685775999,0.006007439484896,-0.0011796502114566
865,432.7499094693878,-0.010221716112061225,-0.000895292118506122,-0.0024401652507530613
866,433.24634227399997,-0.00010909863764399996,-0.0013706559778800004,-0.001912183226028
867,433.747789776,0.0014968698004300001,0.004598828870440001,-0.0013425812731506
868,434.249237794,0.0031495402381029997,-0.007790844403662,-0.0027245614469379995
869,434.750685728,-0.0025954746174340006,0.0004736642075199998,-0.002896298090884
870,435.252133278,0.0031292603068051998,0.0015802272503399994,0.003383085429579
871,435.75358098,-0.0051089525876564,-0.0073277908659948,0.0019309529615866
872,436.25001448979594,-0.011660048358379593,0.00030673705663265263,0.0005268498360193876
873,436.74644809999995,0.008739244556418,0.001059591528168,0.001868287909286
874,437.24789637599997,0.0017536959607080001,-0.005854486431723999,-0.004335591962874
875,437.7493448,0.0006100049241742002,0.0037027707981720005,-0.00335169984401816
876,438.250793452,0.00038604603144980014,0.0006648770898879996,-0.004423268705026
877,438.75224226,0.004852025490162,0.002018884746974,-0.0017664076515836
878,439.253691146,0.00184722051019,-0.0024586326532581994,0.0029609187319460002
879,439.7501255979592,-0.008786478526799387,0.0025005494724693873,0.0016663622001483673
880,440.246559884,0.007719067418848,-0.0011459815971380002,-0.00041616497576800005
881,440.74800894,-0.0013312469982580003,0.002490423610306,0.0011277480049
882,441.249458504,-0.00552862338642,0.008861173782532,-1.34230053452001e-05
883,441.7509076,0.00567770167242,-0.005471038576402599,-0.0006761880986799999
884,442.252357536,-0.005348480334491999,0.0028170489334599998,3.15303922790805e-06
885,442.75380652,-0.00339258909238,0.0027060614801280003,-0.002562380344622
886,443.2502415408164,0.004234654382381429,-0.0022618438356938777,-0.005601970048938775
887,443.746676776,0.0040840839320040005,0.0063617119752859995,0.0015305152138392001
888,444.24812709799994,0.0019050375001780002,0.00453582845606606,0.00902101020588
889,444.7495773,-0.012686297670828,-0.0014897972441,-0.002464174265076
890,445.251027052,0.006165490532452,-0.004355222676166,-0.0020644019008106
891,445.7524769,0.006352178575013999,0.0014575760897335998,-0.0012223567580692
892,446.25392777,-0.0059995158667654,0.0033607482453499996,0.0033761404349498003
893,446.7503637755102,-0.008174941950734694,-0.013814274297775509,0.0012815109200959183
894,447.246799814,-0.000990849994176,0.0029287740972080006,-0.00185056380922
895,447.748250296,0.00376612612044,0.00039572510699999977,0.00015855707346200005
896,448.24970150200005,-0.004238256775054,-0.002547404066920001,-0.001062076173436
897,448.751152774,-0.00501427448376,-0.0021564105431539993,-0.0027565658560096003
898,449.252603846,-0.0013005650696388004,-0.0014608462524400001,0.005683063147548
899,449.75405498,0.0077403442005,0.0036232844258255992,-0.0043858244086399404
900,450.25049192653063,-0.00880617287232245,-0.0030760442150816326,-0.010123187441118366
901,450.74692877399997,-0.0035020270763220004,-0.0006600219676999999,-0.015356158243748
902,451.248379614,0.0018919969256999997,0.006854355354054,-0.015433109649584
903,451.74983056800005,-0.0026833332049024,0.016664249971948,-0.025079634264
904,452.25128199600005,0.0076725930071308,0.003004199452612,-0.0337560821704
905,452.75273344,0.0023767123748439996,-0.01266752038207,-0.0581019869452
906,453.25418498,-0.00813271097847,-0.013122615013871998,-0.0713121002172
907,453.7506219571428,0.011473584967575511,-0.008769491421581633,-0.10363547092918368
908,454.24705928000003,0.002731677917721,0.008811397356383999,-0.126709765642
909,454.74851110000003,0.0009957306183379997,-0.0019926968590120004,-0.11407341882800001
910,455.24996231999995,-0.022977702729876,0.023148183245106,-0.0966244651398
911,455.75141378,0.018658931795722,-0.00703514649598,-0.1711846312926
912,456.25286584,0.03902238169848,-0.00630742209932,-0.360606507066
913,456.74930346938777,-0.03175068920377755,0.03937542989737673,-0.3349038289591837
914,457.245740956,-0.0016435541948059999,0.050339092722999995,-0.1049386926048
915,457.74719303999996,-0.018035122464196002,0.0228502595982936,0.2261874001488
916,458.2486446,-0.022156326110100003,-0.02498858228358,0.41287689746
917,458.7500965,-0.0081507336161482,-0.051842153594790004,0.6069693386539999
918,459.25154912,-0.023533238787177998,-0.017603184273399998,0.6542895591260001
919,459.75300166,-0.024938840568702002,-0.024081133148079997,0.661088308098
920,460.2494396122449,-0.014876469161942844,-0.06661855183006939,0.5033916624183673
921,460.74587758,-0.0075395302198252,-0.055536314936932,0.11428451684776
922,461.2473302,-0.0030319589942339998,-0.02386932359002,-0.2465917673728
923,461.74878277999994,-0.00115288356286,0.01410926304554,-0.411614029406
924,462.25023552,0.0080974874181478,0.03375306688412,-0.301241437492
925,462.75168828,-0.006973769068620001,0.0152671157377448,-0.14851445868660001
926,463.25314068,0.007513376958824,0.007031494052746,-0.0885740096848
927,463.7495787428571,0.018584375992510203,-0.004366406353612244,-0.09656535195387755
928,464.246017506,-0.01932499486786,0.010545322616146,-0.11095209493380001
929,464.74747060000004,-0.0068174163251599985,0.007458932231760001,-0.0701683580882
930,465.248922896,0.02483903267452,-0.002557357903858,-0.06529161945
931,465.75037534,-0.048240870917820006,0.005010236147262001,-0.07111028701040001
932,466.251828608,0.022324616072440004,0.01563358271394,-0.06184249237119999
933,466.75328182,-0.0013074325310180003,0.007015600017575361,-0.03074010431836
934,467.2497200265306,0.009057675897061225,-0.0016212848075163263,0.012545724307057143
935,467.7461584,-0.0076075116638874,0.024788314838446,0.00391657649971
936,468.24761211,0.000395342428234,0.0082761006243,0.001110379482906
937,468.74906578,0.00044797441905531976,-0.00478704751466,0.002378857391832
938,469.25051911,-0.0014180414280100001,0.0030656686237999996,0.002952040243228
939,469.75197256,-0.0003427883794180002,-0.0078273695425,-0.0023128390812494
940,470.25342647799994,-0.001088856905526,-0.0017927721394999996,-0.008006365236262
941,470.74986594897956,-0.00627947208077551,-0.008520196875530612,-0.0031113892538979595
942,471.24630555199997,0.005461426619858,-0.0069189901005999995,-0.0032566706788060003
943,471.74775986000003,-0.002332695536432,0.004547681176398,0.0007792901617918
944,472.249213966,0.00017622057332479982,0.0029794502255199996,0.003176328221022
945,472.75066830000003,0.0053981801771280005,0.002952606612520001,0.004346010327344
946,473.252123092,0.003146130116476,-0.0076652524722999995,-0.0031263300220899996
947,473.75357786,-0.012257803287406,-0.0016464071748999998,0.001797964160726
948,474.2500181591837,0.0012920475186693878,0.0024865189357346934,0.0006624337578816326
949,474.74645854000005,0.01036952556958,-0.002342240764584,0.001775277592612
950,475.24791333200005,-0.0080671952017,0.0065695475414000015,-0.0038912620104194
951,475.749368198,0.00451904651716,-0.0040966915966979996,-0.0071164130630900005
952,476.25082329800006,-0.011605839887772,0.005565100245860001,-0.000446984218804
953,476.7522784,0.0053104772698799995,-0.00717083301459886,0.001540509767296
954,477.25373369,-0.0017255160776739997,0.0016595382449319995,-0.007035474633762
955,477.75017441836735,0.0023096101642416326,0.020393664647122448,-0.00415145373455102
956,478.246614732,-0.0016322334393699994,-0.0019524434582399997,-0.00034804430671251996
957,478.7480698,0.0036496411079531997,0.0020296642277539997,0.00032321832020540007
958,479.249525042,0.00028787462029599987,-0.00557120192816,0.0018528159391986002
959,479.75098025200003,-7.97249649800002e-05,-0.0119692881228201,0.000372440031451
960,480.252434704,-0.00434510378158,0.007378362929694,-0.0026726779714302
961,480.75388921999996,0.0026582892237080004,0.005849087405460001,-0.0040008280867168
962,481.2503295428571,0.008851800703333674,-0.006102200027663265,0.0047509259549922455
963,481.74676996,-0.009793504122239999,0.007224612580775999,0.0008082086208818
964,482.24822534,0.0015272834431279997,-0.017561450208276,-0.00500956679741724
965,482.74968082,0.004482881966980001,-0.0034275493973439995,0.0012260766208036
966,483.251136144,-0.010738899773094,0.008064623679316,-0.0019098966776218
967,483.75259171600004,0.002060789922468,-0.0009417331114999999,-0.001595348564436
968,484.254047318,0.0056270684212954,-0.0010283194573780005,0.001412091441352
969,484.750488477551,0.006576834940214286,-0.007141939050693877,-0.0015710848991634693
970,485.24692976600005,-0.0042377717886330005,0.0004028406271399996,-0.0018896368053848
971,485.74838572,-0.002556714359782,-0.00617702268094,0.0031172341306734005
972,486.24984215800004,-0.0015228502741659999,-0.0021164125113139996,0.0008382914938262001
973,486.75129869999995,0.0017941969914430202,-0.0067087899891584,-0.0008215289282159999
974,487.252754508,-0.0022796346145779996,0.0019695840870994005,0.0007446161695559999
975,487.75421044,0.011639748159807999,0.0013731880856099998,-0.00293670203631
976,488.2506524918368,-0.007737508110912245,0.002870831144074693,-0.004966677678826531
977,488.74709442,0.004823614051988,0.0018834346253399992,0.0008398376742439999
978,489.248550618,0.008214725908126,5.5220388700000094e-05,-4.997307293619999e-05
979,489.7500069,0.0076429684925248,-0.00330799313336,-0.005210268368298399
980,490.251463536,0.010682949088538,-0.0029419799435599996,0.00011041587316400005
981,490.75292024000004,0.0040843828488439995,0.00038644810258600004,0.001888774987282
982,491.2493620653061,0.0032383225743102036,0.0012859024991510202,-0.0015382076523387754
983,491.74580399999996,0.016329889949058,0.010993789415764399,-0.0021933408522199997
984,492.247260608,0.013805981697712,-0.0078541187474,-0.0076128151825732805
985,492.74871728,0.0010170485729720001,0.000824166331372,-0.011350761183905999
986,493.25017433,0.00386797176626,0.010200998141308,-0.01568172165728
987,493.75163138000005,0.002358565031972,0.022076146493279998,0.006161881588126
988,494.253088186,-0.004264073986696,0.0207122832717436,0.005154210212682
989,494.74953032653065,-0.005305319055136734,-0.01975109927965306,0.012046794165034694
990,495.245972572,-0.01671865088026,-0.011024312215840002,0.01308630137758
991,495.74742932000004,-0.01961797905174,-0.00970499782828,-0.00239642768186
992,496.24888605599995,-0.0005310574450080001,-0.005822744797148001,0.0039019077015769997
993,496.7503429,-0.015273679308682,-0.004051294345564001,0.000195942106424
994,497.251800352,-0.016745244058834,0.0014203044972999996,0.0021392720286002
995,497.75325784,-0.01659492879182,-0.00175639391828,0.0072797993869498
996,498.24970036938777,-0.021055071823857144,-0.006904801742959184,-0.0004435774811877552
997,498.74614302000003,-0.025055197896366,0.011854701124739998,0.010276749103383
998,499.247600636,0.0063032807769880005,0.015945018528192,0.015405667875354
999,499.74905826,-0.00632514146138,0.00736445210064,0.005340152904972
1000,500.25051577,-0.00847679879511,0.00403942582938,0.0016466402040052003
1001,500.751973376,-0.00804238650917,-0.01676442992038,-0.0208979179547
1002,501.253430958,0.024968093354972,-0.0169648482658948,-0.008104410464964
1003,501.74987400204077,0.000610274347897959,0.0044265661805144895,-0.0015075377492857144
1004,502.246317536,0.006257460964956,0.0011485156700799999,-0.00926741915742
1005,502.747775572,0.0053451477639139995,0.00559963795362,-0.008947095838512
1006,503.249233182,0.030654840096408,0.0015711143050560004,0.0014066734596800002
1007,503.75069071999997,0.009511314063196,0.0063062433804700006,-0.0002666363052322
1008,504.25214851600003,-0.00716680535133,-0.006885756933152,-0.0031111424418128
1009,504.75360638,0.01686852511044,0.005958723630098,-0.0004039853533000001
1010,505.2500496795918,0.005228986801836734,0.005942548635,0.004417762728128571
1011,505.74649307799996,-0.00016115152341600016,-0.0007517141754999998,0.003305692041844
1012,506.247951084,-0.00204426280192,0.001008382885778,-0.00318293583802
1013,506.74940918,-0.00443566298101,-0.01184655158888,0.000724247097826
1014,507.250867466,0.002023843396203,0.006283585855494001,0.00396755938842
1015,507.752325856,-0.0080390453987012,0.00011106312161600073,-0.000725546488422
1016,508.25378437599994,0.001539749689496,0.0022723846491799994,0.0007779786270792
1017,508.750228477551,-0.0022528828310387754,-0.0041175408917755105,-0.000773313001590204
1018,509.24667233599996,-0.001187826786328,0.0002519515799800005,0.001089851155693
1019,509.74813078,-0.00439518484312,0.002711719810020001,0.006911227468624
1020,510.249589636,-0.00327008059258,-0.007125374721919999,-0.001393762594114
1021,510.7510485,0.006845235339892,-0.0004025211378220002,0.0007218242528320599
1022,511.25250708,-0.00366666314124,0.009298945441472,-0.0032043202618920004
1023,511.75396578,0.00048224942709400044,0.0006302229327200004,0.00318355750296
1024,512.2504105102041,-0.001531647223057143,-0.008345781390836736,-0.0007638808570367346
1025,512.7468554,-0.0034496728051199997,-0.0036770197861199986,-0.002908339289829
1026,513.2483143,0.0025628646092540003,0.0024813800313299994,-0.003654569435468
1027,513.74977336,-0.00015058539834719996,0.0032123984309040004,-0.004084595985958
1028,514.25123308,0.0006644186096240001,0.00011882485694000001,-0.0039527947198340005
1029,514.75269276,0.00011134730644000005,0.0006953438658000002,0.00042711869483519994
1030,515.254152,-0.0006640474221172001,-0.0151741236182,-0.0028076164450579998
1031,515.7505965510204,-0.004058581568142858,0.0009328262418795919,-0.002689916753096531
1032,516.247040972,0.003652009181579999,0.0041569948758,-0.00158674162903
1033,516.748500014,-0.002898978534936,-0.0011152701303379997,0.0027410646190592
1034,517.249959916,0.003125347550878,-0.0021016680188000003,0.00228236244486
1035,517.75141984,-0.0010530047494877002,-0.005767271528929999,0.007383515744
1036,518.2528790499999,0.003392534311603,0.0018709365232600006,-0.0021619102638726
1037,518.7493236918367,-0.001017583039187755,0.0042597187730816334,-0.00020166505999571425
1038,519.245768644,0.00259143169038,0.0014093862552239994,-0.0023588829313168
1039,519.74722817,0.0030487715916320004,-0.005082015764372,-0.008640300603458
1040,520.248687716,0.003002799712242,-0.0021096034264199994,-0.0235717079792
1041,520.75014732,-0.006391437975866,0.004082634992098,-0.014208428822688
1042,521.2516067280001,-0.004870812762639999,0.003534746654619999,-0.010676699867008
1043,521.7530662199999,0.00297602199002,-0.005558626621508,-0.0199559480514
1044,522.2495113673469,0.0020441971529836737,0.006283047438836734,-0.018444014161387755
1045,522.7459565199999,0.025209538229286,0.029030222353904,-0.018242788278020002
1046,523.24741624,-0.00215338426642,-0.007016958592394,-0.03295415846586
1047,523.74887608,-0.005346285989202001,-0.052702653019790005,-0.240564119964
1048,524.25033598,-0.007555791409360001,-0.005215111979796,-0.436513755316
1049,524.75179574,0.0008100064281866801,0.0575756331535,-0.389517650606
1050,525.253255572,-0.0064538515450208,0.044732101987600005,-0.08473673813472
1051,525.7497008081633,-0.0027723160800816327,0.017413280885232654,0.3147344236530612
1052,526.246145822,-0.039277231991788,-0.030409751534596,0.5064396631679999
1053,526.7476055,-0.005007242644134,-0.031127811520900002,0.59186531663
1054,527.249065308,-0.043544418402144,-0.021191157894822,0.645230175256
1055,527.7505251,-0.02803079454278,-0.03663014665264,0.723301119804
1056,528.251984956,-0.033929370809795995,-0.048909221635721,0.72707274795
1057,528.7534448,-0.02329314655706,-0.0380873223389,0.728714321852
1058,529.2498903367347,-0.029239371096,-0.0444324214617551,0.5971245194020408
1059,529.7463359,-0.0044776518360799995,-0.0713835597781,0.43240248143800003
1060,530.2477959720001,-0.009196430481802001,-0.046951822693368,-0.02431079436714
1061,530.74925596,-0.011539354864338,0.025964739321416,-0.39918325752199996
1062,531.25071607,0.019709956468623998,0.048516185637470004,-0.351946640614
1063,531.752176272,-0.00284322122108,0.024484140305680004,-0.209729841642
1064,532.253635998,0.007598089203557999,-0.0064314532090428,-0.0685824935126
1065,532.7500811489796,-0.0007032190961836737,-0.007163024631965306,-0.051555222698979594
1066,533.24652668,0.004636792540808,-0.003981334176259999,-0.032802024334760004
1067,533.74798686,0.0010928326101259998,0.0002887354433379997,0.016448923241176
1068,534.249446908,-0.004487233180314,-0.025179598331608002,0.06368585377899999
1069,534.75090698,-0.005983112417356,-0.01585360086566,0.042602984942599995
1070,535.2523675360001,0.00081272738972,-0.00463840715586,0.0358011281492
1071,535.75382832,-0.0008947466683939997,0.00870404694234,0.043140168487399995
1072,536.2502742469387,0.0010853133694897958,0.004691042328489796,0.03795717820061224
1073,536.74672026,-0.006533690225173,-0.009803546870934,0.027499123177399998
1074,537.248180702,0.00024907538676160004,0.019118198686798,0.026856886316800003
1075,537.7496411,0.0013543601053400002,0.027745183232364,0.0271492746846
1076,538.2511016,0.0012062185914619994,0.012377341929300002,0.004067979631662
1077,538.75256222,-7.607531760000022e-05,-0.0007540825122124002,-0.01039253390616772
1078,539.25402294,0.0016247946391620002,0.0015447423242879997,-0.002115983655802
1079,539.7504691244898,-0.009915219515368162,0.0037607789531836737,0.0010925947523002042
1080,540.24691536,0.007881041290400001,-0.008497949577034,0.00366120181506
1081,540.7483761999999,0.006118530612809,0.00648733949154,0.0009608435325799999
1082,541.249837124,-0.005764677924826001,0.00042631045109999964,0.0019743073637372797
1083,541.75129816,0.0032418529965600002,-0.0018766082252223994,0.00378654079517804
1084,542.252759312,-0.005527093690096,-0.003716914390880001,-0.005862068918353999
1085,542.75422062,-0.007779233698,0.010248454241904402,-0.005970498682452
1086,543.2506671061225,0.003926039227135714,0.00024186939375510222,0.0036775715595816325
1087,543.747113664,-0.0019968952231337995,-0.0015877396312800004,0.00269164068148
1088,544.2485749780001,0.008061279831427,-0.00827386288946,-0.0007206606421812001
1089,544.75003642,-0.0022195981346899997,0.0022300339957600003,-0.0030676974563760002
1090,545.2514979,0.008714464772932,-0.005993575977398,-0.004711231905805999
1091,545.75295948,-0.009904837105475999,0.011280500182160001,0.0018767269491356
1092,546.2494066836734,0.00467003479999551,-0.0005991195280816318,0.0008409676970326531
1093,546.745853982,-0.003241723077518,-0.00296306735832,0.0028404928615039997
1094,547.247316034,-0.001074304412952,-0.0035653410294200004,0.0038561403167284
1095,547.74877826,-0.0026713753030179997,0.0056653049305,-0.0014978895197214
1096,548.250240416,0.0014320162592399998,-0.006760311524976001,-0.001888333832564
1097,548.75170264,-0.00316368555662,-0.00150662699716,-0.00145760448957
1098,549.253164784,0.0019418388229019998,0.0022173687359600004,0.0006049942388379999
1099,549.749612377551,0.00023158980853061232,-0.0002604803664489786,-0.0007515427035734694
1100,550.246060452,0.0019289215095380002,0.0009776771163800004,0.000593014178006
1101,550.7475232,-0.0031612253094299996,0.018202579562200002,0.0040575234989839995
1102,551.248985758,0.0003986599390220001,-0.01104051732636,0.006049714995267999
1103,551.75044826,0.0004387902746140001,-0.00910864791902,-0.0006112838805314001
1104,552.251911008,-0.011168107120368,0.0021970709595740007,-0.006536209766854
1105,552.75337386,0.0003620498256706002,-0.002020276478384,-0.0008442402384073997
1106,553.2498218836735,0.006844222003204082,0.00348008769055102,-0.004579528774415715
1107,553.746269876,0.0032378845288,0.0051666778893,-0.002160751752118
1108,554.2477328680001,-0.0015096395467042,-0.00846101294358,0.002038273913446
1109,554.7491958400001,0.003179559111728,0.0020352183674440007,-0.0021409058131120003
1110,555.250658328,-0.0027507355806896,-0.00544920492994,0.00030953140720420003
1111,555.75212072,0.003799076881652,-0.0011347554280000003,-0.0012165313528620001
1112,556.253583898,-0.000587110603326,0.013869298977240001,0.00377950163292
1113,556.750032667347,0.0007548600872061222,-0.01015953908627755,0.0011938502979000002
1114,557.246481124,0.004437675345714,0.0009428978520860007,-0.0036649806189119997
1115,557.74794434,-0.006205668403007399,-0.013521439637868,-0.0026377556447549997
1116,558.24940739,0.00232248213143,0.010541208903318,-0.004144515979477801
1117,558.75087046,-0.001875717593006,0.0021490431208154,-0.0007993716959115999
1118,559.25233369,-0.004995484118685401,0.006384257366493999,0.001363517674397
1119,559.75379692,0.00499884589568,-0.0010458400371799999,0.0014370578459914002
1120,560.2502459693877,0.0007247875958306121,-0.0010461857989514274,-0.0024465167664408163
1121,560.74669496,-0.00187830454653,0.007728172195999999,0.0033594479852794
1122,561.24815866,-0.004563879510519999,-0.005295207668259999,0.00044904881142800016
1123,561.74962232,0.00949199493078,-0.0054761525427799995,-0.000472608180802
1124,562.2510858,-0.002130868071496,-0.0037608382012920007,0.0012961558495467999
1125,562.75254916,-0.007931159893498,-0.003942030723527999,0.006201975585286
1126,563.254012662,-0.001865113535308,-0.0013868991368959998,0.0044654629122608
1127,563.7504615081633,-0.0017947510497387754,0.002815667798002041,0.0016451741141428572
1128,564.24691022,0.00493703682908,-0.0016927870096400002,0.00363271668894
1129,564.74837352,-0.000222739549562,-0.003639817758498,0.003025332821756
1130,565.2498373,-0.0032593563198539998,-0.001564838848162,-0.0008627359753538001
1131,565.75130128,-0.003262817431344,0.00636250383126,-0.002786916632258
1132,566.2527644,0.006287399978114,-0.0009698160554859997,-0.0036756149097412
1133,566.7542274799999,-0.0026961952905759996,-0.00784942671816,0.0012290164197160001
1134,567.2506766632654,0.0021699493640612248,0.002338682660897959,0.00015990382258367338
1135,567.7471259399999,-0.002121353512604,0.0039354243037,-0.004882810323068
1136,568.248590178,0.0020083070733584,-0.00069797181708,0.0007602305908159999
1137,568.750054694,-0.007206298522996,0.007923262231516001,0.0040798488329978
1138,569.251518798,0.0027517170269200004,-0.006566433768962,0.0035956943291440002
1139,569.752982854,0.00014497332269839986,0.0018233335224659996,0.000793480267686
1140,570.2494322183674,0.004753084691665306,-0.00011414990751020379,-0.004290613516997959
1141,570.7458816,-0.00603588587606,-0.0049323712747139994,0.00158270869412292
1142,571.247345558,0.0009465200176599997,0.001818932005382,-0.0051801566895640005
1143,571.74880964,-0.002360891094784,0.0007757288405200002,-0.00141016107412
1144,572.2502734999999,0.001245332201814,-0.0014664990016399998,-0.0026104961939952
1145,572.7517374,0.00220568248032,-0.001653012840980001,0.002476708552442
1146,573.25320156,0.0020227484216999996,-0.014050388337294,0.03338455994632
1147,573.7496511306123,-0.007509598640889999,-0.019530522714567348,0.05985599946346939
1148,574.2461010740001,-0.003928083787214,-0.019974643852079997,0.066939733029
1149,574.7475658799999,0.004295313935002,-0.01951713370444,0.09267710730539999
1150,575.249030708,0.0048733118359040005,-0.01065215401778,0.10939171120199999
1151,575.750495706,0.0009313967923999999,-0.0006783986475200005,0.11779958471400001
1152,576.2519605040001,0.006220037620762,-0.00620787098276,0.11055028393800001
1153,576.7534253,-0.0007226773170579999,-0.0112980163286,0.10326480567459999
1154,577.249875577551,0.0002857768640612245,0.0019915583054897954,0.10366565125367345
1155,577.7463258,-0.00139543394558,-0.011590001414860001,0.1070117810406
1156,578.247790902,0.0055758409487074,-0.005375763440474,0.0979256299132
1157,578.74925606,-0.002080217982256,-0.00034201813729,0.0869554896664
1158,579.250721342,0.0038136244192908003,0.00164213155016,0.09795884415259999
1159,579.75218668,-0.005228295559384,0.0022214262850860002,0.0957081288046
1160,580.253652272,-0.008465139828428,0.0012812351822039999,0.0681074207278
1161,580.7501034265306,-0.007843692083608163,0.007720506483857143,0.016534198735855307
1162,581.24655438,0.006081079468114,0.020485720040139998,-0.0169028502861602
1163,581.74802008,0.0037445601259039995,0.009101275841185998,-0.02551171014116
1164,582.249485858,-0.0020585059114600003,0.0015412196876879991,-0.0385438998764
1165,582.75095178,0.0131468567716554,0.00741500181236,-0.05161573156838
1166,583.252417682,-0.002447182210024,0.003691648105602001,-0.0649981846296
1167,583.75388362,-0.0013890281316168002,0.0055340342316442005,-0.0778262823818
1168,584.2503350020407,0.0012909697696983674,0.007676740537918368,-0.07089281682816326
1169,584.74678636,-0.0037091369649119997,0.014854940082692001,-0.0506047471604
1170,585.248252344,0.002917362060514,0.008185502607243999,-0.039662357159199996
1171,585.7497183,-0.0060303548631446,0.007813217723614,-0.023968726023319998
1172,586.2511846,0.00108926858751,-0.0009716920834519999,-0.0056613203010019994
1173,586.75265116,0.005469635957718,0.0053865593672,-0.0028473488824145997
1174,587.2541168160001,0.002019857503488,0.000952246058802,-0.0021112527744614
1175,587.7505678551021,-0.0012957225743795919,-0.001809894135836735,-0.0023720484293583673
1176,588.2470194900001,-0.0037102879211484002,-0.00013854418849799992,-0.002081800993761
1177,588.74848588,0.003312340872282,-0.0008319883517439999,-0.001266243493902
1178,589.249952484,0.003807751992682,0.002425995580286,-0.00151466685703232
1179,589.7514189,-0.00041431528525978005,-0.0039951923680382005,-0.001771142065996
1180,590.252885836,-0.0021799861360616,0.0008257451930234,-0.00057201485734
1181,590.7493385,0.0034532905938293875,0.002191822767053061,-0.0012332408389530611
1182,591.24579075,0.0028365355916898,-0.004790079398046,-0.00137469035803
1183,591.7472574999999,-0.002436187332496,-0.00035658390273999994,-0.00023749210642301996
1184,592.248724652,-0.0014269916713148,-0.0026655660756082,-0.000769949688074
1185,592.75019178,0.00078591871067,0.000456258496276,-0.0003210349532212
1186,593.251659172,5.926600653599998e-05,0.000593707114369,-0.000951047821439
1187,593.75312672,-0.001635257126814,0.000794544965028,-0.00050392188830132
1188,594.2495793775511,0.011690540923373469,-6.403971724081627e-05,-0.0005311250854738775
1189,594.74603196,0.007960999878184,-0.001363851064874,-0.0013875581161653999
1190,595.247499722,0.020704335960679998,-0.0043688849831652,-0.00160554163625
1191,595.7489676399999,-0.017258228091264,0.0022301357988659997,-0.0016905559995232
1192,596.25043542,0.00670650750402,0.00267253833858,-0.0013822010892680001
1193,596.75190324,0.009411174636652,-0.005566573077039999,0.001126383203022
1194,597.253371412,-0.012214650950168,-0.008813149947996,0.00387347180761
1195,597.7498251122448,0.021493144561355104,-0.006800522192693878,0.0014409867747220409
1196,598.246278318,0.006364952977900001,-0.0159821594512,0.004278394788492
1197,598.7477461999999,0.0054111734595402,-0.0010737105463659998,0.018742993282684
1198,599.249214048,-0.049763194448680007,0.0027647091459999996,0.031235877537
1199,599.7506816399999,-0.006238552517471999,0.00195661779678,-0.005050524855899999
1200,600.25214991,9.73315902800001e-05,0.00487848184201,-0.010151407567232
1201,600.75361834,0.025617661392128,-0.028207549712773998,-0.051005064434800004
1202,601.2500719,-0.000877094360061224,-0.006288598291836734,-0.0934672127577551
1203,601.7465254,-0.00324112733816,0.014032803122998,-0.077356379777
1204,602.247993724,-0.04363759005424,0.02064270736667,-0.0706681467588
1205,602.74946204,0.03275391186912,0.01733433338904,-0.056548659205
1206,603.25093044,0.00854482821126,0.006207452184259999,-0.0837060043214
1207,603.75239894,-0.02305414919695,-0.010553912064014,-0.11279502689
1208,604.2538677379999,0.0039675797053,0.0329990363654846,-0.1100350986456
1209,604.7503220918367,0.002934882189637347,-0.0018414323868387755,-0.11197170295306122
1210,605.24677596,0.00459844476509,0.00615897254962,-0.103142446875
1211,605.7482445,0.0028063078786637998,0.0018675349838460004,-0.1062026478354
1212,606.249713358,-0.004284195834709999,0.0067651841512840006,-0.119483612184
1213,606.7511822199999,-0.0010367654259220002,0.010319086554099998,-0.14069345087000001
1214,607.252651244,0.0009156000523200002,0.002001631845852,-0.14570435554
1215,607.75412022,0.010405758219050001,0.002668557967818,-0.1145160658642
1216,608.2505750061224,0.010459691541653063,-0.020339456834275512,-0.10667932565653063
1217,608.747029986,-0.032879058436467996,0.01742508997816,-0.1243637406832
1218,609.248499552,-0.0014829272591500003,0.02366036678754,-0.11395423084579999
1219,609.7499691600001,-0.0036282170744036,0.0013751193164599994,-0.0987930746362
1220,610.251438788,0.0041927859460599995,0.003849623418037401,-0.0760061460736
1221,610.75290842,0.0018031285801359998,0.021553537595060002,-0.057426635175599997
1222,611.2493634367347,0.010612973639612245,-0.013206256713959185,-0.02205424609917959
1223,611.7458184,-0.009101583604149999,-0.02359284346038,-0.01036400931388
1224,612.247288508,-0.003180480254084,-0.009088681321166,-0.01800876777582
1225,612.7487591,-0.0032922525145460003,-0.017797821323026,-0.0229033254456
1226,613.2502291,0.0027642241962440002,-0.01212868966052,-0.022846170608
1227,613.7516991,0.007738396758265999,0.015375495050222,-0.0014860576737200002
1228,614.2531692360001,0.0014355050769320004,0.01681597215176,0.03997326180424
1229,614.7496247816326,0.0015519253852448983,0.008453719346398774,0.0671131070332653
1230,615.2460798999999,-0.017183501795006,-0.013841116390780001,0.08507823511859999
1231,615.74754966,0.004991808617546,-0.020385848647696003,0.091108256578
1232,616.249019672,0.005615661330746,0.002088851192780001,0.08507211268020001
1233,616.75048948,0.0114525801126992,-0.005828845584514,0.0742998404058
1234,617.251959732,0.0022714577428019998,-0.0012459022638300003,0.0863064737616
1235,617.75343022,0.0004834692925800002,-0.00019400961748400043,0.089808298498
1236,618.2498859795918,0.006299567332836735,-0.0214124808872449,0.07724445525979591
1237,618.74634186,0.015391314421033999,-0.0012244722801600001,0.0769585867974
1238,619.24781237,-0.017952533848302,0.012877030704036,0.1307539293188
1239,619.74928282,-0.008789201099006,-0.0124620727724,0.11727956063859998
1240,620.2507536,0.011267341664156001,0.005786371937060002,0.11238680824639999
1241,620.7522245,-0.009647935005140001,-0.024882302935660003,0.0408015148344
1242,621.2536953499999,-4.858681964199974e-05,0.034473966582468,0.005197268626169999
1243,621.7501515714285,0.0074326944324510195,0.023348352318897963,-0.005740205472577552
1244,622.24660749,0.00100437496801,0.01557145766584,0.0017955161308419998
1245,622.7480779,0.003582927630998,0.008066651354340001,0.0312964309377
1246,623.24954908,-0.0078877095686452,1.6142559079999204e-05,0.01790391281252
1247,623.7510206,0.0004904840605923999,-0.00310589548214,0.01789276627858
1248,624.252491698,0.00013465473429199998,0.0019280301221400007,0.011821262964504
1249,624.7539629080001,-0.0035056909828799997,-0.01686596454888,-0.005744811265883601
1250,625.2504194183674,0.002726273506652245,-0.005102199225306123,-0.010598189045102041
1251,625.74687616,-0.0030119792559860003,0.0102026027256,-0.0033315611583839997
1252,626.248347228,0.00476850209756,-0.00688841790924,-0.0202623316734
1253,626.74981796,-0.00673614202978,-0.00439049763532,-0.0373449602344
1254,627.2512897,-0.00222836302604,-0.003879249179636,-0.0516281438612
1255,627.7527618600001,0.001122541287764,0.01201095018576,-0.040524650328
1256,628.25423332,-0.008569828094800001,0.019171214810906,-0.0200594369982
1257,628.7506900040817,0.003393627646104082,0.01314633190257143,0.00047256585175183674
1258,629.247147274,-0.0014497651154488,-0.003051796557555999,0.0166231565434404
1259,629.748619456,-0.00215205132068,-0.0026945826958768,0.01985709494952
1260,630.250091084,-0.006553720282518001,-0.005158633328566,0.01105687351924
1261,630.75156258,0.003706643525634,-0.0047815417226,0.022992186650648
1262,631.253034276,0.0023928963388856,0.00019245225858000037,0.0255709067734
1263,631.7494912530613,-0.001089448441955102,-0.010103280419428571,0.009276401371
1264,632.245948714,-0.0017209888900319998,0.0027654512787599994,-0.001840815864184
1265,632.747421222,-0.0005239796728399999,0.0008706352304240009,-0.00294191227537
1266,633.2488932580001,0.011671118131024,0.0026463826939599993,-0.0046493087125889995
1267,633.75036518,-0.0226687958370346,-0.02017438520568,-0.01895760341588
1268,634.2518374480001,0.021630452704067,-0.014272738601979999,-0.0951627512264
1269,634.7533096980001,-0.007150180805852,0.00513275485534,-0.300753710866
1270,635.2497673959184,-0.002429375614926939,0.01873655666522449,-0.4509551731857143
1271,635.74622526,-0.00711282351084,0.03619156768523,-0.40686624944800004
1272,636.247697782,0.007880305079648,0.0515277445124,-0.20681464500619998
1273,636.74917022,9.736470865799998e-05,0.027022657068084,0.1642537224074
1274,637.250643056,-0.008715341836520401,-0.02291241642996,0.357975540162
1275,637.7521160599999,-0.01984464590348,-0.008796762294878,0.38940228939199995
1276,638.2535889960001,-0.00474403135468,-0.030400610966486,0.46462611316999997
1277,638.7500473061224,-0.024556964559914286,-0.028930659377081634,0.4768894272142857
1278,639.246505396,-0.006441867937906,-0.029974976759000002,0.47961847425000004
1279,639.74797802,-0.013754166522718,-0.026248239474820002,0.48216152787600003
1280,640.249451098,-0.0043353737893352005,-0.041235352819298,0.5066712903980001
1281,640.75092432,-0.013391735451639998,-0.05433979740398,0.5038929152480001
1282,641.252397322,-0.003710815654741,-0.030712603237715998,0.505092122552
1283,641.7538702400001,-0.027330112475238,-0.021775205312680002,0.482165405744
1284,642.2503287816327,0.0014073994694102042,-0.03233984910043061,0.3655609014102041
1285,642.74678752,0.002933730408736,-0.03677991540128,0.050795981640859994
1286,643.248260604,-0.0038610171616260004,-0.01406952848754,-0.190184799882
1287,643.7497334660001,0.000818241666632,0.01694278650956,-0.253533973394
1288,644.251206944,0.011886570491502,0.05565046013943,-0.1637950098512
1289,644.75268066,0.02068550555046,0.006798451162644,-0.0144626784014244
1290,645.254154098,-0.017118495162486,-0.016451664231412,0.021181682795
1291,645.7506130612245,-0.02057960019310204,0.00012619680329795904,0.009167446454285714
1292,646.2470719,0.00490680349076,-0.005300305327259999,-0.0067203496696840006
1293,646.74854554,0.017667139404884,-0.021669734064442,-0.016591819925619998
1294,647.25001934,0.0027747338729579994,0.00105072096976,-0.007517849679768001
1295,647.75149307,-0.00464621197388,0.023153339995748,-0.005109987314863999
1296,648.2529672420001,-0.011124490146948001,-0.006539177697806,0.005435019914472
1297,648.7494270183673,-0.014006869810089794,0.012126565485053059,0.013986705435383674
1298,649.245886368,0.01670795063488,0.007567137943819999,0.013060906902114
1299,649.74736028,-0.0011212055946500001,0.005812288986034001,-0.004803718355462
1300,650.248834566,0.0034549211712600002,0.011859223572486,-0.0018989019258754
1301,650.75030914,-0.0088289239073158,-0.007114530037646001,-0.007093063584837999
1302,651.25178337,0.00029511678966220005,-0.004558311413814,-0.022063648104819998
1303,651.75325738,0.003437764709894,0.006814181253879999,-0.004967160480562
1304,652.249717165306,-0.001142594212242857,-0.002391053154406123,0.011948620026244899
1305,652.74617702,0.004323727004156,-0.00370086606598,0.006554561576678
1306,653.247651696,0.0011945192979368,0.01230254025322,0.003918521308855599
1307,653.74912698,-0.00989159312082912,-0.008458877066148,0.00519255059054
1308,654.250601476,-0.0011378993562040003,-0.014494027802298,0.0052495235996883995
1309,654.7520764,0.00382100490844,-0.007905887309588,-0.0013260029303618001
1310,655.2535514,-0.0040060512535760005,0.0001821248791240002,-0.010447809206994
1311,655.7500116551021,-0.00846687423962653,0.008047881384265307,-0.0047026682258023735
1312,656.246471812,0.0056281058673359995,-0.0180068317701,-0.004330207588084
1313,656.74794686,-0.0027364400031000004,-0.01090144617441,-0.00258516134908
1314,657.249422168,0.000583101287596,0.011511410213440001,0.001624639013388
1315,657.75089798,-0.005132394348872,0.0053806260977592,0.0056907502562112
1316,658.252373128,0.008100858507624,-0.0007457293569680002,-0.0002240238059007999
1317,658.75384832,-0.004086193358349999,0.00283114580546,-0.00031163414472600004
1318,659.2503088591837,-0.0007447338549408162,0.0012206168348163264,-0.001371004273027347
1319,659.7467694200001,0.001377673234006,-0.0021402030809200005,0.000614638446272
1320,660.2482447900001,0.02437823715394,0.0074906175110459996,0.00053115952303
1321,660.7497194800001,0.01293937306818,-0.011641284562822,-0.001144202039446
1322,661.25119501,-0.037736915705244,-0.0008834189343919997,0.0059192942550880005
1323,661.7526707000001,0.0006066069100859997,0.0020404032245879998,-0.0012311490872959998
1324,662.254146134,0.001009520990716,-0.0033476624181799997,-9.099561608960004e-05
1325,662.7506068897959,-0.03594663171944406,0.027510197233893675,0.00525408890252245
1326,663.2470678779999,0.0342060341316,-0.01875155128482,-0.0023302187840059997
1327,663.74854372,0.0087271674069,0.0237874449145,-0.000435582594744
1328,664.2500195380001,-0.007418405580951999,-0.02560717417116,-0.00451379836341298
1329,664.7514952399999,-0.011718289992299999,0.023897768687596,0.005907818187008001
1330,665.252971036,0.01234655541349,-0.0090881606194992,-0.0037232243411064
1331,665.749432089796,-0.0025077191449918365,-0.007907116101328571,-0.004598510882818367
1332,666.245893278,0.0007760522975880002,-0.012464870829914002,-0.003166808490828
1333,666.7473693,0.0016044741960740002,0.013215906713001999,-9.3980232758e-05
1334,667.2488454679999,-0.0089987121705,0.0026602851226140006,-0.002281282101652
1335,667.75032194,0.009841792117624,-0.00901355035656,-0.00138031848578
1336,668.251798222,-0.0009068704766960001,-0.0012507013235939998,0.0004941579117614001
1337,668.75327454,-0.0055991146155780006,0.0050660442746779995,0.0009729518461789999
1338,669.2497359510204,0.007494026148437755,-0.006785635237911633,0.0026324163664918367
1339,669.746196948,-0.004969426011894,-0.007126277870922,0.001946937893552
1340,670.2476733620001,-0.00017543042038999993,0.016513893613854,0.00249640684345462
1341,670.7491500199999,0.0075127472354299995,0.0034265113994048,-0.0022216933162204
1342,671.2506264819999,-0.013268489855764001,0.01052385656208,-0.003158393028464
1343,671.75210302,0.012228299044119999,-0.00185728285404,-0.004031041428638599
1344,672.2535796740001,-0.000647929143242,-0.00922669240181,-0.0056163819950960005
1345,672.7500418285714,0.0010117654758918365,0.004343362345122449,-0.002356697433287755
1346,673.246503288,0.0005531470009519999,-0.009352878574512,-0.004755694151355
1347,673.747979074,0.0017334933764487997,-0.020411287443958002,-0.0721840538468
1348,674.2494552979999,-0.0034928976836420002,-0.02167779383374,-0.089982838035
1349,674.75093146,0.0123031512745134,0.051926273870840006,-0.004268213199222
1350,675.2524079880001,-0.04214312729569,-0.006293269108372,0.0400721368194
1351,675.753884794,0.044175241403400005,0.0160575927147,0.0509219011664
1352,676.2503466795918,0.004096538493542857,-0.02341504181136735,0.033349431937346935
1353,676.7468086199999,0.0006573845163720001,-0.0018963787801559997,0.025129951573799998
1354,677.24828544,0.0010318056307004,0.0036473392690359995,0.02158905290994
1355,677.74976246,-0.0004954828600860001,0.004762105531768,0.0011063940940084
1356,678.25123934,-0.0019815846814120004,0.00841751798078,-0.006346552377678
1357,678.7527159800001,0.0008437017908400002,0.021087790681688,-0.0071266378472659994
1358,679.25419328,0.004379338632038,-0.013290108433307999,0.041964652906259996
1359,679.750656167347,-0.0032751216094734693,-0.006453137027210205,0.11184197009918366
1360,680.247118728,7.134681600079995e-05,-0.018041387861728,0.153173575698
1361,680.74859592,0.0038630828908500004,-4.084818079199984e-05,0.148306694038
1362,681.2500736200001,-0.00584428743446,-0.010906572267480001,0.10729914412199999
1363,681.75155172,-0.012650656243956,-0.0066817906220799994,0.0569793727244
1364,682.2530294920001,0.0024095216395676,-0.012507384913102,0.001918580641748
1365,682.7494926734695,0.007427525563971429,-0.010273561166332653,-0.03809890512163265
1366,683.245955642,0.0161124860401248,-0.011412794589916,-0.0581294280296
1367,683.7474331799999,-0.001432985765724,-0.0129793304778,-0.110244597791
1368,684.248911082,-0.03138766972388,-0.006471194496499999,-0.11741381480999999
1369,684.75038898,0.019015256863876,-0.0023617206980920003,-0.113384286758
1370,685.251866946,0.012579358052461999,0.016301486164858,-0.1138574291752
1371,685.75334476,-0.001915289256714,0.0184650789014258,-0.120604489594
1372,686.2498082734694,-0.004142060210636735,0.00010302758823897915,-0.11546317853061225
1373,686.74627233,0.0010126924600999995,0.011150586168132,-0.1095585231452
1374,687.247750604,-0.013415014575918,0.004720411309406,-0.09694024026419999
1375,687.74922888,0.004491985096104,0.0163386273564216,-0.0930993893742
1376,688.250707154,0.013562446534469998,0.006854292265864001,-0.092962753997
1377,688.75218498,0.0064472306425576,0.00164136929428,-0.0794056512412
1378,689.253663454,0.009321588184336,-0.0082294017728132,-0.038967885412
1379,689.7501273693879,-0.00034382930755836726,-0.010659549908183673,-0.008268727767540816
1380,690.246591184,-0.021128183631541998,0.0027991553207196,-0.0013480207836400002
1381,690.748070052,-0.02348990300614,-0.012962797227923,-0.0010207808053639999
1382,691.249548636,0.016797712389915998,-0.0153037317463354,-0.0041030908655699996
1383,691.75102722,0.015609078667860002,-0.00242894173586,-0.0020772061484636
1384,692.25250605,-0.0120582372322,0.008510452816516,0.052140796595000004
1385,692.7539858199999,-0.011402116008598,0.0010396040697186,0.136996430758
1386,693.2504493306122,-0.007679042092534694,-0.007247545861371428,0.18704874843877553
1387,693.7469114920001,-0.009025997091218,-0.015596828172292,0.199320036166
1388,694.248390244,-0.0099213839787316,-0.0103868718818798,0.199925895638
1389,694.7498689600001,-0.00971364298818,-0.0083044365610866,0.19797129780199998
1390,695.2513478999999,-0.00964830619274,-0.012715493206806,0.20129467249400002
1391,695.7528269,-0.011290227630614,-0.01379710279506,0.225536091626
1392,696.2492911795918,-0.021374446938693878,0.014870005916334694,0.37529909974897957
1393,696.74575574,0.0030477608551400005,-0.01999514513596,0.459803873894
1394,697.2472347519999,0.02288376158082,-0.0348003825358,0.46994719267199997
1395,697.7487136000001,0.0054345060608664,-0.01742433794736,0.417701942924
1396,698.250192708,-0.006853789845656,-0.02760097051054,0.385741892452
1397,698.75167206,0.005125529607904,-0.0356550411502,0.293262336552
1398,699.253151236,-0.003925522482286,-0.029546927139560003,0.07183146204563601
1399,699.749615632653,-0.016103333432655104,0.01834778705287755,-0.0923157776077551
1400,700.2460799439999,-0.00113668533066,0.05158820338454,-0.1061042352
1401,700.7475586600001,-0.06196773712465999,-0.04405460257149199,0.049261730072740005
1402,701.249038076,-0.011943426587973198,-0.053712979479532,0.2379568737828
1403,701.7505183,0.023708938807459997,-0.034819921012084,0.244262488484
1404,702.251997592,0.023622316355013998,-0.0027021377907200006,0.07817036651881999
1405,702.7534766800001,0.021624352336266,0.0049996598255682,-0.1210599999184
1406,703.2499412755102,0.026753446591418366,0.009784796255142857,-0.1394086846489796
1407,703.7464059399999,0.00344431129266,0.024632278953214,-0.12522676826
1408,704.247885182,-0.004863222232112,0.01041180687628,-0.0748448736216
1409,704.7493639600001,0.00168670738126,0.006149714914986,-0.0264772434534
1410,705.2508434060001,-0.015967639825,0.01456834399138,-0.011089186016520002
1411,705.75232276,-0.0025038042758736,0.00891812130842,-0.004283217458668
1412,706.2538022479999,-0.010606420636284,-0.0011604200662800003,-0.0031756934547280003
1413,706.750267167347,0.005964019525346939,-0.0014365791381632667,-0.005285081441868367
1414,707.246731996,-0.012419405421339999,0.01427984321594,0.004514625246012
1415,707.74821186,0.010827065007476,-0.0186224487581,0.005149252665188
1416,708.249691426,-0.007299369889460001,-0.004458687360780001,0.00838102596342
1417,708.75117096,0.0004913236762540001,0.0096614431756,0.00705574171618
1418,709.25265054,-0.00636208700934,0.003580143153460001,0.006333180409922
1419,709.75413016,0.004143188864998001,-0.00336682953856,-0.006471023377372
1420,710.2505949571429,-0.0003465975499693877,-0.000857123202367347,-0.004574060349630612
1421,710.74705982,-0.004145930149079999,-0.00486721321818,-0.003893030683948
1422,711.2485395079999,0.012856588670854001,0.0025400009008979996,0.0009806520843228
1423,711.750019416,0.0012067381198479997,-0.0001863273792439999,0.007097031122322
1424,712.2514991779999,-0.01011903654892,0.00530837504204,0.0186363207922
1425,712.75297924,0.007644518353444,-0.00169119667238,0.0226368296328
1426,713.2494442346939,0.008233351832589796,-0.015033363820539592,0.013285338052148979
1427,713.7459088600001,-0.006146194394740801,-0.01860865505408,-0.048810331459846
1428,714.2473888000001,0.07457168025767999,0.006665552891903999,-0.225041132572
1429,714.74886866,-0.0919153848863,0.017952676731686,-0.399570287468
1430,715.250348502,-0.023769366285104,0.062456779923940005,-0.606334199912
1431,715.7518278,-0.019768689601339998,0.0626512674988198,-0.730964161162
1432,716.25330784,-0.01298023834798,0.036908394053305996,-0.7025799727419999
1433,716.7497738918368,-0.10055966846254694,0.033250292164195915,-0.4501916979061224
1434,717.246239016,0.10235700936616,0.0628614990198,-0.14526183270434
1435,717.7477184,-0.021903926897239998,0.01285165699238,0.0302514372948
1436,718.24919858,0.09720005099696,0.007579615154222,0.038733351957
1437,718.7506796,-0.00824296945664,-0.014463934395080001,0.0348777067756
1438,719.252159628,-0.0009003618734839998,-0.005269177258042001,0.0506834594162
1439,719.75363886,-6.376199420800019e-05,0.008442630917018001,0.027509486675
1440,720.2501043163265,0.0008802469156612246,0.0017263053307653067,0.00010155521129387736
1441,720.74657008,0.00180521615826,-0.0171529106236,-0.019270756431
1442,721.248050272,-0.014505348680446,0.00319512844962,-0.026034292392400002
1443,721.7495305,0.0018006256129020001,0.01185309323524,-0.01026074473518
1444,722.251010576,0.007600213811228,0.008593510762280002,-0.00013574150381599997
1445,722.75249062,0.0008963839151879999,-0.011033297022619999,0.00038867677571400016
1446,723.253970736,-0.010548414308347201,-0.004484409764252,-0.003898091572168
1447,723.750435967347,0.0049547809175408165,0.004970878058508163,-0.01056762434034694
1448,724.24690131,0.0001367066051899999,0.014109153421300001,-0.00941100135944
1449,724.7483812400001,0.0014762185696779997,-0.005833169016803999,0.0045638997225696
1450,725.249861432,0.006538553209952,-0.0129862042235,-0.00532645844289
1451,725.7513417,-0.008095185290688001,-0.007544088652474,-0.02111731997658
1452,726.2528219,-0.011987988166521999,0.014517062958108,-0.0278434400636
1453,726.7492876959184,0.01169133227279592,0.03269312574428571,-0.02759707694408163
1454,727.24575321,0.03089341541754,0.03782090941764,-0.0385386444628
1455,727.7472345799999,-0.04042121872528,-0.048392112962639997,-0.06367176480560001
1456,728.248714606,0.04046036379194,-0.0239897197015,-0.0586320033108
1457,728.750193956,-0.03521397621094,0.022010791954171997,-0.02015979669234
1458,729.2516741359999,-0.00736425187472,0.013678592343460002,-0.014785857160689999
1459,729.7531540199999,-0.004989697486504,0.01944176279294,-0.0202783678282
1460,730.2496194510205,0.03276512893553061,0.017922105259204082,-0.0010525529339584817
1461,730.74608458,0.11082005421432,-0.018715429753229998,0.0112372803617402
1462,731.2475649,-0.19791344672026,-0.008730758017591999,0.01597335130884
1463,731.7490455599999,0.0735973290905938,0.00509790354562,0.0598924850298
1464,732.25052586,0.00963111718116,-0.017680638805008,0.0849087107194
1465,732.75200634,0.01130662680638,0.012879130467118001,0.0956457942704
1466,733.2534868900001,0.00529089208655,-0.00717234469974,0.1307711164632
1467,733.7499547938776,-0.02749213085032041,-0.04042857419028572,0.14963455011428572
1468,734.246420056,-0.0022508846221234,-0.017757928529232,0.11154826446659999
1469,734.747897614,0.01125326408074,-0.00848832015876,0.1155704067632
1470,735.249377936,0.034771343004092,-0.015165844030999999,0.11539170652439999
1471,735.7508587799999,-0.000536111294828,-0.013391253037360001,0.1089251635984
1472,736.2523389800001,0.04426355842642,0.01274757181296,0.0997801436468
1473,736.75381886,-0.1020035846927,0.012062295577455999,0.0572345136854
1474,737.250284332653,-0.004399139151655102,0.04294413060334694,-0.007400121539346939
1475,737.7467505000001,0.012713734442766,0.011733356994084001,-0.055224786885599994
1476,738.248230664,-0.013723654858306001,0.0182381949999604,-0.1125527071942
1477,738.74970976,0.016462228712839998,-0.037013111709280004,-0.140394627456
1478,739.251190012,-0.011367965387424,-0.017477099396662,-0.13569661870000002
1479,739.752671,-0.006353028733008001,0.04741359902636,-0.142248046848
1480,740.2541510899999,0.030819375970386004,0.006789375096700001,-0.14925046891
1481,740.7506156428572,-0.02839440115134898,0.005886179783979592,-0.15638456478367346
1482,741.247080988,0.02001160735274,0.00879083840042,-0.16598373085399998
1483,741.74856214,-0.01013367758212,0.01356874558656,-0.165767768628
1484,742.250042128,-0.002296021906202,0.0355475534126,-0.157212161122
1485,742.75152132,0.00408260978832,-0.01796175411036,-0.14456856817
1486,743.2530015039999,0.019616377204355998,-0.004746176955159999,-0.13974125236399998
1487,743.749467,-0.03220335266971428,0.037361725079489795,-0.12354782482244898
1488,744.2459321700001,0.01576627002993,0.021688876390299996,-0.11407807439859999
1489,744.7474116799999,0.039036576320840004,0.00814545713392,-0.04380966984184
1490,745.248891566,-0.026049980233142,-0.046960949981899994,0.020441225572279998
1491,745.75037223,0.017035551918759998,-0.00967111951718,0.0178486124867272
1492,746.251852012,0.1108736507582,0.0029425273242800008,0.0170036056498704
1493,746.75333122,-0.2777914484594,-0.009736389316354,0.01276645099305
1494,747.2497962020409,0.14956178376289797,0.013959295082285713,-0.010406662527406733
1495,747.74626108,-0.01659747640586,-0.02032676005836,-0.2014183519076
1496,748.2477409019999,-0.0009750959372400001,0.0232207125250686,-0.52384453535
1497,748.74922134,-0.011616265261795999,0.058914544181046004,-0.681741104126
1498,749.25070117,-0.002251384528778,0.0460972164936,-0.725244867798
1499,749.7521814199999,0.002500828523184,0.07296994967144001,-0.697885432244
1500,750.253661176,0.019211578201044,0.054898458759216,-0.457709876898
1501,750.7501258734693,0.0028719272539183675,0.013480044910791836,-0.11820697025202041
1502,751.246590782,-0.01016593029755458,0.00394462203587,0.1001149256142
1503,751.7480702199999,-0.008541047210366,-0.03017564676694,0.13963172763599999
1504,752.2495499820001,-0.0045916629488,0.015980061376304,0.163946854768
1505,752.75102944,0.0038558010103200003,-0.01137642019484,0.182831416126
1506,753.2525092239999,-0.0134598738333698,-0.014975880140406,0.18414449990200002
1507,753.75398934,0.00729652319956,-0.012520267405562,0.158290126324
1508,754.2504542653061,-0.01841508477344898,-0.025377257547648982,0.09505733786571428
1509,754.74691916,0.0070361184423,-0.002473462997254,0.024495138215664
1510,755.248398788,-0.0040261641146159995,0.01160160127014,-0.0171781278282438
1511,755.7498781999999,0.0044501695308308,0.0079030676378,-0.04265593402080001
1512,756.2513577340001,0.004783528530644,0.002782228710088,-0.0371840165926
1513,756.75283718,-0.00777325835098,-0.0095269183165,-0.01566895634854
1514,757.2493019,0.008162655554379592,-0.0019307223970204078,-0.03720732251810204
1515,757.74576702,-0.013027994977438,0.0010048330572299993,-0.0617868778108
1516,758.2472464800001,0.0016301231366780001,0.005780255859800001,-0.0554555645586
1517,758.74872596,-0.00322431924722,0.014630503459638,-0.041744753123
1518,759.2502054319999,0.002683046972033,-0.0002844208292119999,-0.0495811816308
1519,759.7516847200001,-0.00416776591884,0.00815842924536,-0.0537566053116
1520,760.25316429,0.0027039708944420005,0.01013986009878,-0.044863583892
1521,760.7496294612245,0.00625750275122449,0.023499561968285714,0.011775587998263266
1522,761.246094204,0.0010232292588,-0.014644684791226001,0.269514006378
