Time_interval,Time,Acceleration_x,Acceleration_y,Acceleration_z
0,0.25340428000112,-0.01647750852800001,0.019631207953779997,-0.12814927393704
1,0.7496115340285714,0.21598416389693875,0.1096287090465306,-0.3199439603830204
2,1.245818617,-0.24565801212799998,0.1855837009894,0.4550085821178
3,1.7470378551799999,-0.051299596321999985,-0.434477449674,-0.2185749671038
4,2.2482569800000003,-0.0006126065674599984,-0.08458004314100002,0.14016729015630006
5,2.74947596182,-0.050614075738368805,0.1186875200646,0.0254944566588816
6,3.250695017,-0.04057723587112,0.1091333567954,0.02086574227793
7,3.75191448018,-0.03404114028442,0.08485444856520001,0.0179927011717
8,4.25313451,-0.0353028296368,0.074670356713096,0.019910307239799998
9,4.754355642499999,-0.0302409721110282,0.06430768213006,0.014004759762237999
10,5.250565696428571,-0.019691811858746938,0.05683359814308163,0.01434400758153061
11,5.7467768249999995,-0.01797297773474,0.04728466346826,0.016462484839240003
12,6.248001725,-0.02029578575772,0.037291842083538,0.012943560288860003
13,6.7492279900000005,-0.01644815751546,0.0391586541212,0.010250706984334
14,7.2504557599999995,-0.020789816361018395,0.033014951012624,0.00499671474473
15,7.75168484,-0.008036329874720001,0.0269027329696,0.016859428920139998
16,8.25291522,-0.003053360791220001,0.028586502303120005,0.00861579040982
17,8.754147525,-0.01640742608464,0.02037136969593794,0.009594590913338
18,9.250368760204081,0.004462009515897958,0.017047772776312246,0.008002666407173467
19,9.74659054348,-0.0225370797937064,0.02306504819188,0.008172933982019999
20,10.24782584,-0.004484098101799998,0.011462563622638,0.0035196379087799995
21,10.7490630114,0.010054609100820011,0.01502955081834,0.014335080674179998
22,11.2503011872,-0.004298995691642002,0.05660043209582,-0.02662852413914
23,11.7515405964,0.11288739796641,0.48275617927939996,0.09373876064872
24,12.25278082,0.6478021191008,1.08698981479,0.0734362689625
25,12.7540211452,1.195253227926,1.042730235312,0.122508523463366
26,13.25025006632653,1.8682454978897958,0.7884868522151428,0.0063434294722449
27,13.746480265,2.60326202684,0.4668902611914,-0.05740765922662
28,14.2477239,3.0166236751000004,-0.659760171576,-0.1270309939378
29,14.7489685148,2.9100859119799996,-0.15764592056937998,-0.03324763072538
30,15.250214289999999,2.5691408674000002,0.6358664779059999,-0.05264604931471999
31,15.75146136,2.92942790206,0.580203366158,0.02528247170648
32,16.2527097,3.2416041968,-0.8071850557551999,-0.17328130031168
33,16.7539584812,3.71603808596,-0.12354699480459999,-0.05296116745480001
34,17.250196234693878,2.94982885044898,0.8798475543163264,-0.020739918755918366
35,17.7464352836,2.191575303266,1.304955471282,0.1833342076708
36,18.24768825,1.45767117986938,1.087049398592,0.4098210422482
37,18.7489416732,0.6191732551524001,1.23125302678,-0.1530754396842
38,19.2501962176,0.600766098252048,1.3318226933739998,-0.06363766868198001
39,19.7514521824,0.6416165809696,1.1663772496459999,0.25161239042244
40,20.252709287400002,0.20206507789379,1.201070244872,-0.09140302015900001
41,20.7539673088,0.415132103039258,1.789354452814,-0.4690060913716
42,21.25021379081633,0.10890744231408163,1.9515630826795918,0.7901539526163266
43,21.7464616082,-0.120086172958,-0.4124119961092,0.005762805259800005
44,22.247723147400002,-0.1524294261586,-1.1193876607846,-0.1687511699604
45,22.748985390399998,-0.2736025219548,-2.37732831842,-0.21811993679133998
46,23.25024868,-0.653775382999,-3.00373318122,-0.06041243808702
47,23.7515132946,-1.18677256813,-3.01918820244,-0.2835304344794
48,24.252779190000002,-1.058812415088,-1.0080801894123,-0.04496409433774
49,24.75404635,-2.3934038126,0.35112356476808004,0.005788509605680001
50,25.250302027142855,-4.294147299612245,0.7755304064020407,-0.024658615329795915
51,25.74655865,-5.37923203448,0.412943432056,-0.053531621829259995
52,26.24782867,-5.59838950706,0.4731323055272,0.1070032746084
53,26.749099778,-3.45879727398,1.570634955744,0.04305377390166
54,27.25037163,-2.33685761042,1.7834948060599998,0.088809230414954
55,27.7516441182,-0.5021955097624,1.87406051072,0.13238127811846
56,28.252917160000003,0.1013805151142,1.6408464516199999,0.0426271025774
57,28.7541904614,0.298373883691,1.54792535102,0.15251642247502
58,29.25045134346939,0.37781571720285717,1.4518338272291837,0.1273748149942857
59,29.746712702,0.272299709224,-0.5001707508936,0.020154779332140004
60,30.247987400000003,0.06218228648192001,0.1164355325498,0.0579454744174
61,30.749262132,0.007810960273700001,0.54480259182944,0.12455165755799999
62,31.250537518599998,0.11475678544352,0.580670875178,0.0394008077933
63,31.7518133638,0.29833075946405957,0.6417780355778,0.009493328787759993
64,32.25308978,0.35023891575884003,0.599912923872,0.0756770974296
65,32.754366548600004,0.5262766019192,0.55051994375,0.1648154909738
66,33.250631077142856,0.4160649352642857,0.5599938088408163,0.04853529085346939
67,33.746896666000005,-0.029770053507619996,0.550018409053,0.1539520425673
68,34.24817564,-0.09984056627826,-0.028139595240960002,-0.2289832097854
69,34.749454368,-0.5437320972632,-1.29731138434,-0.012061613089420003
70,35.25073344,-0.24972919180720002,-1.407958164266,0.08968086315474
71,35.752013240000004,0.3060507494702,-1.3876458784280001,0.1132384880752
72,36.25329332,0.050296818417400004,-1.282401526726,-0.2989110908752
73,36.74956132408163,0.0810777383632653,-1.3361584628061225,0.15095844953612245
74,37.2458302172,0.14896214898084,-1.3500977156479999,0.27528883082096
75,37.747112863400005,0.1103602734952,-1.3582160351280002,0.2428216747282
76,38.24839622,0.19366441026560402,-1.334580741688,-0.815216198371
77,38.749679958799994,0.2344241052244,-1.227390367878,0.024646282941260002
78,39.2509641476,0.26175593658788,-1.306521618706,-0.046109470355000015
79,39.752249227,0.1779109266708,-2.29038473998,0.0626467995576
80,40.2535348476,0.2138341618876,-3.4330275332999998,-0.73928610369
81,40.74980844836735,0.3469800312422449,-3.5686765948979593,0.30865877454367346
82,41.246082957199995,0.8097341332098,-2.207361183354,-0.36428331269892
83,41.74736824440001,1.3727236584240001,-0.7771306633099999,-0.117398852216576
84,42.24865307,1.7815226161300002,-0.3077669343376,0.09658250719639999
85,42.7499406334,2.07207319728,0.33888418283359995,-0.0502369496734
86,43.2512294774,2.214825898204,0.2700421770036,0.41151653601680005
87,43.7525190722,2.0617379323394,0.3149764102582,0.1890033756096
88,44.253809527,1.4922797718092,0.37328413120619997,0.08456112299459999
89,44.75008708693877,0.7556382682881633,-0.01722127473245306,0.010691275809387767
90,45.2463647468,0.08682757393919999,-0.257220107946574,0.381294488519
91,45.7476563442,0.11476276768836,-0.311336667158,-0.26591277373980005
92,46.24894864,-0.0044366976630000055,-0.11151138094864001,-0.3677400345544
93,46.750238798,-0.41508440651968004,-0.222542702896158,0.4536816851992
94,47.2515293974,-0.49552292488657995,-0.40071388869499996,0.95108849818
95,47.75282339420001,-0.21516934879780003,0.1228799461788,-2.2388262274706
96,48.254118399999996,-0.296453104874884,0.20937813889194,1.266386843632
97,48.75040052489796,-0.20332139004381633,0.17544831160253063,0.6028266212591836
98,49.246683139999995,-0.38508154741094797,-0.4004842788642,-0.53905116232118
99,49.747979581,-0.417878257697,-0.560162508142,-0.5497013511152
100,50.2492764972,-0.45808420256239996,-0.582936028776,-0.0648032058788
101,50.7505742772,-0.1252669021558,-1.3744274332059998,-0.6234956333757999
102,51.251872717400005,0.336386761,-2.8156357849,0.3409363045002
103,51.7531715772,0.11454734220320001,-3.1602389192800002,-0.0067969671745999995
104,52.24945837734694,-0.7307611628373469,-3.2890767995714287,-0.25285775738163263
105,52.7457453774,-0.35105694946652,-2.9819860618600003,-0.08774708368276
106,53.2470458774,-0.0243816114752,-2.20454882898,0.026033125525599995
107,53.7483474314,-0.23878465563568,-1.926339879706,-0.4388712375366
108,54.249649829999996,-0.237783210895,-0.41192468335498,0.06080504354246
109,54.75095184,-0.2457198343698,-0.13576651046424,-0.027078128254200005
110,55.25225398,-0.19664088005629998,-0.08683187603169999,0.0993312014226
111,55.753557359999995,-0.0173147713345,-0.058959176958005795,0.050822934260534
112,56.249848459183674,0.624456203987551,0.530702460947551,-0.010591718028448981
113,56.746139412800005,2.005632017543,0.29696505783273996,-0.006164929955642
114,57.24744402,1.8314787716158,-0.05017450435962,-0.1602770342304
115,57.748748908799996,2.08973292002,-0.4663222771028,-0.025670223971160002
116,58.25005418,1.4533926005559998,-0.619969206126,0.026260897986599994
117,58.751360745599996,0.425588257372,-0.07972582940648,-0.0017461306278000043
118,59.252667866399996,1.3401792453210002,-0.03612482408925,-0.0387463523231
119,59.753974651600004,2.38962980176,0.0332022161313,0.048290715617320006
120,60.250268668367355,2.614554806163265,0.40375803274326527,0.07272765636734696
121,60.7465638786,1.67361647592,0.3525946708612,-0.01532282742087999
122,61.24787344680001,-1.1610639878758,0.18141590286884,-0.018024966107996407
123,61.7491836014,-3.76925595794,0.18169287086021602,-0.1164675778716
124,62.25049445,-4.77269443752,-0.450128072748,-0.44171795449999995
125,62.7518057454,-5.12945604978,-0.490876451782,-0.2066479335676
126,63.2531175864,-5.77248689154,-0.559611684346,-0.264326751565
127,63.74941723244898,-5.672628532897959,-0.48547888017142854,-0.2063801255997959
128,64.24571765,-5.38858074416,-0.365898147018,-0.33525242493100005
129,64.7470321608,-5.38165806762,-0.349999118883,-0.15025268466702
130,65.24834763,-4.9610116774,-0.14017309497833,-0.329550255319638
131,65.7496635598,-4.97567917224,-0.37775831911432,-0.31009486144686
132,66.2509802376,-4.60248927538,-0.3100411971692,-0.28291341289759997
133,66.75229736680001,-2.535472909554,0.7007707689799401,-0.007677207033200002
134,67.2536150574,2.3903011015596,1.183964187682,-0.11822408144344002
135,67.74992042040816,3.505570878,1.0999271050959183,-0.04738243470632653
136,68.24622628,2.8164054451,1.52892520378,-0.1126574853506
137,68.7475462478,0.074924868443998,1.2964757982059998,0.019864406593599993
138,69.2488666772,-2.00436006312,-0.0644011959122,0.035113243348024
139,69.7501872962,-1.8556799009,0.1552094037154,0.04442603355291999
140,70.25150825,-1.4687991974299999,0.6205584819300001,0.12693578957762
141,70.752829795,-0.6115422522813599,0.93023476899,0.02052345796586
142,71.25415178,0.0538440414848,1.043725308602,0.1517512090852
143,71.75046068816326,0.49041894132204084,-0.3938121503102041,0.30907105098234694
144,72.24676999,0.421290537058,-0.1409821882704,0.07050546905822
145,72.7480931356,0.38893980050495996,0.3267729547834,0.03787416996126
146,73.24941689,0.36506633162599994,0.2705491987156,0.1886190381196
147,73.7507413428,0.32341502262243194,-0.358626927876,0.19050182986858
148,74.25206626,0.33949822196859997,-0.5004122538798,-0.6532891033176
149,74.7533904272,0.3138891313856,-0.585769123166,0.0908682572326
150,75.24970138244898,0.2353605447980408,-0.6658982915938775,0.057966611028979584
151,75.7460130906,0.19570426136544,-0.6826904640979999,-0.026321229560260003
152,76.247338,0.14964736188232,-0.695047542806,0.17436866022869998
153,76.7486632744,0.10607584846354,-0.666594286852,0.14234181118774
154,77.24998893,0.139609457736178,-0.494912139358,-0.08140548596444001
155,77.751314856,0.19689725634116,-0.26579146958174,-0.12994454454020002
156,78.2526410156,0.21186060462936,-0.10594916488138001,-0.09256099108514
157,78.7539672172,0.1444629083892,-0.03342499432164,-0.009770884479320004
158,79.25028030081633,0.12731913182385712,-0.03719591082928571,0.22054949236228572
159,79.7465940168,0.042683037042919994,-0.078898229846422,-0.009005624252859994
160,80.2479216074,0.111244579888,-0.1424049625692,-0.114681171625798
161,80.7492491256,0.08536856061657999,-0.22258197045008,-0.05017394011660001
162,81.25057694,0.07589907598944,-0.39022058046200003,0.099471055093612
163,81.7519053226,0.069291801424502,-0.24015354783172,-0.096405114385
164,82.25323396719999,0.061128597937400005,-0.15692622004784,-0.026521637033200002
165,82.74954948265307,0.3443252472909592,0.3244748656489796,0.023993190250265306
166,83.24586544,0.23771647042925997,0.2026179930709,0.13149568222539998
167,83.7471948722,-0.06087756455468,-0.1266145793604,-0.11082038375206
168,84.24852450739999,-0.08597612758450002,-0.1865412351752,-0.015690301541180004
169,84.7498544404,-0.04832819983004,-0.15802678882638,0.053625691834000004
170,85.25118461,-0.09054891224480001,-0.2721276052828,0.09524002157768001
171,85.7525151122,-0.06006912485829399,-0.337623975924,0.01513875706486
172,86.2538459974,0.283415287272906,-0.38194811444599996,-0.04500111891459999
173,86.75016364836733,1.0980749212408163,-0.36752976263673465,-0.08965143160367348
174,87.24648132,1.6407335404380001,-0.4075704826044,-0.0459752416593
175,87.74781327000001,2.063192764886,-0.34029476915990403,-0.15729765565391998
176,88.24914573,1.719032425604,-0.11039029912954,-0.01319399653477
177,88.75047836600001,1.738416015668,0.5108118677019999,0.21129256407294
178,89.25181145799999,1.6264285144339998,0.352116391286,0.10209974108908
179,89.753144116,1.30473864333,-0.177527609709,-0.1806638427658
180,90.2494637134694,1.2906603865812245,-0.361893957392449,-0.1490413265387755
181,90.74578384419999,1.3275270919339999,-0.3203270795346,-0.08090684709628
182,91.24711778700001,1.3882287640000002,-0.4243389420034,0.17711534300784
183,91.7484518676,1.36945263976,-0.34311691756,-0.030129953818580003
184,92.2497860866,-0.06034014312128,0.0253240684342,0.2361662569252
185,92.75112136780001,-0.4066963501916,0.1446930803836,-0.36024291009178
186,93.25245750719999,-0.8515815805992,0.0133057843364968,0.23450425605724
187,93.75379413139999,-0.71532135391,-0.18942323529907998,0.12550934962794
188,94.25011815306122,-0.6468860042806939,-0.2930217525553061,-0.014441238418489797
189,94.74644237759999,-0.578883735118,-0.09074039617594,-0.143555833471636
190,95.2477801,-0.546410419720146,-0.007342226635417999,0.07822085841804
191,95.7491191724,-0.4870350357316,-0.05888788624528,-0.043367383474056
192,96.25045885,-0.47425035308786,-0.07487322147645341,0.20323409517736
193,96.751799416,-0.42508706840480004,-0.1300452416456,0.0616729223798
194,97.2531408672,-0.3858446174579,-0.08909633893756,-0.0966379622028
195,97.74946865999999,-0.33257041589693875,-0.18546334494665306,-0.07300326308916326
196,98.24579664999999,-0.32362628509052,-0.330647976494,0.04434568111262001
197,98.7471389504,-0.29108213543579997,-0.366417878242,-0.012681008608400005
198,99.24848193,-0.2647226570314,-0.2817483603016,-0.0008850111716000034
199,99.7498247864,-0.2188196838516,-0.27466574712,-0.052507938087199994
200,100.2511679,-0.23172265860676,-0.2159282110582,-0.188383126394
201,100.75251166800001,-0.18685441003019998,-0.28987881207112,0.3655907150286
202,101.25385584,-0.2048488596156,-0.41185284228279995,-0.06443954415216
203,101.75018680408164,1.8342176705938775,-0.4729382135632654,-0.0037627668011897984
204,102.24651812,2.3325064196,-0.588435422812,0.039855288457640005
205,102.74786329599999,1.641500277008,-0.240420173555,-0.5610263553538001
206,103.24920874,1.177818481898,-0.016683437957580004,-0.025472833656659997
207,103.75055499800001,1.3372064499940002,0.5615907461172001,0.33986897709220004
208,104.251901654,1.4649876211316002,0.743989673006,0.011528300220620003
209,104.753248232,1.4036454772240001,0.7499500363020001,-0.037812212839946006
210,105.2495815265306,1.3654757248857143,0.17504791748285717,0.0368685920655102
211,105.745915212,1.112471571196,-0.4854561972626,0.053320361921399995
212,106.247262694,0.9803062892219999,-0.610025644238,-0.11006653735767001
213,106.74861058799999,0.6789203570252,-0.632498604482,-0.011349468968419995
214,107.24995865999999,-0.2766279118867,-0.488121120972,0.2174937818557
215,107.751307464,-0.8877602312408,-0.475579345526,0.054419229156720005
216,108.25265671999999,-1.227360073386,-0.39909217924800006,-0.09712494171710001
217,108.754006312,-1.192391929386,-0.355462163699,0.0316408626512
218,109.25034227346939,-1.1148243736959185,-0.4029337345632653,0.020837459886714284
219,109.74667894599999,-0.889248088882,-0.429935484598,0.01873660734365999
220,110.24802996,-0.6411770426592,-0.429390939254,-0.02526855532482001
221,110.74938095600001,-0.6562339778169999,-0.47914470940000004,0.044539446147
222,111.2507324,-0.4890629736546,-0.23824967321958,0.0091847244831
223,111.752084136,-0.5401686678402,0.33842261057274003,-0.05272295190564
224,112.25343591999999,-0.6761072122902201,0.354393577724,0.0279369790051
225,112.74977531632653,-0.6038056775758776,0.08464534837163265,0.04669685466393878
226,113.24611555999999,-0.56646265405728,-0.1604659804195,-0.0651054016792
227,113.74746895599999,-0.6722831971642,-0.13845797286866002,0.042685972351900005
228,114.24882234,-0.47660240837198004,-0.081790988490104,0.010157993526409998
229,114.750176688,-0.28550964736448003,-0.020395103546312,-0.0647193451136
230,115.25153152000001,-0.1540342142386,0.15733964232258,0.11251366724763599
231,115.75288658400001,-0.1817570491618,0.1166212222238,0.05193339067532
232,116.25424206,-0.4112165117388,-0.010109243103568,-0.005263780478
233,116.75058425918367,-0.4221033698004082,-0.3142009490122449,-0.056111635556918366
234,117.24692655999999,-0.243071746621176,-0.37952800158800004,-0.01714807087348
235,117.74828312,-0.012329079685599993,-0.289753595408,-0.007109921871939999
236,118.24964022,0.25603508804154,-0.27163225841599997,-0.09609405419624001
237,118.75099714800001,0.31493981096902,-0.2870873308556,-0.10201743569079999
238,119.25235412800001,0.23753791997534002,-0.2691176048566,-0.13546119371982
239,119.75371157400001,0.2356365377698,-0.577075789948,-0.0130365543906
240,120.25005562040816,0.18134344994469384,-1.5846847998653062,0.03060059166306122
241,120.746400476,0.188676044466,-1.7882987351,0.17579580184659999
242,121.24775984,0.1084992997158,-0.37816405448810003,-0.22486448953962002
243,121.749118764,0.020387842758120004,-0.3877333993138,-0.19434722786119998
244,122.25047764000001,-0.0888893637524,0.10505881080804,-0.14521851260199994
245,122.751837696,0.0003574801280800005,0.477277441278332,-0.33188596071459997
246,123.2531982,0.056825568172,0.15781662966645998,0.4589820107605
247,123.74954514081632,0.15057884778067346,0.09380342757532652,-0.10376275580832653
248,124.24589239999999,0.16462200113720002,-0.16996364130585997,-0.21088959735904
249,124.74725359199999,0.12728532570828002,-1.12942078704,-0.08700923523272
250,125.24861496,0.20597764190679999,-1.45380611194,0.02249269494896
251,125.749977112,0.198480652835,-1.063455546498,-0.21039991643339997
252,126.25134004,0.0289362413563,0.3717176410244,0.07009164991200001
253,126.75270266199999,-0.038880033561079996,0.5035505146420001,0.044385103050159996
254,127.25406505999999,-0.02291687975042,0.586477925574,0.2582865427196
255,127.75041515918369,0.9883425831469387,0.4191140937763265,0.0879131259955102
256,128.24676585999998,2.139550653538,0.3185247571668,0.0008511090144000011
257,128.74813034000002,2.43279492998,0.15108983344304,0.11835998243340001
258,129.24949528,1.2418265322668,0.15067088190142,0.0451079241461
259,129.75086072800002,-1.370704727381,0.2360715963522,0.02622636433552
260,130.25222685999998,-3.7381360002600004,-0.03666399803432,-0.09839417342067999
261,130.753593038,-4.27357814996,0.15698334734777,-0.1991980311946
262,131.24994594285712,-4.314204192,0.31586784998,-0.13741545084661225
263,131.74629941999999,-3.69603116522,0.37560012496746,-0.091532372293742
264,132.24766688,-1.4426602072739998,0.6665143049860001,0.24172243327254
265,132.74903446,1.3848554723818,0.8864427563620001,0.0014965714510799932
266,133.25040262000002,2.91708374864,0.883635896932,0.243574679179954
267,133.75177095200002,2.9064907573800003,1.000629422332,0.0697823087994
268,134.25313942,1.4342711228675362,1.3110595521459998,-0.03489440545618
269,134.74949483265306,0.21874772413163265,1.5623715175918367,-0.0004911541790612288
270,135.245850736,0.01869681526854,1.7558544358800001,0.05010279117334
271,135.747221116,-0.12222105575568,1.65681201958,0.1629138828972
272,136.24859202,-0.011633444938701998,1.47963180464,0.102138250857542
273,136.74996371999998,-0.0051249914346799975,1.386078609774,0.07559101472365999
274,137.25133598,0.1723905162038,1.3196305339,0.07855853512899999
275,137.75270888,0.29462694484566,1.2451419853599999,-0.0917483567472
276,138.25408248,-0.11936449059102,0.3981834331102,0.11047675459814
277,138.75044235918367,-0.2158966961826939,-0.9563722135816326,0.11509597236183673
278,139.24680214,-0.14730984232,-0.974753162226,-0.08141870066139999
279,139.7481766,-0.0717112045816,-1.314783591198,-0.21513777495214
280,140.249551562,0.0363565729946,-3.1446223218799996,0.0763679693272
281,140.75092639000002,0.07297651664,-3.03009341184,-0.49111304546580004
282,141.25230159999998,0.039605661154280006,-2.8507709173799998,-0.0396574420908
283,141.75367712,-0.026777083611059998,-1.553446971006,-0.021549071286599997
284,142.25003899387755,-0.10617016077216328,-0.3251481777471429,0.0042211049838775504
285,142.746401478,-0.1337974748474,-0.06472834105706,-0.13522662681298
286,143.24777804,0.0378229936484,0.26915926187814,-0.05800822673862001
287,143.749154986,0.256531235984762,0.5812035601659999,0.36133617567980003
288,144.25053262,0.07764688887900001,0.75621108498,-0.3069965972896
289,144.75191004,-0.5012799311406,0.762038308276,0.2079340169616
290,145.2532877,-0.19347916466200002,0.908268552204,0.052662105782319994
291,145.7496519408163,-0.19539565796061223,0.4453139165441428,0.050610789875306116
292,146.2460164,-0.12072734426042601,-0.2984602003766,0.03547471822072
293,146.7473951,-0.1342722947992,-0.4483701753218,0.060064528788560015
294,147.24877406,-0.03386151875268,-0.263653767739,-0.32971886561818003
295,147.75015329800001,-0.024185261053300003,-0.346741880632,0.22778594559778
296,148.25153286,0.1033480997132,-0.44053794545400005,-0.0014950745712999992
297,148.75291253,0.011177118993719995,-0.34328874895420003,-0.1071460518768
298,149.25429192,0.05735985676736,-0.219205158816622,-0.006677719083040003
299,149.75065815714285,-0.047175575289183674,-0.14960638758142855,-0.14418865066918368
300,150.24702489999999,-0.05551984617014,-0.15597775123962,0.04445328157912
301,150.748405578,-0.2523439162142,-0.14034913125684,0.08961206480299999
302,151.2497868,-0.13947260073280002,-0.08233922124599999,0.2553839848592
303,151.751168342,-0.07455982205678,0.068106324319,-0.41760035342732005
304,152.25255022,0.04262482289516,0.18467359939712,0.18976630861983998
305,152.75393252199999,0.05021202191514,0.2738350521954,0.05345960751394
306,153.25030126938776,0.06635238603732653,0.2928146608010204,-0.06738030603061225
307,153.74667024800002,0.019924269660857998,0.24945099347959998,0.067863088911654
308,154.24805354,-0.0026760612015399965,0.18963874356440003,0.17570265569540003
309,154.749436546,-0.1072021435336,0.16796875185579999,-0.256513000354
310,155.250819716,-0.07710055930694,0.073187321555908,0.1347819109774
311,155.75220335,-0.04275445639238001,-0.01110245480564,0.017188814270559998
312,156.25358746,-0.0548750678614,-0.2276531122038,-0.040300904782140004
313,156.74995748979592,-0.04582221709808164,-0.3238395820793878,-0.057617508422244904
314,157.24632752,-0.4432933299864,-0.314494716542,0.09445257703256
315,157.747712204,-0.6738370494188,-0.29443896931040003,-0.08473892512699999
316,158.24909746,-0.6224149275774,0.0030899640292000002,0.030088181304800003
317,158.75048258799998,-0.4366353463558,0.01669956238862,-0.021839876706000003
318,159.2518678,0.14930928245984,-0.009063396956683997,0.012704245452199992
319,159.75325340400002,1.036301940219718,0.0034292143733020007,0.06771042979034
320,160.24962535306122,1.1016694015714286,-0.15324552157020407,-0.15233581488979592
321,160.745997552,0.724812718246,-0.2410321460704,0.034820227685199996
322,161.24738404,0.5159509831542001,-0.25470799557,-0.1444948612288
323,161.748770516,0.033467008211748,-0.30313720399800004,0.1422647331834
324,162.25015729999998,0.32499162938388,-0.3191592421958,-0.026913435566399996
325,162.751544168,0.7396678161114001,-0.16230549765,0.04002236682655999
326,163.25293108,0.8410615483220001,-0.10485024720976201,-0.18659026480399998
327,163.754318412,0.469399485792056,0.04048161297247,0.07275129104506001
328,164.25069212244898,-0.16182336521295917,0.13070477819636736,0.044841473455510206
329,164.74706569000003,-0.76446311638776,0.17426567175073998,-0.152646160516
330,165.24845290000002,-0.12882292104655998,0.08444728647592,0.1608818351318
331,165.7498406,-0.20116427355758,-0.07895735835086,-0.1377744574819
332,166.25122876,-0.04933583437539999,-0.19636005729928002,0.16985670303311998
333,166.752616676,-0.13940985682098,-0.3096561009966,-0.1185024673825
334,167.25400504,-0.0436300204755,-0.7742413523339999,0.1540865519302
335,167.75037982040814,-0.07600053677636735,-1.0543592314081633,-0.0617313706677551
336,168.24675491000002,-0.0854421507264,-0.70144806367,-0.06409105009852001
337,168.748143892,-0.03272828331812,-0.5273753544112,-0.1513920964814
338,169.24953236000002,0.069371138447666,-0.737218339638,-0.11923411779319998
339,169.75092171600002,0.186252920294944,-0.8198576640999999,-0.07079121079944
340,170.25231146,-0.08930143147903999,-1.360071173976,-0.020395310393759997
341,170.75370098399998,-0.08447549326114,-0.7964907534140001,0.01414779435484
342,171.25007671836735,-0.01433460486018367,0.36693815493489795,0.060535066139122455
343,171.746452656,-0.025273929424359992,-0.18127958089104,-0.03169823552414
344,172.2478429,-0.025605138053860003,-3.2035650622999996,-0.20118939403004
345,172.74923296,-0.11139910490008001,-0.43770498115,0.03825855421820001
346,173.2506231,-0.09942111232180001,0.626798816118,0.11314784455929999
347,173.752013314,-0.056801749719399997,1.839160891024,0.15627426427257998
348,174.25340368000002,0.5671794861316,2.2116934541399997,0.2259154329968
349,174.74978015510203,1.724661544422449,1.5244359556348979,0.08334748875449692
350,175.246156776,1.979376389966,0.41260476572043997,0.0433434683578
351,175.747547312,1.187472958958,0.6000341907448,-0.06265194507550001
352,176.24893776000002,-1.933731908188,0.14358550006158,-0.2046719255092
353,176.75032863,-3.92296561582,-0.3740866404422,-0.092662732631
354,177.25171926,-4.44763346382,-0.53790959727,-0.17415003282732003
355,177.75311039200002,-4.28982178534,-0.2715071133772,-0.13390099285444002
356,178.2494875857143,-5.008248343959184,-0.40021548855473466,-0.2622853067287755
357,178.745865048,-5.00870208874,-0.430316252358,-0.3443857991664
358,179.24725646,-5.11484892748,-0.39937094378399995,-0.26301021587848
359,179.748647328,-4.70245391158,0.214373773359936,-0.19613385629714
360,180.250038232,-2.13446600912,1.086211610256,0.1219775261104
361,180.751429272,1.0147298879,1.3793421949200002,0.08148780305740001
362,181.25282076,2.0896651103692,1.8894311318442,0.1930222487652
363,181.75421209200002,2.81580730426,2.19395221688,0.3529661671628
364,182.25058953265304,1.6437958303142857,2.1260660180612247,0.20037766039775512
365,182.74696727999998,1.2755168732420001,2.0103165398600003,-0.08757908148400001
366,183.2483594,0.449421339747268,0.6419376422424,0.07000713426682
367,183.74975103199998,-0.1093599471912,-0.33682459531001996,-0.15712012249256
368,184.25114246,-0.01481211128104,-0.73357537738,0.20399865371693998
369,184.752534216,-0.1162920841895,-0.6694014678400001,-0.16021269146999997
370,185.25392632,-0.030079752819199997,-0.563215940961,0.05508989310182
371,185.7503041877551,-0.053214523593918366,-0.7298708008061224,-0.0777597104734898
372,186.24668192000001,-0.0353626594422,-0.6502299219459999,-0.013201597913220004
373,186.74807388000002,-0.1767606977603,-0.5807455411920001,0.014020757747843999
374,187.24946582,-0.21462911651688799,-0.493379173372,-0.0991916868564
375,187.7508578,-0.2204024113106,-0.442907921366,0.004855095194799998
376,188.25224988000002,-0.24242530001134,-0.41146528591,-0.008869910390399997
377,188.753642164,-0.11310188635903601,-0.385108503078,-0.043012352218167994
378,189.25002049591836,-0.09934696576830612,-0.359944972277551,0.001762052469748985
379,189.74639939,-0.09020419736558,-0.301325596978,-0.046389493492
380,190.24779249,-0.0675154774238,-0.25185556297600004,0.02175540783408
381,190.749185846,-0.06315941761364,-0.2217345232496,-0.008133956449200003
382,191.25057998,-0.06023579151381999,-0.19865433807639998,0.003329813908480004
383,191.751973498,-0.04155812192228,0.027609170905220002,0.013002815974120008
384,192.253366152,-0.0277582906158,0.2299624970642,0.01674028605616
385,192.7497461836735,-0.03124547690367347,0.2394815415669388,0.010267233365979594
386,193.24612644,-0.01160144339452,0.2357170855094,0.02963561850386
387,193.74752071,-0.010638621128320001,0.1884704472218,0.03834870657762
388,194.24891572,-0.0209990690276,0.08948970816848399,-0.00016373373239999823
389,194.75030966999998,0.0019182602262599996,-0.058596576503379995,-0.015898579355000005
390,195.25170314,-0.007129731512000001,-0.1444071807677,0.01609730282562
391,195.75309739,-0.05085581972919999,-0.15838357204278,0.016899201677599996
392,196.24947786734697,-0.015552292928183676,-0.12226162628267348,-0.059468307279183674
393,196.74585854,-0.025029696937800005,-0.14610215556744,0.053437621982020005
394,197.24725406000002,0.06020895608184,-0.2171487888242,-0.009559425761983997
395,197.748648616,-0.0027347285038800016,-0.232209102573,-0.011095559481999999
396,198.25004213399998,0.04230167067604,-0.1990100592806,-0.05900901278356001
397,198.75143691000002,0.020353237109920003,-0.22476802218060002,0.0843685624829
398,199.2528325,0.008515423672800001,-0.303765955094,-0.011416466363000003
399,199.75422733,0.044866000717660004,-0.636393611692,-0.09656229924
400,200.25060804285715,0.014767108077551019,-0.8407543160020409,-0.05286746905979592
401,200.746989168,0.04422621555656,-1.35059824316,-0.06164890200539999
402,201.24838383,0.022198157540988,-1.58809153294,-0.05223855685804
403,201.74977925,-0.021093518736980003,-0.2203181390636,0.0332542497745
404,202.25117496,-0.041508889094240005,0.1457678161612,0.033180048604420004
405,202.75257072,-0.012806056437268,-0.00619444378416,0.020589227447339997
406,203.25396745999998,0.00406441019584,-0.1182319327942,0.0613937061344
407,203.7503494142857,-0.007265142723265297,-0.17865710687065303,0.022440456155714283
408,204.24673082,-0.015129745413997999,-0.2815193358302,0.04429464661882
409,204.74812708599998,-0.0028612059741959972,-0.2595574438072,-0.00014232123240000117
410,205.249523432,0.008307115159990002,-0.8961649261479999,-0.0090805271046
411,205.750920062,0.02035074181154,-1.5932481515399999,-0.031343309534060004
412,206.25231692,-0.011776851464740001,-0.21853802734760003,0.04798839122194
413,206.75371384,-0.030033135253254004,0.584363171856,0.07240582583538
414,207.25009742040817,-0.049197482799367344,2.124583784734694,0.15357586613787755
415,207.746480618,-0.0412319803144,2.16614241052,0.1510903684574
416,208.24787742,-0.041837713480398,2.2911981301399997,0.1545213508844904
417,208.749274964,-0.2236834437146,3.0341586620800003,0.171729425878648
418,209.25067294000002,-0.1220658607292,2.6948133061200004,0.271114070849
419,209.752070552,-0.06574347178166,0.068448923652894,0.056690755496742004
420,210.25346850000003,-0.07510659847086,1.0461892303224,0.14169217382618
421,210.74985226326532,-0.10137772315557143,1.5359392031836734,0.14340399012663263
422,211.24623536,-0.09859669310199999,1.9161270027200001,0.2461909105545
423,211.747633446,-0.09084966620306399,0.3893610445672,0.1338466488306
424,212.24903193999998,-0.037788016568960005,-1.019561010216,0.06512458055419999
425,212.75043024,-0.07369147408500001,-1.011446629902,-0.47556521716620004
426,213.25182892,-0.0690024401286,-0.8211219658740001,-0.1417862204514
427,213.753227434,-0.13967804082107999,-0.62202227135314,-0.4584244436812
428,214.24961234285715,-0.10607855122020407,-0.7160958123661225,-0.26409491255028567
429,214.74599717,0.048807145259000005,-1.880422866138,-0.12759224473220002
430,215.24739654,0.04233045350886001,-1.4235550039379998,-0.3269813746514
431,215.7487951,0.4323609434556,-0.919506117912,-0.10670717162658
432,216.25019292000002,1.4306633561202,-0.34133929166326,-0.0789212612697
433,216.751591708,2.7862761257199997,0.09927413697738001,-0.37207928838396
434,217.252991,4.25317264212,-0.10592708433720001,0.01991520721819999
435,217.74937600816327,5.067820511,0.22395873083142856,0.015108298300816341
436,218.245761,4.81636326244,0.4197939538838,-0.12808552757848
437,218.747160152,3.04844679256,1.361429413456,0.253921210311904
438,219.248560272,1.7355986428860002,2.17625645926,0.0948799266414
439,219.749960256,0.1928234467444,2.50504381512,0.2514596845496
440,220.25135999999998,0.0159594154547,2.3647688529,0.25249061885060003
441,220.75275997600002,-0.31945562411436,1.4487364945013999,-0.07536721837899998
442,221.25416052,-0.39627545932744396,-0.599965519574,0.12016667851599999
443,221.75054714693874,-0.5785235442555102,0.04790060727938774,-0.010326660175897959
444,222.24693436,-0.4077687002932,0.2860501568592,0.11185210157391999
445,222.748335348,-0.274417319032,-0.3036423033865,-0.18089927506186998
446,223.24973666000002,-0.18143055800698002,-0.640366276528,0.10648356238411999
447,223.75113784799998,-0.011088958333380004,-0.653402941664,-0.12578499906239998
448,224.2525387,-0.033816713552179994,-0.623072095432,0.13038770503374
449,224.753939652,-0.057876089897059994,-0.504447457778,-0.1276992254358
450,225.25032639387754,-0.05537315198714286,-0.42454293891632655,-0.07086337306918368
451,225.74671342000002,0.011062545364800003,-0.426235506868,0.060333290184179995
452,226.24811462000002,0.012218595449600005,-0.3861625594468,-0.006921056808600001
453,226.74951598200002,0.025704239035280005,-0.34511877908836,-0.01315028274706
454,227.25091731,0.042745472864800016,-0.35976888143088,0.050012042399959995
455,227.75231871600002,0.0520136174004,-0.31457209640280004,-0.05337699805572
456,228.25372024,-0.0967022417474,-0.30880667304788,-0.053153891707199995
457,228.75010769183672,-0.04876924884244899,-0.2679383291855102,0.030483718943673466
458,229.24649499999998,-0.11848057430820001,-0.247786703416,0.07914351396858
459,229.74789660599998,-0.048406798243218,-0.253035519402,-0.001947602283462001
460,230.24929843,-0.028874609603478003,-0.581406220286,0.0659991368992
461,230.75070022600002,0.04261556199819999,-1.3945275718119998,-0.07604234959146
462,231.25210216,0.008842424824400001,-1.9478080152600001,-0.08763252503631999
463,231.753503712,-0.005719033354260006,-1.6502251107,-0.0979364767726
464,232.2498912877551,-0.004896355475775507,-0.6612600012183673,-0.07780408965677552
465,232.74627884,-0.005594895864200006,-0.4259682803442,0.1155182590212
466,233.24768048,-0.16637144200879997,0.2607166791612,0.011487872564119999
467,233.749082338,-0.48569405431988,0.5704629691034,-0.016809891309862005
468,234.25048403199997,-0.900596218076,1.0068445616326,0.1426972400248
469,234.75188594600002,-1.511494812554,0.9389625876858,-0.12712015231244
470,235.253288432,-2.11437751604,1.3612341618019999,0.0781370327182
471,235.74967647755102,-2.2168232595918367,1.6624251488163264,-0.014783145407142857
472,236.24606366,-2.3599223151,1.53889781278,0.03827406102759999
473,236.74746586599997,-2.92083666702,0.7985573070958,-0.0590916105482
474,237.24886847999997,-3.1431478646200004,0.47794232232600004,0.06382580870766
475,237.750270756,-2.7498246389000003,0.833932130014,-0.023421571943400003
476,238.25167304,-1.738562422612,1.1610977022539999,0.33662342159220005
477,238.75307559,-0.8918871551034,1.511727760556,-0.12924536956340002
478,239.24946461224488,-0.39305739279224494,1.4440540456020408,0.12349910146791837
479,239.74585284,0.05013865214311,-0.036825720306120004,-0.06813973237203999
480,240.24725542,0.1176000768242,0.33308788945398,-0.0085586397182
481,240.74865766,0.1682544972458,0.978777392208,0.0136409109234
482,241.25005990000002,0.2319346664327,0.9381688091060001,0.0426872821152
483,241.751462788,0.3989376841132,0.35780537525912004,0.03873151209074
484,242.25286540000002,0.26851113748796,-0.48330457794799997,0.1065843216098
485,242.754268962,-0.42704099812508,-0.64380173425,0.18920740835775998
486,243.25065986734694,-1.4753271297081634,-0.5984447916918367,0.04423157306818776
487,243.74704982,-0.8439271177764001,-0.453956765378,0.0808849902066
488,244.2484534,0.739993083238,-0.34831978063999997,0.2314575760148
489,244.74985768,1.446104353872,-0.38841457947400004,0.21488391223882
490,245.25126196000002,0.975665987513,-0.27386414940520004,0.03730447572804001
491,245.7526666,0.5310318540914001,-0.1773313863736,0.11989271307100001
492,246.2540717,0.056697090588960004,-0.1753306097422,-0.04394939192060001
493,246.7504627734694,-0.02620723267330612,-0.2433207637020408,0.057486506894081635
494,247.24685398000003,-0.13870729210820001,-0.2701376735476,0.03942961117660001
495,247.7482595,-0.03693428920764,-0.26671756622522,-0.016368414825619997
496,248.24966560000001,-0.006096250752600003,-0.21106611767326,0.011374717248400001
497,248.75107152,-0.0118443612252,-0.2002117373882,-0.08360842444526
498,249.25247714,0.008088563781400004,-0.1894698412572,-0.015355513361400003
499,249.75388336,-0.011266552894,-0.28209040633,-0.03172970524346
500,250.25027551224488,-0.014250827649795914,-0.4225342081612245,-0.08421841362918367
501,250.74666788,0.005852553432636,-0.387543991184,0.04535648928536
502,251.248073824,0.0927599911996,-0.300122796214,-0.10242109236364
503,251.749480532,0.0480336943504,-0.2500338446666,0.0052899058402
504,252.250888302,0.024163828088206,-0.212159979515,0.0019312885507800023
505,252.75229532,0.05086515224694,-0.18963929686259998,-0.02079832388358
506,253.25370254,0.09670347549074,-0.16028051404639998,0.019877059972199997
507,253.7500957489796,0.13695057427340815,-0.1846932047438653,-0.0002284948666938819
508,254.24648825399998,0.08370109605586,-0.3040902416726,0.0540980883827
509,254.7478954,-0.0849415346068,-1.627298770886,-0.09337436220294
510,255.24930243999998,-0.58526140833886,-2.3169684847400003,-0.112033996758374
511,255.75070952000002,-0.35395505090013996,-2.36954463354,-0.19652994668880003
512,256.252116976,-0.39771326133339996,-1.8274515961200002,-0.0784167284444
513,256.75352456,-0.15495040639404,-1.50650667484,-0.10764218816746
514,257.249918522449,-0.023909696683210205,-0.3221881009214286,0.0449374274555102
515,257.7463123,0.008305027836339997,0.545996904632,0.011016680542584
516,258.247719434,0.33357124052264,0.590787941838,0.056206500789399996
517,258.74912732,0.6906235383364,1.153079250208,0.09283941211800002
518,259.250535378,0.857727107283,1.286215665466,0.06037563572106
519,259.75194344,0.3791674684924,1.53606821794,0.10547299980544
520,260.25335158,-0.5808212239,1.73144203862,0.140821020565954
521,260.74974574489795,-1.2919300222285715,1.633986618836735,0.05660022413346939
522,261.246140232,-1.18955762106,1.4773314311199999,0.12961789570082
523,261.7475487,-0.8486683340636,1.29132487922,0.0378509682164
524,262.248957124,0.40537464554056,0.71006601242,-0.004806902430160012
525,262.75036558,0.881209495384,0.2047082264866,0.29777642699834
526,263.251774826,0.7664990124259999,-0.06340110320848,0.002232583884619995
527,263.75318358,0.5113757639504,-0.43677440154400005,-0.04607759130223
528,264.249577777551,0.10792975765959183,-0.5128805585938775,-0.007194724403061225
529,264.74597278,-0.30525140724658,-0.43959340451,-0.0361782903026
530,265.247382004,-0.2999897701316,-0.5426304857,0.06475679069465999
531,265.74879153999996,-0.3501579400372,-1.036475451876,-0.03234312495446001
532,266.25020218000003,-0.26846951756206,-1.83973248996,-0.09209135440939999
533,266.7516122,-0.010042511923300001,-2.06406834444,-0.1230886023404
534,267.253021972,0.0976071334436,-1.5801115498440002,-0.0813242681236
535,267.7494181387755,0.096445921555,-0.11823362558995919,0.0505405158895102
536,268.245814324,-0.013351822955200002,0.014465130055360001,0.0599357379962
537,268.74722488,-0.084786233298824,0.02106548316467,0.0559403472232
538,269.248635364,-0.06691345011672,-1.0482623999878,-0.057766771826140005
539,269.75004586,-0.3522031572248,-1.579342449446,-0.1157560185282
540,270.25145642,-0.632469983632,0.07892630012935001,-0.004484475265200004
541,270.7528671,-0.4027307228538,0.28381004688600003,-0.033585167099360005
542,271.25427794399997,-0.2297814103116,0.828932164202,-0.025643665918579996
543,271.7506749,-0.04588323498057755,0.7887189191591836,-0.03863850844081633
544,272.247072322,0.4483453991978,0.566007289882,0.21399874901978
545,272.74848368,1.114956253418,0.09087601795008,0.020667977748404006
546,273.249894696,1.3149667961259999,-0.05522811251006,-0.008168794158599996
547,273.75130637999996,0.9299113769912001,0.18107560076462,0.026101865424200007
548,274.252717968,0.038321207127453995,0.673150417472,0.02820191631332
549,274.75412991400003,-0.928854140484,0.7239221220800001,0.06364889534828
550,275.250528122449,-0.9196840364489797,0.7882350225224489,0.06271434727816326
551,275.7469262,-0.960252007452,1.055487348384,0.05753571323888
552,276.24833895,-0.87608247915,1.198869971252,0.04077051805304
553,276.74975126000004,-0.18495378363782,1.087159701188,0.06589504476252
554,277.251163734,0.26777192773812003,0.9518912799420001,0.029761029596339993
555,277.7525761,0.11401868445706001,0.936697523964,-0.0003077038626034006
556,278.253987916,-0.5167701552402,0.7856098642160001,0.07502164792954
557,278.7503861326531,-0.46680091111918365,0.6579475043122449,0.12782367829063265
558,279.246784688,-0.13027898839034,0.47888283746,0.18035094655279998
559,279.7481972,0.33126165072999997,0.17250753533336,0.06409741186952
560,280.249609766,1.2411321155000001,-0.3475188133328,0.1502735007389
561,280.751022356,1.49350225826,-1.15324151334,-0.08720792362237999
562,281.252435508,1.426682754068,-1.45011272706,0.0895364953726
563,281.75384818,1.37304834705,-1.3633592008,-0.151204821864
564,282.25024658163267,0.8636561741663266,-1.1922342405938775,-0.03171455784959184
565,282.7466453,-0.25732843655419996,-0.74373622655,-1.017905110822
566,283.248057932,-1.294930917072,-0.5924632999642,-0.13074085346216
567,283.74947104,-2.29424333954,-0.534973317068,0.3547032579668
568,284.25088396399997,-2.038987271314,-0.3180764032692,-1.22796731553218
569,284.7522971,-0.7317431694134,-0.24245539563832,0.6069977143734
570,285.253710568,0.80900758939,-0.3571207571094,0.21927597810399999
571,285.75010966938777,0.28171734419938776,-0.2800819594122449,0.3215887702602041
572,286.246508462,0.07698560544960001,-0.25715378208379996,0.5527219642444
573,286.7479215,0.21249459775466,-0.32687812399000005,0.0499904778594
574,287.2493351,0.12135503336304,-0.517122417082,-0.07061013420788
575,287.75074844,-0.13846650514542,-0.578119964498,0.199542572516214
576,288.25216192,-0.37625264564722,-0.548340144876,0.13610390796236
577,288.7535755,-0.402102910405,-1.077910892724,0.41597475727342004
578,289.2499751020408,-0.20720366295283674,-2.3130519764081634,0.015696719151224493
579,289.74637481999997,-0.30721349838559997,-2.45187421348,-0.150946760854
580,290.247788564,-0.1904069993816,-2.3509029996,-0.1486944367586
581,290.7492027,-0.21208994504019998,-1.0829981530686,-0.1368090471042
582,291.25061762400003,-0.1362849130946,-0.1023146847434,-0.2667630407234
583,291.75203216,-0.11327622218174,0.161276987769,-0.8782762441040001
584,292.25344582,-0.12842042211052,0.54188061827972,1.0722417890459999
585,292.7498463795919,-0.01907105443020408,0.7772026056571428,-0.4917481991793878
586,293.24624805999997,-0.1940246550674,0.698773376196,0.1284914062056
587,293.74766324,-0.1309967886568,0.49331912539199996,-0.2267925621152
588,294.24907852,-0.12790549766862,0.055448268949140005,0.25077084744814004
589,294.75049396,-0.16499064798420002,0.008248015155998,0.12554388328468
590,295.25190903,0.010291263268839996,0.011872721677739999,-0.482236761625
591,295.7533247,-0.04840877349524,0.19058821517574198,0.3668574090456
592,296.2497267081633,0.06320018787706122,0.27894833047183676,0.18902549404285715
593,296.74612857200003,0.006997617324894001,0.486369177486,-0.048707318071539996
594,297.247544696,-0.003015372555480003,0.529896101514,-0.06516319556691999
595,297.748961118,-0.002262424416720002,0.483243894816,0.11291905466959998
596,298.250377206,0.019515658190599996,0.467040373658,0.04602054587816
597,298.75179384,-0.030948548655840003,0.35156327611279997,-0.003258360926840003
598,299.25321049999997,-0.013399288622399998,0.259865472936,-0.1562593538822
599,299.7496129387755,-0.12686002247010206,0.1368916969457143,0.11604566760467346
600,300.246014632,-0.18094024466758,-0.2155659533886,0.12483306066420001
601,300.74743124,-0.13888771435274,-0.14806409157004,-0.20466923578399998
602,301.24884833,-0.000487420973725996,-0.2635314432612,0.6563285561686
603,301.75026536,0.011857689959200002,-0.17831799612567997,-0.5139932003265042
604,302.25168324,-0.0073649386824799976,-0.11831877344425999,-0.1484273944258
605,302.75310066000003,0.11742586871152,-0.16637081160880002,0.2427077007946
606,303.2495030142857,0.10455594655714287,-0.21285478404485714,-0.07277567509183673
607,303.74590628000004,0.030141153238160003,-0.28031115050787997,0.25590815266354
608,304.247324928,0.009780842635819997,-0.31588413923520003,-0.10922032828795
609,304.74874286,-0.1312020705019,-0.7445751536240001,-0.15074503191000002
610,305.25016082,-0.0922843719172,-1.61027222342,-0.0661431070335
611,305.75157882,-0.04524762217359999,-1.1186785894692,-0.021644556311520003
612,306.25299667,-0.011972014708079999,-0.040508233885119996,-0.135794753988
613,306.74940069183674,-0.03588618487289796,0.08092619851408163,0.6874709269942858
614,307.245804804,0.02467645714514,0.50665496074838,-1.2744199589382001
615,307.74722335999996,0.015147922582120004,1.00379659227,1.0238615057641
616,308.248642014,0.013950507469278,1.21045078676,0.044681112493939995
617,308.750060872,0.0350630333156,1.044424933858,0.061406920835780004
618,309.25148006800003,0.0042435294162,0.4706609739676,0.053436581178800006
619,309.75289932,-0.04651523420808,-0.058376522385999996,0.013636303314339997
620,310.24930404489794,-0.054533621969993874,-0.01477401249110204,0.15236838030922448
621,310.745709394,-0.0270060543658,0.014887319858682,-0.074861013229
622,311.247129734,-0.011028151311200005,-0.017571733071230004,0.10672375431388
623,311.7485498,-0.0005640392414500003,0.023377533264276003,-0.1515698518414
624,312.249969784,-0.0698245558592,0.022137645438756,0.097885699547
625,312.75139004,0.14676982683252,0.15775674540794,-0.557477481327178
626,313.25281093999996,-0.10363714328964,0.11653665175442,0.09836570920146
627,313.75423166,0.024631597299320004,0.02781835943168,0.1574819014048
628,314.250638155102,0.06342402175020408,-0.06655179884055917,0.18713917037367347
629,314.74704462,0.055946997712,-0.182003895218756,-0.06359712410860001
630,315.248465206,0.06215352184154,-0.29608774306360003,0.08067940209918
631,315.74988611000003,0.034926484746280004,-0.31579559631,-0.008847223201800003
632,316.25130729,-0.1238555885618,-0.34810014863,-0.055378020497359993
633,316.75272875999997,-0.061218735877799996,-0.3075580389022,-0.016150103184999997
634,317.254150616,-0.025590277544060003,-0.2232830209004,0.11442141490542002
635,317.75055836938776,0.07572366114468368,-0.17496701036612247,-0.058029331373428576
636,318.246966562,0.039339272785279995,-0.11787593822238,-0.049288390977259997
637,318.748388972,0.0349552545148,-0.15672619557382,-0.011336137331680003
638,319.249810816,0.0342743557452,-0.18842996401937998,0.02482346528204
639,319.75123332,0.0253465637667,-0.12412294409208,-0.14319481469474002
640,320.25265602,0.012634447234919997,-0.05021521559476,-0.07343780092954001
641,320.7540788,-0.03301766777844,-0.02275477592784,-0.06593501633474401
642,321.2504873673469,-0.10366944498632653,0.0009717386282244906,0.13379261149489793
643,321.74689616,-0.021004438252760008,-0.02716562451474,-0.20895184178504
644,322.24831934,-0.0920427348282,0.09823224354888,0.47514987777293993
645,322.74974274,0.022359612322519994,0.20003637572959998,-0.0686893589426
646,323.251167068,-0.007465161416219998,0.47945588213199997,-0.009307644651179997
647,323.75259114,0.009064211177420007,0.40162739674599995,0.08601631955546399
648,324.25401469,0.04491028752839999,0.33499547416200004,0.19467016957845998
649,324.7504243122449,0.07605199907957143,0.3200716825489796,-0.20244866066816328
650,325.246834492,-0.059216352847980006,0.352181480306,0.16798637755880003
651,325.74825852000004,0.0736637841254,0.303505025284,-0.019362961081179995
652,326.249682308,-0.02636596660942,0.220189501025,0.10573590230112
653,326.75110646,0.0049851416436000025,-0.01914208031926,-0.05183353194096
654,327.252530126,-0.11349434910419999,-0.337162618196,-0.0439979939757
655,327.75395474,-0.09377728502788,-0.358744678004,0.0761635974526
656,328.2503663489796,-0.06420831684083673,-0.455094971844898,0.18545665197387756
657,328.7467775,0.0707024990358,-0.43208187759399996,-0.210256308815
658,329.248201156,0.08365253803968599,-0.36135821821999997,-0.12170154922930002
659,329.74962553999995,0.064186702506252,-0.31436410071,0.0005586429852399993
660,330.251049928,0.04333368341148001,-0.2595509124628,-0.005221610353780002
661,330.75247444,-0.004115174260600002,-0.236476406408,-0.0586435618004
662,331.253899436,-0.005721978524180005,-0.20823476703139998,-0.006649161273739998
663,331.7503104081633,-0.031216033113714285,0.022247359330061226,0.04113602129169387
664,332.24672176400003,-0.0243461552334,0.16568427029016,-0.059356840248862
665,332.74814762,0.03135117001836,0.618918599606,0.13586394994374001
666,333.249573216,-0.012027788045380003,0.4631199317738,-0.09148337259600002
667,333.75099950000003,-0.026313373832391997,0.543834248329,0.407637516557
668,334.252426856,-0.008060019861730001,0.366042024336,-0.2881483666328
669,334.75385378,-0.020044376590999998,-0.02949929140626,0.14408132275378
670,335.2502661448979,-0.08089402540277552,-0.07660796262690817,-0.1413950300234694
671,335.74667906,-0.049781298834302004,-0.08055122382554,0.06853567074878
672,336.24810693,-0.0313314192258,-0.17912615222354,0.011365431867019994
673,336.7495347,-0.0417809655226,-0.17570216452686002,-0.05374424997576
674,337.25096168000005,0.0123880046336,-0.251612725185,0.166569632291
675,337.75238942000004,-0.028070709180199997,-0.286415705054,0.07270594003061401
676,338.25381832,-0.060358849822960005,-0.234398686026,-0.01905650850122
677,338.7502323795918,0.03197394562285714,-0.1856654766287755,-0.04667544668042857
678,339.24664580800004,0.08663572789834001,-0.294386075395,-0.04676858017513999
679,339.74807401,0.015290684548739995,-0.5827034806320001,0.026023325625799995
680,340.24950268,0.021683217380713996,-1.082097845518,-0.08776722150053999
681,340.75093128000003,0.09291046528345999,-1.465257405866,-0.022299538030800002
682,341.252359978,0.033717167257374,-0.566140119614,0.04859795174672
683,341.75378881999995,0.010208460848839999,-0.81412452326,-0.026606971296
684,342.2502032469388,-0.056011316660285713,-0.787856429467347,-0.1605157473997959
685,342.74661804000004,-0.0436305615289,-1.103984697292,0.1588167739818
686,343.248047632,0.038605810478359995,-0.791576814782,-0.0065774276376720005
687,343.74947715,0.05906132964961999,0.26291282173159997,0.11427746815674
688,344.250906894,-0.0012002177588200003,0.663799675184,0.03347506403073999
689,344.75233646,-0.03071952929958,0.680911738904,0.043013369646792005
690,345.253765738,-0.011400002072000003,0.494595062402,0.08112905298734001
691,345.7501808387755,-0.011901032301236736,0.947575104422449,0.27331325090163267
692,346.2465966,0.3615623854442,0.971578578794,0.0761572590772
693,346.74802645999995,1.258584039782,0.615374710354,0.0464838441646
694,347.249456,2.08527652598,0.1826708893031,0.12553338168039999
695,347.75088614,1.90878858046,-0.13065317154248,0.09183127026810001
696,348.25231668,1.186907671678,-0.17230660599783998,-0.077458755723328
697,348.75374736,-1.2937475648480001,0.1008388299658,-0.10077914743758001
698,349.25016363673467,-2.706447896163265,0.4920695663061224,0.005990030910979593
699,349.746580218,-3.2885504066999998,0.36301979226619996,-0.03315021611578001
700,350.24801125600004,-3.6380931693600003,0.5102395115164,-0.29025585512990004
701,350.7494425,-3.4127512488000002,0.445873294386,0.070541312486
702,351.25087404,-3.8663342095799997,0.22546066141680002,-0.1324395046914
703,351.75230574,-4.5558660161599995,-0.2963240560908,-0.3625718911626
704,352.25373787999996,-4.52494535502,-0.358940010094,-0.2078452679175
705,352.75015565510205,-4.5969376295102045,-0.48027370817755105,-0.13837551593016326
706,353.24657304,-4.1332656327,-0.37734165090780003,-0.18159801732614
707,353.74800518000006,-3.2370890997,-0.12477444451252,-0.18869333284706002
708,354.24943808000006,-0.2625468730004,0.6117830852128,-0.105433028232
709,354.75087076000005,2.65465890334,0.7554244685499999,0.026636651758030004
710,355.25230336,3.48267540232,0.907391650372,0.3236752302994313
711,355.7537361,3.30621535094,1.566858253678,0.14433159528508
712,356.2501543938775,1.3735851589880002,1.8461394707346939,0.011840599764861227
713,356.74657288000003,0.35835188181060007,1.6470681435,0.0899140617992
714,357.24800609199997,0.6344523724548,0.3712863306864,0.09422597404790001
715,357.74943924,0.2593882325082,-0.676946466042,0.0239913947996
716,358.250871794,0.10278185259838,0.7572643672021999,-0.02334862206534
717,358.752304936,-0.20038531748219998,0.977265287678,0.297182501887522
718,359.253738674,-0.3935512776502,0.961743410736,0.2086656323004
719,359.7501577734694,-0.9311910025877551,0.9313082250714286,-0.14199982305938777
720,360.24657658999996,-0.8808399521582,-0.1130183890176,0.035446090218819996
721,360.7480096,-0.5791051998682,-0.54559281012116,0.13017396590039998
722,361.249442366,0.17774175082178,-0.03986873340962001,0.7749952250472001
723,361.75087549999995,0.824144990258,0.5885027732279999,-0.947433158057522
724,362.25230971800005,0.963884774368,0.65204546486,-0.8301304575086
725,362.75374367999996,0.8362982182754,0.29068898490398,1.2035248547608
726,363.25016232244894,0.8143528884530612,-0.197362653289449,0.09745530465742858
727,363.74658194000006,0.5169636797946,-0.8301517574320001,0.17037112936539997
728,364.24801688599996,0.592976479035,-0.7091788977160001,-0.05084563317460001
729,364.74945166,0.7564364810508001,-0.575679742688,-0.23464298706564
730,365.25088599199995,1.02557151231,-0.3298727670778,0.027906854119000003
731,365.75232084000004,0.1606879538834,-0.06852393017412,0.14211316170243998
732,366.25375620799997,-1.1477782094522,-0.12529344374254,-0.5108690096436
733,366.7501772020408,-1.9983701371836733,0.1726506722466735,0.8704499347081632
734,367.24659865,-1.65151552982,0.19631719956188,-0.31680712589
735,367.74803435,-1.6043329258599999,-0.09369999727105,-0.24289772362280002
736,368.249469848,-1.263088543254,-0.5286888404184,-0.9156874549126001
737,368.75090566,0.0070823891569999995,-0.6870831397225601,1.2822524212259998
738,369.252341808,1.263348715824,-0.40045417851320003,-0.142678423695578
739,369.75377789,1.4738775853339998,-0.14870535808072,-0.15550983437600002
740,370.2501994102041,0.6633120886797144,-0.4243935582161224,0.11969176456653062
741,370.74662116,0.5516867559952,-0.6654788518964,0.16075585102239998
742,371.24805713200004,0.6400374342217999,-0.573369961688,-0.15210698876700002
743,371.74949328,0.5979650425592,-0.537776210218,-0.010029881050380017
744,372.25092946800004,1.006449452846,-0.43166313436399995,-0.20668853664980003
745,372.75236590000003,1.245544448554,-0.364092080602,0.185755551373
746,373.253802472,0.32269478587979994,-0.08500711644223999,-0.016321262855919998
747,373.75022445510206,-1.1233134177663266,-0.18928677698218369,1.5498603316942858
748,374.246645908,-1.799531226172,0.21256772842297,-1.2867130750059999
749,374.74808147999994,-1.5763346504840001,0.2665085786898,-0.1318106249178
750,375.249517316,-2.028236140662,0.278330363081,-0.308427025084
751,375.75095302,-1.9289896748500002,-0.2212931085272,0.05055851146619998
752,376.25238876000003,-0.7038136639924,-0.58325944666268,1.2151760284286
753,376.75382473999997,0.6826555152672,-0.43164323209000477,-0.9090081803878001
754,377.2502466918367,1.821800810012245,-0.407201693342449,-0.058710221699999995
755,377.74666899999994,1.5195352990620001,-0.3410946525464,-0.1446631324166
756,378.248105906,0.30739328061722,-0.35508859349399996,0.007487067281159997
757,378.74954304,-0.6435847029646,-0.8072014805819999,-0.153433803868028
758,379.250980426,-0.5383309277424,-2.82319682974,-0.05018438321400003
759,379.75241796,-0.15397260763479997,-3.49574571564,-0.015047411872400005
760,380.253855568,-0.1880325380976,-4.1074549001000005,-0.503960196856
761,380.7502790265306,-0.3911425667971429,-4.078514104408163,-0.1058465363885102
762,381.24670280799995,-0.235206736256,-3.60234817528,-0.2818595458446
763,381.74814100000003,-0.5049349094738,-0.6017287357787,-0.08657173486986201
764,382.24957936799996,-0.01189256027312,0.15870317720354,0.09078736686774
765,382.75101774,-0.026050579401739996,0.5985127605816001,-0.252843147503
766,383.25245581,0.02321547987717999,1.2113812161753998,1.0058981108468001
767,383.7538942,-0.2616400239795,1.5781885204939998,-0.7851835656359999
768,384.2503186571429,-0.1780968471897959,1.9591886446663265,0.49610966122285716
769,384.74674302,0.022405813927600004,1.8498613585600001,-0.06944349775094
770,385.24818191400004,-0.03021646638556,1.090349606196,0.0760679253146
771,385.74962084,-0.06609394876687999,0.1370509500634,0.12879975328968
772,386.25105984000004,-0.029193893161739995,-0.311198588084,-0.1786958804634
773,386.75249904,-0.0368075369484,-0.707133242012,0.1436672580126
774,387.253938188,-0.0463309058498,-2.29482290686,-0.1799063125884
775,387.7503631020408,-0.253726093350551,-0.4424932122697959,-0.022625383343469398
776,388.24678816,-0.22676734509830002,0.29929873184760003,0.6564167555951199
777,388.7482277,-0.036948110198400004,0.9620727812895999,-0.23161602391959998
778,389.249667596,-0.34299198761202,1.422751661528,-0.32330292644560005
779,389.7511073,0.12999262000053538,1.74718121692,0.2168834611302
780,390.25254703400003,0.0967530092734,1.69593883274,0.039222806845000006
781,390.75398681999997,0.0740411554714,1.47913566838,0.015391462043000006
782,391.25041252448983,-0.11017668319584899,1.0694367692632654,0.23122379932599998
783,391.74683830000004,-0.20450679996722002,-0.67031038350232,0.07120031705433999
784,392.248277872,-0.08714606263479999,-0.7137485965064001,-0.016363070492799964
785,392.74971791999997,0.6053245131775999,-0.29856072448300003,-0.08396816854376
786,393.251158968,1.432103624346,-0.2012894927937,-0.026553562830799998
787,393.75259972,0.6247132678154,0.14273619765074,0.022870237970179997
788,394.25403976399997,-1.0268506692826,0.05418445147899,1.1308648972958
789,394.7504658040816,-1.6757929070632653,0.31710311884836734,-1.4586676933738774
790,395.24689231800005,-1.74189717226,0.22889783727422,0.5553457853026
791,395.74833337,-1.384972595788,0.2384234677306,-0.34870065840442005
792,396.24977497599997,-1.6359274872860001,-0.5226127281902,0.035178007119399994
793,396.75121644,-1.245852810236,-0.4453685104694,-0.7194857006882001
794,397.252657132,-0.6901775596701999,-0.6673973590142,0.6435235982973999
795,397.75409834,0.9381702450477999,-0.3185346069922,0.14771113391000001
796,398.25052566122446,1.2033273349877551,-0.1955692451234694,-0.06112359436346939
797,398.74695298,0.9924168274240001,-0.2581070024968,0.019381941135600003
798,399.24839518,0.012348499382099998,-0.523463331064,-0.108999993508964
799,399.74983732,-0.6169003223784,-1.0355900544444,0.12297198547702001
800,400.25127931000003,-0.3539144893972,-2.07737922096,-0.300135193784
801,400.75272146000003,0.00013985811760000244,-2.88053323624,-0.09665469694159
802,401.254163072,-0.107015500411,-2.7305184280600003,-0.2145941826904
803,401.7505907265306,-0.14060457372660815,-2.5615455749183673,-0.09120760242571428
804,402.24701873,-0.21232537200258,-1.46069907591988,-0.1297308756034
805,402.74846125999994,-0.27049789968542,0.05683047910026,0.10796118886534
806,403.24990392,-0.2488819413422,0.63354923068246,0.5688674714796
807,403.75134663999995,-0.2839437123478778,1.418158918428,-1.633657627444
808,404.25278975000003,-0.28078391900148,1.8112294683799999,1.3700525743126
809,404.75423258,-0.13747776717906,2.20687613786,0.03859168180576
810,405.25066036734694,-0.15730085427959184,2.0707243951632655,0.326116173857347
811,405.7470885,-0.4570478174276,1.9403245105,-0.13744847516460001
812,406.24853164,-0.3023564671472,1.6962866821399998,0.2341103875912
813,406.74997484,0.054921069279356,1.0865817067999999,0.06803441233
814,407.25141800999995,0.0648240764268,-0.04342471395316,0.0679584453066
815,407.75286134000004,-0.0643567951842,-0.43465993616980003,-0.3019713013552
816,408.2492903632653,-0.1466165079112245,-0.603503861587551,0.09252382261775512
817,408.74571944,0.1515498032008,-1.3025738673760001,0.1364403099864
818,409.2471626,0.0487104366531,-1.4338557220800001,-0.18979995349519999
819,409.74860602,0.0037616759552000045,-1.3520683573799999,-0.052011965541979996
820,410.250049784,0.1254835787576,-1.224017414684,-0.1235198461872
821,410.75149356000003,0.6843607222534,-0.36144796125342,0.1306161323736
822,411.252937532,0.8755905706200001,0.31181473660776,-0.23699913435579997
823,411.74936697142857,0.13300972013979592,1.0635231846836735,0.15333422098612245
824,412.245796032,-0.8617881524092,0.958439088506,0.5468612064492
825,412.74723983999996,-4.19530956962,1.123506385462,-0.329671140662
826,413.24868375600005,-2.6463864831426003,1.3349623821,-0.9583764326088
827,413.75012798000006,1.1680059560528,1.040556671778,1.1199263005136
828,414.25157267199995,2.1834348731784003,0.78173956586046,-0.098355815712104
829,414.75301726,1.141321031869,0.742360226112,0.02766171543920001
830,415.24944726938776,0.17089516600326532,0.019826306255265307,-0.057971193345918375
831,415.74587752,-0.10416794252714,-0.3991510139332,0.10857584815635998
832,416.24732261800006,-0.03409168530219998,-1.5100764893016,-0.2240322553552
833,416.74876778,-0.0883140890426,-2.02646004596,-0.171438480148
834,417.25021330000004,0.26364125167040003,-2.32785707616,-0.08859108252440001
835,417.75165874,0.07046679519070001,-2.2980914448600003,-0.15816291493718002
836,418.25310398,-0.02384448222358,-1.7641794661,0.09378703524564001
837,418.74953488979594,-0.10135477146871429,-0.2712819818932653,-0.09215098502904083
838,419.245965424,-0.2283123645788,-0.797704951124,-0.09416782932682001
839,419.74741058,0.3021659621976,-1.3992492641999998,0.001578011477216006
840,420.248855992,1.4726495834279998,0.12394350912912,0.015636168012944394
841,420.75030138,2.6937148979199996,0.36444795275639996,0.19464416117326
842,421.25174657,3.63884209246,0.8889767890279999,0.1941032937284
843,421.75319209,4.37872644814,1.278544197498,0.001922763307560002
844,422.2496231469388,4.820611128122449,1.0371283132693878,-0.3279975095361225
845,422.74605434,4.754639633,1.032797195154,-0.12797293360392
846,423.247499968,3.5556867745400003,1.26894575181,-0.052243632240000004
847,423.74894573999995,1.260685337642,1.42435069446,0.08708122615522002
848,424.250392102,0.735340409817108,1.287272206206,0.439767253156
849,424.75183824,0.12898006388434,1.077473564794,0.12884558375038
850,425.253284028,-0.41755532545443996,0.991880098374,0.1479671249954
851,425.7497155734694,-0.4754259644038776,0.8549355412795918,0.2062114871487551
852,426.24614686,-0.38132662119778,0.6526068648179999,-0.002196377928440003
853,426.74759281999997,-0.048984461476399996,0.534677276924,-0.03710050144666
854,427.24903906,0.10001246856028001,0.436244703372,0.41544149120519996
855,427.75048524,-0.049790829790200004,0.37072700720999996,0.018381669653759997
856,428.251931666,-0.6556789063959999,0.3075007310644,0.16402003576338
857,428.75337804000003,-1.69946697974,0.2192746449294,0.33079574732399997
858,429.2498100571429,-1.8233647656326533,0.2552490582740408,0.029864486875306115
859,429.7462421,-1.1843404034259999,0.04902339663961999,0.07444280866648001
860,430.24768871599997,-0.135375971009,-1.6750217108699998,0.19204086381244
861,430.74913546999994,0.3659928980388,-0.41934459685148,0.1930684534888
862,431.25058250200004,1.1804417438519998,-0.19626505612504,-0.21115619529625998
863,431.75202958,0.6646257753328,-0.1694087522366,0.1795273194545556
864,432.25347668,-0.0314395866756,-0.1254797597893,0.177887514641
865,432.7499094693878,-0.016557762308918363,-0.050729810554857147,-0.19302034760808162
866,433.24634227399997,0.017050385452339997,-0.07059911806004,0.12470278468782
867,433.747789776,0.016446579230100004,-0.06396211899248,0.1236658394682
868,434.249237794,-0.0096803231592,-0.073497631102374,0.19232098052045998
869,434.750685728,0.042675954790800004,-0.06894792284212001,-0.004141255414280005
870,435.252133278,-0.11830773162068,-0.10405326659504001,0.17131489337880002
871,435.75358098,-0.12652336699758,-0.11117304102778,-0.1072395488857078
872,436.25001448979594,-0.1409596961346939,-1.0284749666571429,0.0518394450155102
873,436.74644809999995,-0.1349480329379,-1.276198942974,0.13799424262644
874,437.24789637599997,0.0630924623416,-0.524031705998,-0.045115455384
875,437.7493448,0.08722920967445999,-0.23382980530779998,0.022799147513000006
876,438.250793452,0.0866852825934,-0.2028294897843,0.0817924429752
877,438.75224226,0.0138451062908,-0.2059912283916,0.230868749718
878,439.253691146,-0.11327285145808,-0.2142884266635,0.14908403674367998
879,439.7501255979592,-0.05759635539816327,-0.145397554299,-0.27302530537379593
880,440.246559884,-0.03562710032126,-0.15735468866052998,0.3576127856916
881,440.74800894,-0.08052915862157999,-0.14576075345802,-0.008876845198719998
882,441.249458504,-0.009023740042759996,-0.12442046064878401,-0.23644263143020003
883,441.7509076,-0.0540259781462,-0.149226990932,0.3012786986426
884,442.252357536,-0.025100546918399996,-0.11832005252822,-0.21770686608532
885,442.75380652,0.09894284781244,-0.0872360165738,-0.053187080509000007
886,443.2502415408164,0.15039566268593876,-0.14899968674734695,0.2986604653664694
887,443.746676776,-0.03631939384272,-0.15487731329436,0.08594209499
888,444.24812709799994,-0.28294060136066,-0.1341631571614,0.15029632827894
889,444.7495773,0.0367815431495,-0.07336864262566,-0.47523983132680003
890,445.251027052,-0.006517833176299998,-0.19224697706366,0.3637963448766
891,445.7524769,0.07358094460844,-0.2892063073562,0.24843342298212
892,446.25392777,-0.20404059395596,-0.7351085451289999,-0.08671716681512001
893,446.7503637755102,-0.19308217295959185,-1.369619297632653,-0.14595584628959182
894,447.246799814,-0.0450402681993,-1.2950077392200001,-0.10641744207519999
895,447.748250296,-0.06952164942938,-1.378062920632,0.1119121875906
896,448.24970150200005,-0.0264515625366,-1.5583645926,-0.222095318406
897,448.751152774,-0.1415401067356,-3.0360437898,-0.10956767628360002
898,449.252603846,-0.42001837587220003,-3.89965456212,-0.231195164667
899,449.75405498,-0.04100935378099999,-4.13065645298,0.00011141282950000275
900,450.25049192653063,0.0078117469928571485,-4.088008932489796,-0.5791056010093061
901,450.74692877399997,0.21949058846818,-3.9637716441,-0.2646822505908
902,451.248379614,0.1926872932286,-3.23484995816,-0.20434926444332
903,451.74983056800005,0.415857086861,-3.1530461657199997,-0.20849391124340003
904,452.25128199600005,0.47839232039260005,-3.0212027700200004,0.026160431143200002
905,452.75273344,0.8996410602810001,-2.1179721677999996,-0.10974471828900001
906,453.25418498,0.9480401579214001,-1.82774473898,-0.28034494157926004
907,453.7506219571428,1.4744204653040818,-0.6185228899040204,0.14531793893818368
908,454.24705928000003,1.3804705992979998,-1.229430742024,0.1116296617892
909,454.74851110000003,0.77590607800976,-2.6745484558599997,0.0748305960156
910,455.24996231999995,0.36867260697666,-2.61695775244,-0.4256867719932
911,455.75141378,1.4331836796586002,-1.6887210092379998,0.19340645765779998
912,456.25286584,2.77520856864,-2.05784934526,0.3069966323748
913,456.74930346938777,1.5631677652253062,-0.6102708188608572,-0.2274961993582653
914,457.245740956,-1.3555242314676,0.42244189328540005,0.112343700385
915,457.74719303999996,-4.49118785292,0.8130455438399999,-0.09729845198458
916,458.2486446,-5.57236779536,0.570631044363,-0.12121459311260001
917,458.7500965,-6.204334114560001,0.3729746754448,-0.05119183509183999
918,459.25154912,-6.0326906895,0.7665769155959999,-0.041992995431999997
919,459.75300166,-5.62018252416,0.9305781701179999,-0.11308408652428
920,460.2494396122449,-3.547837950653061,1.2388783927795917,0.07207687317738774
921,460.74587758,0.8904105248424401,1.56437954734,0.02870209883268
922,461.2473302,3.7480660109,1.414477393064,0.2044130108171
923,461.74878277999994,4.36970251618,1.59205597148,-0.062316396754
924,462.25023552,3.2449984997000003,2.07102566862,0.2189242563698
925,462.75168828,1.2821088893518,2.38814613508,0.094314699706
926,463.25314068,1.0148446654280001,2.14885439824,0.19507123010222
927,463.7495787428571,1.085293678967347,1.878783255612245,0.4624389471622449
928,464.246017506,1.236533620956,1.7602765505600002,-0.33688073411959996
929,464.74747060000004,0.6075204269948,1.56986334394,0.01847804346028
930,465.248922896,0.4894890164172,1.267395552602,0.5920036057924
931,465.75037534,0.7344163034904,1.349366553518,-0.8001277157200001
932,466.251828608,0.6706656972551199,1.18233202513,0.5700159581592
933,466.75328182,0.0484043014754,1.16739033538,0.12799201892358
934,467.2497200265306,-0.7949812870987756,0.9619742563244899,0.2835669640844898
935,467.7461584,-0.35134457032005995,0.8610347478439999,-0.0687701207034
936,468.24761211,-0.36087240698022,0.7491200942,0.1266130934352
937,468.74906578,-0.46144204410580003,0.617514331568,0.1311189812154
938,469.25051911,-0.31028810806486,0.54380986544,0.05131826358540001
939,469.75197256,-0.181619686432622,0.462616050894,0.083030181598
940,470.25342647799994,-0.0364905661172,-0.40616183280240004,0.30583769083227996
941,470.74986594897956,-0.1480900629264898,-1.2844862750489796,-0.07105117607469386
942,471.24630555199997,-0.1270221872734,0.027146414216059997,-0.050484696236800006
943,471.74775986000003,-0.158892506263,0.02833815424502,0.008350572397380001
944,472.249213966,-0.2603906879818,0.076830598115646,0.1188425063598
945,472.75066830000003,-0.20941270506336,0.057911927485800006,0.229363267095168
946,473.252123092,-0.1724278165937,0.07133509394279999,0.11599763713938
947,473.75357786,-0.13462783738826,0.0888571468827,-0.2566050121184
948,474.2500181591837,-0.11837917875795918,0.05437215976061224,0.15138697886551022
949,474.74645854000005,-0.12087121262562,-0.010066170316040002,0.43942978697024004
950,475.24791333200005,-0.05689688045014,-0.0180557714335,-0.23819202479508
951,475.749368198,0.1774287654544,-0.045794526873,0.24429575779572
952,476.25082329800006,-0.049112109121999994,-1.3063843290392,0.057590583525
953,476.7522784,-0.1304839578704,-1.018975187924,-0.09044027611809198
954,477.25373369,0.1499546275898,-0.4480996019922,-0.14591408572040002
955,477.75017441836735,0.13286432014346938,-0.23758584815163267,0.135229009857551
956,478.246614732,-0.024114844139139998,-0.1526863352762,0.0171387504346
957,478.7480698,-0.1351011495808,-0.1850918317297,0.18085329256416
958,479.249525042,-0.24061634983840002,-0.1796888027386,0.1095146888028
959,479.75098025200003,-0.13479928707392,-0.17241481969268002,-0.011499052445000001
960,480.252434704,0.059227882468560006,-0.1299183190598,-0.06714307449779999
961,480.75388921999996,0.028291336688240003,-0.11904293722478199,0.1580226753108
962,481.2503295428571,-0.13070941122571428,-0.1608925169150204,0.37174290451612246
963,481.74676996,-0.0156883054446,-0.07770387465606,-0.3552347347974
964,482.24822534,0.0741274993952,-0.13100496780772,0.18656661868100002
965,482.74968082,-0.10324085592404,-0.12460875049971999,0.1011315357268
966,483.251136144,0.04833324684752,-0.5377336486632001,-0.1486937935599
967,483.75259171600004,0.0517505383778,-1.1867286898640002,0.086747642508
968,484.254047318,0.007953496751979998,-0.16680432846574,-0.004847119577800004
969,484.750488477551,-0.026501119210000004,-0.09219680149118367,0.18092510758608163
970,485.24692976600005,-0.02221004858538,-0.041448222679100005,-0.1661110000638
971,485.74838572,-0.11722647591672,-0.04063628708886,-0.04771432052760001
972,486.24984215800004,-0.12785404801354,-0.04273179436792,-0.0009200593780800092
973,486.75129869999995,-0.0005797925492659972,-0.0582529145108,0.08151816178587999
974,487.252754508,-0.0354261083066,-0.0329353676706,-0.032099296044520005
975,487.75421044,0.1178355737961,-0.12696072817822,0.4883412196682
976,488.2506524918368,0.1363815247757551,-0.047056647359918366,-0.3802336463734694
977,488.74709442,-0.02211484075052,-0.11983310632409999,0.2979514575322
978,489.248550618,-0.015894191024260002,-0.16931562399702,0.37971077021710004
979,489.7500069,0.051260063328199997,-0.19269246573840002,0.2789553624422
980,490.251463536,-0.024734876849823995,-0.24945312589090002,0.4180481097546
981,490.75292024000004,-0.0529066586222,-0.2400433029626,0.182164589106
982,491.2493620653061,-0.016326240348448977,-0.262039592025102,0.185446461097551
983,491.74580399999996,0.07403650081866,-0.34273508249292,0.7601392510412001
984,492.247260608,0.1961016326544,-0.3915391162684,0.4523041162464
985,492.74871728,0.3905864230262,-0.33627652821352,-0.03860495496138
986,493.25017433,0.5360129238714,-0.3445781509984,0.2151703439356
987,493.75163138000005,-0.0173765372121,-0.3654194471642,0.06130666446639999
988,494.253088186,-0.28092948953096003,-0.29704077160914,-0.079064950761
989,494.74953032653065,-0.6446033251159183,-0.29026712478183675,-0.2695955912009388
990,495.245972572,-0.47131537151979996,-0.2092166676688,-0.923016027478
991,495.74742932000004,-0.1564783969688,-0.151648303704,-0.278546384758
992,496.24888605599995,-0.2555590908678,-0.0720617911593,-0.1854234879506
993,496.7503429,-0.1484459847262,-0.009088489668839999,-0.639484891408
994,497.251800352,-0.17385565986954,0.07449198995938,-0.731188598778
995,497.75325784,-0.31312499293398,0.14260989103902,-0.692635017435
996,498.24970036938777,-0.03249150197016326,0.22881598155334695,-0.7490304372059184
997,498.74614302000003,-0.30351892831244,0.303435366679,-1.09773533358
998,499.247600636,-0.616823157796,0.18656853874427998,0.9297501488184
999,499.74905826,-0.17751873545477997,0.27535538016018,-0.8066345089946
1000,500.25051577,-0.08778978480579999,0.21998101270528403,-0.2791939756336
1001,500.751973376,0.7310095314498,0.2574150780814,-0.296677501252
1002,501.253430958,0.14841015993726,0.027129626862458,1.2038211449556
1003,501.74987400204077,0.13659841246938775,0.03451964246183673,-0.04169759265530612
1004,502.246317536,0.38430506257462,-0.006594940775359999,0.3606949933744
1005,502.747775572,0.2723756043494,-0.03627677568156,0.08973884411739999
1006,503.249233182,0.0030229900247999986,-0.19032888019798,1.4803839670822
1007,503.75069071999997,-0.1210207279516,-0.1991695969056,0.16768011207839997
1008,504.25214851600003,-0.0016461075985799972,-0.1898896488702,-0.293102127699
1009,504.75360638,-0.0669732380654,-0.29283776668672,0.8468720650246
1010,505.2500496795918,-0.18178533965112248,-0.2697998107912245,0.12150932978071427
1011,505.74649307799996,-0.1606427797478,-0.23749383910172,-0.08593499645739999
1012,506.247951084,0.0005049103656000043,-0.22748659044252,-0.0761596681284
1013,506.74940918,-0.0889001326844,-0.19179085825276002,-0.143847211933
1014,507.250867466,-0.0863164352014,-0.3094353422942,0.16341325851320002
1015,507.752325856,0.0421911648734,-0.628760589146,-0.14619145424361998
1016,508.25378437599994,-0.0415291186402,-1.0527556651480001,0.13599331372364
1017,508.750228477551,-0.03683284945155102,-1.0721170717428572,-0.14045063309020406
1018,509.24667233599996,0.06315337890219999,-0.953378188834,-0.1108384165676
1019,509.74813078,-0.21479688848079997,-0.868366585412,-0.08261090116518
1020,510.249589636,-0.036780158821000004,-0.7833978442439999,-0.22485183615940002
1021,510.7510485,-0.02237551272924,-0.8039261481219999,0.30618521424760003
1022,511.25250708,0.04253380257922,-1.204727428244,-0.17868465383219997
1023,511.75396578,-0.1333925632038,-2.0106695363,0.07690374972580001
1024,512.2504105102041,-0.047787293978367354,-2.101230593081633,-0.1671559170644898
1025,512.7468554,0.0365847211054,-2.1501185281599997,-0.223862335269
1026,513.2483143,0.13566780765292,-1.8575443719200002,0.021963369895999996
1027,513.74977336,0.1188843128688,-1.2859059048500001,-0.14910991653674002
1028,514.25123308,0.06120476267207999,-1.171658383232,0.0407333180668
1029,514.75269276,-0.09923848286068,-1.54549735322,0.026129955445159996
1030,515.254152,-0.028280889713400002,-1.65716364194,-0.0573375978916
1031,515.7505965510204,0.07935155900981633,-1.6844495667142856,-0.09901326539612244
1032,516.247040972,-0.018646561497322002,-0.9628525580839999,0.06859428322700399
1033,516.748500014,-0.08722547221976001,-0.767092999628,0.008057194205018
1034,517.249959916,-0.07797942817418,-0.7613867428100001,0.15330543406766
1035,517.75141984,-0.14953460254620002,-0.810972037882,0.15438606969576
1036,518.2528790499999,0.03974059239779999,-0.906013289208,0.1514339274776
1037,518.7493236918367,-0.02394986453734694,-0.8842356167142857,0.09272147043510202
1038,519.245768644,0.0028278114132000093,-0.4825936844332,0.15108746824236
1039,519.74722817,0.12081830630160001,0.06069867684878,0.19604370392314402
1040,520.248687716,0.40171675425079995,0.302590398695,0.24645654956944
1041,520.75014732,0.09811976844803999,-0.435866812426,0.07773251065919999
1042,521.2516067280001,0.07827646380402001,-1.281232643484,0.0839125966116
1043,521.7530662199999,0.090368431813186,-1.59921249278,0.1560935151541
1044,522.2495113673469,0.13849741909430613,-1.7644337667755101,0.13820784402644898
1045,522.7459565199999,0.05745546114352,-0.53123651067178,0.35289605903268007
1046,523.24741624,0.2852211099462,0.07211310253204001,0.22354917007594
1047,523.74887608,2.71253067942,-0.845900912654,0.1791124945828
1048,524.25033598,3.43023186838,1.050480770876,0.10944865036326
1049,524.75179574,1.6098673856492,1.07811741636,0.263145228091
1050,525.253255572,-1.8911985214699998,1.44768410938,0.22738910675692
1051,525.7497008081633,-4.83399567332653,1.3401028305102043,0.1612921144503469
1052,526.246145822,-5.87012507842,1.101267829438,-0.20559991370717998
1053,526.7476055,-5.56892508334,1.157258334106,0.17285955233454
1054,527.249065308,-5.697121807439999,0.964060721484,-0.0899161668038
1055,527.7505251,-5.6689247501199995,0.59103271653,0.02845292558572
1056,528.251984956,-5.1563328702,0.30212146369820003,-0.14710779479402
1057,528.7534448,-4.81939527766,0.22623443662,-0.00622171812066
1058,529.2498903367347,-3.6833609889999996,0.2638729671046939,-0.1767383102336939
1059,529.7463359,-2.109261597016,0.4117370802494,0.0872750145792
1060,530.2477959720001,3.1941872539999996,0.5593395907450001,0.132671908122202
1061,530.74925596,5.41939286914,0.656149432212,0.11289213413140001
1062,531.25071607,5.22262705168,1.236577758674,0.24189837598114
1063,531.752176272,3.2621638608400003,1.57376311812,0.2113537376142
1064,532.253635998,1.49380879851,1.56797287044,0.23643794194480003
1065,532.7500811489796,1.3896359292591836,1.3162988796183672,0.18348115225632652
1066,533.24652668,0.8100935083182,1.103685872468,0.2109537413172
1067,533.74798686,-0.1595692506902,0.881826236334,0.14087426529804
1068,534.249446908,-0.7876363205968001,0.76378986219,0.06320750073800001
1069,534.75090698,-0.2208081035528,0.505230089326,0.021548790622000005
1070,535.2523675360001,-0.1873982885992,0.378739872202,0.20989184016676
1071,535.75382832,-0.26815464371659997,0.296743478329,0.14969512924428
1072,536.2502742469387,-0.2546187828833061,0.2059811292079592,0.1869297207034694
1073,536.74672026,-0.11148046644281999,0.1951695948875,0.010909243790068001
1074,537.248180702,0.004905420708220007,0.13440643056952,0.13753361066532
1075,537.7496411,-0.1417402043274,0.05598544826619999,0.27543330381644
1076,538.2511016,0.40856923819240004,0.0026391437082200005,0.10783552051121999
1077,538.75256222,0.7089387240636,-0.059298639994249995,0.265836350595
1078,539.25402294,0.4518262320826,-0.11411835957256,0.16477684089362
1079,539.7504691244898,0.27006198122755104,-1.375919505522449,0.21105856638669387
1080,540.24691536,0.20861909281344002,-0.709969447822,0.05682273886910001
1081,540.7483761999999,0.33019836799659996,-0.41734037157880005,0.2503131391262
1082,541.249837124,0.22049332088539997,-0.1855492382124,-0.10464573570442001
1083,541.75129816,0.161400907819868,-0.1651546426546,0.24565139965478
1084,542.252759312,0.365048296622746,-0.16475529243672,-0.02553901243847999
1085,542.75422062,0.37001713475739995,-0.1237376432792,-0.1835415031762
1086,543.2506671061225,0.11779097573540817,-0.21081854414548978,0.34224910719469387
1087,543.747113664,0.08987260651016,-0.2091649391749,0.030891869385399992
1088,544.2485749780001,0.16693094270588002,-0.2223280887232,0.36856770793734
1089,544.75003642,0.2592575817792,-0.222857390382,0.04837623702636
1090,545.2514979,0.228911892753,-0.2469533713998,0.36673367029037995
1091,545.75295948,0.15481887622706,-0.2268696722872,-0.237089462124
1092,546.2494066836734,0.07060482172210204,-0.23671237333510206,0.24152479140838776
1093,546.745853982,0.021949239378814,-0.19098165093508002,0.0079411503552
1094,547.247316034,-0.031864693329,-0.17812779277372,0.035558976603599995
1095,547.74877826,0.11240279380796,-0.19551482180379998,2.046519780001255e-06
1096,548.250240416,0.09635966032174,-0.20332135463612602,0.15319153032996
1097,548.75170264,0.1239861419014,-0.19861076023993998,-0.0678188488965
1098,549.253164784,0.14484211018862,-0.214667743585204,0.254716911092302
1099,549.749612377551,0.09386099803320408,-0.22066769412653062,0.010028082242653058
1100,550.246060452,-0.020492970224239994,-0.20622927950400002,0.14043385303738
1101,550.7475232,-0.020363262522698,-0.1966304522854,-0.050066643717079994
1102,551.248985758,-0.22582254705028,-0.17797454821300002,0.09274617239822001
1103,551.75044826,0.002278401201200013,-0.18837892733581998,0.06946365893119999
1104,552.251911008,0.1493697868792,-0.9162665111954,-0.027631847881619997
1105,552.75337386,0.15727997003276,-1.4580765894020002,0.1310221045178
1106,553.2498218836735,0.07892539244408163,-0.6132498932265306,-0.05087263772836734
1107,553.746269876,0.13038463779642,-0.2445476737572,0.018358514673799994
1108,554.2477328680001,-0.07608388382213999,-0.176734491181798,-0.0032406438605199965
1109,554.7491958400001,0.1395977622264,-0.16475191238200002,0.08139596667299999
1110,555.250658328,-0.0027695786680000055,-0.18689569630014,0.0014622600060000047
1111,555.75212072,-0.029598873867539996,-0.167337937428,0.10090618404163999
1112,556.253583898,-0.06321018168546,-0.1800440689648,-0.024318990913081987
1113,556.750032667347,-0.10565291003499999,-0.1806502328714898,0.12299748194183674
1114,557.246481124,0.12510386165298,-0.16966661919579998,0.1180146575873
1115,557.74794434,0.08583532849320001,-0.14860822760859999,-0.19246061200414
1116,558.24940739,0.2052140413394,-0.1745534614756,0.1643810311882
1117,558.75087046,0.09743652704360001,-0.157273385138346,-0.0472922919198
1118,559.25233369,-0.0663632883346,-0.154241513555362,-0.103399436796
1119,559.75379692,-0.044774621160600006,-0.17861061820076,0.25923991952134
1120,560.2502459693877,0.06494802020367348,-0.15982475604720817,-0.03294487166857143
1121,560.74669496,-0.022157767532399997,-0.1410287863762,-0.021848144697699988
1122,561.24815866,-0.110801729685498,-0.138797368286,-0.1662658928374
1123,561.74962232,-0.08075355246474,-0.19500625574436,0.448248873399
1124,562.2510858,-0.06104197161665999,-0.163027739875728,-0.1259666252624
1125,562.75254916,-0.18451709136478,-0.20964208284053998,-0.2707859602228
1126,563.254012662,-0.20984380273216,-1.223356117934,0.299274916322
1127,563.7504615081633,-0.1429377977419592,-1.323545684577551,-0.14750800760057142
1128,564.24691022,-0.09429609568408001,-1.20991281078,0.12251741120540002
1129,564.74837352,-0.0777537484864,-1.127703873518,-0.10137265152320002
1130,565.2498373,0.02946838155920001,-1.0530990356299998,-0.1684027811848
1131,565.75130128,0.1748312415098,-0.935612236896,-0.11509402011980001
1132,566.2527644,0.020547982649599995,-0.844435223286,0.1941044397808
1133,566.7542274799999,0.019793026347100003,-0.7419654330800001,-0.1685527154722
1134,567.2506766632654,0.04979498134571429,-0.746359240455102,0.06868646662183674
1135,567.7471259399999,0.2760632005988,-0.6946202180500001,-0.0726585775923
1136,568.248590178,-0.028187838786356004,-0.653961158164,0.084842432536
1137,568.750054694,-0.11697378447694,-0.567554043616,-0.3162788650428
1138,569.251518798,-0.16056884828960002,-0.531041969396,0.12223690859439999
1139,569.752982854,0.07625407836726,-0.48620539697799997,-0.0041156679811000085
1140,570.2494322183674,0.13225944358044897,-0.4507821558306122,0.2012008767653061
1141,570.7458816,0.05346411059176,-0.3857576653468,-0.2115707863092
1142,571.247345558,0.11115234736666,-0.3588836911758,0.019132206547279998
1143,571.74880964,0.1670455061114,-0.321076544934196,-0.027197411446499998
1144,572.2502734999999,0.10164551621720001,-0.2962568204218,0.08018535914180001
1145,572.7517374,-0.14026261547959998,-0.29537036059399996,0.02494253794980001
1146,573.25320156,-1.1722805507394,-0.49461515927199995,0.09034633477342
1147,573.7496511306123,-1.9259769057857143,-1.1702980396510205,-0.17441159572448978
1148,574.2461010740001,-1.9719187093900001,-1.269454984376,-0.224055866408
1149,574.7475658799999,-2.5920571449199996,-0.800954848172,0.1720548351646
1150,575.249030708,-2.88382470998,-0.32513275697280003,0.11018350502400001
1151,575.750495706,-3.06835920192,-0.14043441289220002,0.0882797884238
1152,576.2519605040001,-2.75708579318,-0.1953080306429,0.23983931407472
1153,576.7534253,-2.21050172146,-0.21529167949952,0.0518363035172
1154,577.249875577551,-1.8897789983469389,-0.23573780954326531,0.07333911997581632
1155,577.7463258,-1.9490242741964,-0.308947025237,0.13153398147297998
1156,578.247790902,-1.45053361844,-0.35432587866852006,0.23496211641839998
1157,578.74925606,-0.9853653470559399,-0.3726037500082,0.09947341739900001
1158,579.250721342,-1.0960006576399999,-0.446851165188,0.2730571473912
1159,579.75218668,-0.9728162749736,-0.6960508892,-0.03070726111016
1160,580.253652272,-0.002641444598439999,-1.8417937373000002,0.037960124032060005
1161,580.7501034265306,1.3153881624265307,-2.5486049825714288,-0.09591619812626531
1162,581.24655438,2.2532434411,-2.54328948066,0.1875599787294
1163,581.74802008,2.3233822868000003,-2.455215321242,0.1476008905078
1164,582.249485858,2.9296761165099996,-3.6738084273840004,0.04392390975239996
1165,582.75095178,2.6466710892750003,-2.88277093934,0.155665218276
1166,583.252417682,2.694806038008,-2.42070154026,0.008656159580075993
1167,583.75388362,2.63062455784,-2.12990019544,-0.0028459451114600017
1168,584.2503350020407,2.1207258634081634,-2.1376655245510205,0.03601832336040816
1169,584.74678636,1.521496921534,-2.26580355266,-0.00012854518926000346
1170,585.248252344,1.17777363673,-2.3114346068000002,0.0853509297942
1171,585.7497183,0.8374480125079999,-2.21573167868,-0.02201738648806
1172,586.2511846,0.6185943086567,-1.9882437773600001,0.11909098963662
1173,586.75265116,0.56820036562432,-0.7926370406556,0.19601935611894
1174,587.2541168160001,0.42531350472580004,-0.2096664534019,0.18595119921114
1175,587.7505678551021,0.32734448144918366,0.025653596629918368,0.24823914914769388
1176,588.2470194900001,0.235560114824446,0.637417637492,0.2530627454958
1177,588.74848588,0.18272074850631997,0.599500920276,0.2126311788536
1178,589.249952484,0.13295099499592,0.6446406854500001,0.20967700177689397
1179,589.7514189,0.1033544037347,0.77742311473,0.12880949474424
1180,590.252885836,0.090939094424248,0.262612307012,0.106722117084384
1181,590.7493385,0.02596818652524694,0.14183406343918367,0.11516215331783675
1182,591.24579075,0.046829187295694005,0.5322212606994,0.09656302428500001
1183,591.7472574999999,0.04356815127042,0.778894657174,0.08487454544124001
1184,592.248724652,0.0287851917884554,0.623693362818,0.08130893672874001
1185,592.75019178,0.02266114117576,0.441864957888,0.07589197089696001
1186,593.251659172,0.01494552487184,0.353566585558,0.04764548710446
1187,593.75312672,0.006658904568499999,0.286569023426,0.032969841209061
1188,594.2495793775511,0.04466578699689796,1.441174159112245,0.14895333190189797
1189,594.74603196,0.018655867153282005,2.56410688682,0.17411247031479998
1190,595.247499722,0.06826711909382,3.16868746172,0.07012999594647999
1191,595.7489676399999,0.041240092224780006,3.04084359376,0.19496144277520003
1192,596.25043542,0.046673766475999995,3.4269275775400003,0.1562062260748
1193,596.75190324,-0.0071407801905000005,3.0231597366800003,0.2724439031138
1194,597.253371412,-0.010989955478559996,0.8307249000656001,0.1710731227101
1195,597.7498251122448,-0.02518304325928572,0.6058054956326531,0.19363928135857145
1196,598.246278318,-0.03589474112654,2.0543030265,0.0768385298464
1197,598.7477461999999,-0.27128996911152004,1.9434484628600002,0.1595655567182
1198,599.249214048,-0.35041565754236,2.2645463165199997,-0.6111721001378
1199,599.7506816399999,0.24246564843096,2.23401512676,0.3405621762226
1200,600.25214991,0.239725975493,0.3380121069516,0.273015889459374
1201,600.75361834,0.8010110519968001,-0.1066725072138,0.3371725570008
1202,601.2500719,1.573369993787755,0.7931823804102042,-0.0306446844789796
1203,601.7465254,1.267932702912,1.145311023206,0.014588241703799994
1204,602.247993724,1.287039544758,1.28389345839,-0.75734170921898
1205,602.74946204,0.9533620521755999,1.16820331902,0.8794270579872
1206,603.25093044,1.623873479996,0.980108466246,0.1827462116721
1207,603.75239894,1.92152926722,0.42513327898456,-0.23555122341360002
1208,604.2538677379999,1.9140574071399998,-1.177737070378,0.30907290848062
1209,604.7503220918367,1.7176416845081632,0.1881343858712449,-0.10188468980857142
1210,605.24677596,1.4501936204099999,0.24556067572218002,0.11509407859
1211,605.7482445,1.4969078725259999,0.2588295758216,0.21509189768662001
1212,606.249713358,1.85415597612,0.18620504729787998,0.0297500602072
1213,606.7511822199999,2.25954102104,0.108763839810878,0.12967710459273998
1214,607.252651244,2.46382029136,0.0045052475002600005,0.15776411143208
1215,607.75412022,1.74386045021,-0.05113944257766,0.45794400132679997
1216,608.2505750061224,1.528059777232857,-0.18498020682042857,0.33858032546020406
1217,608.747029986,2.139678410876,-0.1475706267528,-1.0854078241831
1218,609.248499552,2.2664987267348,-0.2548141590838,0.510651972654
1219,609.7499691600001,1.6671229674899999,-0.2569839102376,0.065865668347696
1220,610.251438788,1.0913918165096,-0.22470491463886,0.26740943873604
1221,610.75290842,0.62280407442024,-0.254728167,0.18027446497129201
1222,611.2493634367347,-0.505145830402653,-0.43981958410612243,0.4915926393864898
1223,611.7458184,-0.7260594358384,-1.381743827664,0.11675190457860002
1224,612.247288508,-0.43097657696020003,-1.4808135415600001,-0.055749377163039994
1225,612.7487591,-0.29965321656984,-1.3411520619180002,-0.06745995845512
1226,613.2502291,-0.23384945704912,-1.304545119564,0.2087857107252
1227,613.7516991,-0.7722315035180399,-1.216914826654,0.1347377528275
1228,614.2531692360001,-1.945397763768,-1.15072381266,0.1697552187402
1229,614.7496247816326,-2.636391259836735,-1.0868020957714286,0.016931675020816328
1230,615.2460798999999,-3.05309550456,-0.9720165937359999,-0.5168469456182401
1231,615.74754966,-3.2249974611599996,-0.956438791864,0.239758447088
1232,616.249019672,-2.68324309892,-0.9298807507719999,0.0759488292216
1233,616.75048948,-2.12371700172,-0.27466542542308003,0.26234238198660004
1234,617.251959732,-2.26988215222,0.099749860241,-0.064830945061904
1235,617.75343022,-2.162166906022,0.316704490979194,0.0060867176074
1236,618.2498859795918,-1.8148564612591835,0.2793085338677551,0.27321337090306125
1237,618.74634186,-1.704535763623,0.1178944620224,0.5177386810972
1238,619.24781237,-3.12471362849,0.05584951493068,-0.5144763791328
1239,619.74928282,-3.42554780424,-0.017237922289380002,-0.08125313090639999
1240,620.2507536,-2.59058992938,-0.127089619588238,0.45083582192480004
1241,620.7522245,-0.45575952249968,-0.13592380422104,-0.3273771960804
1242,621.2536953499999,0.7940811202286,-0.782456562786,0.326911909725
1243,621.7501515714285,1.0113084945734694,-0.9186484929918368,0.22356703749693876
1244,622.24660749,0.6815941718152,-0.7905236413219999,0.007330736125079995
1245,622.7480779,-0.26695791674536,-0.706582568042,0.1675188341706
1246,623.24954908,0.16235314223404,-0.725189211516,-0.1896120356777
1247,623.7510206,0.1348162370632,-0.7399920000100001,0.1451588125688
1248,624.252491698,0.268920521529322,-0.65903786428,-0.039870035147880005
1249,624.7539629080001,0.7041456064467999,-0.6451692722839999,0.0005721032866800057
1250,625.2504194183674,0.8204889465116327,-0.5940026112469388,-0.06069783351610204
1251,625.74687616,0.60199740215692,-0.5174210033219999,0.027366571420000003
1252,626.248347228,0.7951896858198001,-0.518300811942,0.0640437344434
1253,626.74981796,1.232664405854,-0.694959592636,-0.18851960041280003
1254,627.2512897,1.505670650308,-1.015069401332,-0.0293144192696
1255,627.7527618600001,1.0927023877220001,-1.76499935246,0.0659060609244
1256,628.25423332,0.46019213004119996,-2.18887210174,-0.24466623737766
1257,628.7506900040817,-0.13096170143018368,-2.2585874509387756,-0.00860051437693877
1258,629.247147274,-0.49528946729914,-2.38502440324,-0.10739689746810001
1259,629.748619456,-0.463954023553,-2.6555958875,-0.13019247818684002
1260,630.250091084,-0.29227422700719996,-2.77053557614,-0.18434098126361997
1261,630.75156258,-0.4279251917552,-2.41332683016,-0.079720692628
1262,631.253034276,-0.3570032624342,-1.84237635242,-0.0020395906847400004
1263,631.7494912530613,0.05192721216710205,-0.9903131957510204,0.0004543167335102083
1264,632.245948714,0.08356125897778,-0.7787869573039999,0.025664329971280004
1265,632.747421222,0.11288902998724,-0.708170206968,0.2210342124656
1266,633.2488932580001,0.09098922772594001,-0.29817402595402,0.21869320949639998
1267,633.75036518,0.29824973953768,0.08593457839739999,-0.09383121683201999
1268,634.2518374480001,1.343392029306,0.949759563442,0.4778443566002
1269,634.7533096980001,3.2432213057,1.037679139982,-0.009071919993999998
1270,635.2497673959184,3.7169622344693876,0.17026774559930613,0.29294327268463266
1271,635.74622526,2.3360591497780003,0.7697549912981999,0.04541324236736
1272,636.247697782,-0.168139729599,1.023962665524,0.2307688441902
1273,636.74917022,-3.7738130205200004,1.151751604822,0.06053770884774
1274,637.250643056,-4.14587907668,1.1873587507799999,0.09004789287808
1275,637.7521160599999,-4.44724225002,0.993449830184,-0.0266602745204
1276,638.2535889960001,-4.7964617553,0.844938981348,0.07610794365384
1277,638.7500473061224,-4.4242940527959185,0.814644660410204,-0.04408528527884081
1278,639.246505396,-4.222638827,0.7552131180339999,-0.013722701770040006
1279,639.74797802,-3.9969916057400003,0.606800841586,0.0353267953664
1280,640.249451098,-4.12701612854,0.3122038454206,0.09819580078172001
1281,640.75092432,-3.76961481906,0.11096435975261,-0.07684192124338
1282,641.252397322,-3.6911683575799996,-0.04775898667786001,0.01314215511676
1283,641.7538702400001,-3.40472743052,0.12315411381027999,-0.12980531065648
1284,642.2503287816327,-1.9424063422167346,0.5803320955081632,0.14198016925061224
1285,642.74678752,1.406946799161,0.872458205264,0.04401893870839999
1286,643.248260604,3.1681258746600003,1.3589087957219999,0.0400635429046
1287,643.7497334660001,3.73581665548,1.445931162392,0.128823188954288
1288,644.251206944,2.193630790964,1.64018728326,0.29261114870148
1289,644.75268066,0.2290671640888,1.706470285,0.421806045117
1290,645.254154098,-0.05097963379268,1.300242171116,-0.10803638407354
1291,645.7506130612245,0.24285388740244898,-1.063372453269796,0.10287611503673469
1292,646.2470719,0.4582895706862,0.2658388868462,-0.10214511549340001
1293,646.74854554,0.40328784902377995,0.458456905199,0.3951938464294
1294,647.25001934,0.2777069826482,0.630005166066,0.22439342616400001
1295,647.75149307,0.28559688928376004,0.5410600785266201,-0.1156602410808
1296,648.2529672420001,0.041525918389119995,0.6837974085540001,0.08023302569560001
1297,648.7494270183673,-0.07692080395571428,-0.09339199537285713,0.0013297522991836828
1298,649.245886368,-0.03662239070634,-0.85203934886262,0.24931446977580002
1299,649.74736028,0.20227410735408,-0.09210606308438,0.07672597095396401
1300,650.248834566,0.2746234399532,0.12411234747774,0.19555210510565998
1301,650.75030914,0.1958527345908,0.14833637520348,-0.120218788904
1302,651.25178337,0.6160154201216,0.08501783584598,0.15126776130737998
1303,651.75325738,0.0875163331962,0.09064134434135801,0.1915648186004
1304,652.249717165306,-0.21428716653067756,0.03868760266718368,0.040135849099732654
1305,652.74617702,-0.06664024426083999,-0.016943659522818,0.21093147511565
1306,653.247651696,0.006913129092359999,-0.14285810716356,0.15118138620240001
1307,653.74912698,-0.12646774663494,-1.32300690472,0.0955841302688
1308,654.250601476,-0.10439940277212,-1.4881766668719998,-0.047185404798500016
1309,654.7520764,0.09206964882016001,-1.37628792516,0.07657511279780001
1310,655.2535514,0.33628834488739995,-1.2676047792,-0.10847542809371999
1311,655.7500116551021,0.2457148757644898,-1.1170559207387756,-0.1983553948989796
1312,656.246471812,0.0721397767087,-0.998569852398,0.15119762979064
1313,656.74794686,0.039003610219179995,-0.82289802183,-0.0629038665136
1314,657.249422168,-0.037527064703799996,-0.7113090120619999,-0.0862710944374
1315,657.75089798,-0.079529848276344,-0.609243885758,-0.029144089869519996
1316,658.252373128,0.04112230089072,-0.509423123288,0.128452253272
1317,658.75384832,0.021391645425899997,-0.43588809631399994,-0.058262545531480005
1318,659.2503088591837,0.01984020067060796,-0.392752414255102,-0.07181324727910204
1319,659.7467694200001,0.03738955965106,-0.3531515925828,0.1035334900338
1320,660.2482447900001,-0.022750255850699997,-0.49446606550399996,0.4533961890416
1321,660.7497194800001,-0.057824065584,-0.488695590906,0.27546435255352003
1322,661.25119501,-0.04183211969586,-0.25744331866821996,-0.736837500246
1323,661.7526707000001,0.037975682170781996,-0.305692739826,-0.018262585265799994
1324,662.254146134,-0.0177225513056,-0.2711780335476,0.012245168848759995
1325,662.7506068897959,0.06270655272130612,-0.12805187782142857,-0.9511485273185306
1326,663.2470678779999,-0.043055465762200006,-0.3270638730304,0.91166598554
1327,663.74854372,0.094619839208,-0.33957829301826004,0.2038993446396
1328,664.2500195380001,0.007933992631380006,-0.28776372214199997,-0.2262770598892
1329,664.7514952399999,0.06150672294204,-0.24352958250522,-0.2579214542638
1330,665.252971036,0.08349978135054,-0.22816258960068,0.29464814323066
1331,665.749432089796,0.051669594030183674,-0.21767621384387753,-0.009227789346530615
1332,666.245893278,0.039235197553436005,-0.1545369892604,0.05769059429
1333,666.7473693,0.0318950425658,-0.11202287096454,-0.030683743609135002
1334,667.2488454679999,0.0024052574568000098,-0.10639818427508001,-0.08968952872679999
1335,667.75032194,0.019476250879200005,-0.109340696142,0.2088247817856
1336,668.251798222,-6.254876721999648e-05,-0.08516264799451999,0.008562276681999994
1337,668.75327454,-0.060378958221000006,-0.0665251173344,-0.08028501909579999
1338,669.2497359510204,-0.000559834630204085,-0.0818743856930204,0.16320861693540817
1339,669.746196948,-0.10173242448431999,-0.02597028260748,-0.11894244698598
1340,670.2476733620001,0.05007391013668,-0.01838198247786,-0.01179262944095
1341,670.7491500199999,0.058659270519,-0.018454449948022,0.12011797117619999
1342,671.2506264819999,0.0757543000274,-0.01477843263816,-0.1449675384664
1343,671.75210302,0.0350456919293,-0.05122228300652,0.21704192070640002
1344,672.2535796740001,0.03471021980754,-0.0208244770137,0.0313608044082
1345,672.7500418285714,0.03403208797369184,-0.030747364238987964,0.037285224062448975
1346,673.246503288,0.055121382739999995,-0.022606218640626,0.027649143928399997
1347,673.747979074,1.370348925058,-0.012665387778679999,0.058484423982599995
1348,674.2494552979999,1.3818347145379999,-0.0727400073732,0.07339488237879999
1349,674.75093146,-0.24305148857922,-0.12476869596620001,0.2553490652548
1350,675.2524079880001,-0.9626177247069999,0.05703720594814,-0.8180888653412001
1351,675.753884794,-0.9954682794699999,-0.13146396254732,0.947564743812
1352,676.2503466795918,-0.6071156411863265,-0.13108066989514286,-0.04048511879773469
1353,676.7468086199999,-0.48263517078280005,-0.25040465973638,0.0011303252426000077
1354,677.24828544,-0.24275836765236,-0.7243802178059999,0.0392565920604
1355,677.74976246,0.08988307339360001,-1.65106870902,-0.024426310698780002
1356,678.25123934,0.20357932648,-2.06668768656,-0.09456257485742
1357,678.7527159800001,0.1486423779094,-1.64315987032,-0.0030001127914000046
1358,679.25419328,-0.7444479057355999,-0.1620458578767148,-0.0350567943356
1359,679.750656167347,-1.2428966716918366,0.24009086022561224,0.011490100955102039
1360,680.247118728,-1.380805757444,0.48333645915600004,0.1272178826448
1361,680.74859592,-0.98116689562,0.388717011354,0.11923575500309999
1362,681.2500736200001,-0.1480744564874,0.24462421927954,0.0008969862688799979
1363,681.75155172,0.37142382135299995,0.4651156961044,-0.0033989981544319957
1364,682.2530294920001,0.979166320466,0.26294257236164,0.1745391884218
1365,682.7494926734695,1.0719100877836736,0.14910167665779592,0.15147394724032653
1366,683.245955642,1.163161754698,0.09609612556842001,0.17247655971292
1367,683.7474331799999,1.49561760037618,-0.00490353351866,-0.07984895712878001
1368,684.248911082,1.419586703278,0.015018016456037998,-0.22849087421699998
1369,684.75038898,1.25765376025,0.005745583740000004,0.36279716099436
1370,685.251866946,1.204147478436,-0.16497635081881998,0.04996167448433999
1371,685.75334476,1.04576458869,-0.468883967864,-0.0550606453303
1372,686.2498082734694,0.6886503648326531,-0.4536656028155102,-0.10457067393530614
1373,686.74627233,0.5031989244862001,-0.41283536235600005,0.009187414203220003
1374,687.247750604,0.1845507793694,-0.10831410926480001,-0.004622949029440001
1375,687.74922888,0.14915919467968,0.19320911849716002,0.07901981026798001
1376,688.250707154,0.03659001614218001,0.1931033102098,0.16229851022304
1377,688.75218498,-0.1469291703982,0.054544982319200006,0.11762734969916
1378,689.253663454,-0.5096944932986,1.2475802304502,0.0906362163259
1379,689.7501273693879,-0.5314147897981633,1.5500715952040818,0.02835471193436735
1380,690.246591184,-0.34779213191948005,-0.073187501543,-0.045451062159379996
1381,690.748070052,-0.3266398585386,-0.32791703333199995,-0.11326469533641999
1382,691.249548636,-0.20344420464058,-0.28141366275,0.102340014875654
1383,691.75102722,-0.24177074442524,-0.30401316002,0.11110632430494
1384,692.25250605,-0.833701004894,-0.254172653006,-0.054599697626778
1385,692.7539858199999,-1.1167935391980002,-0.17229048083940002,-0.081403474515166
1386,693.2504493306122,-1.0407594549795918,-0.13793253116755103,-0.031226673333816325
1387,693.7469114920001,-0.726929393332,-0.1116537596407,-0.04057361891008
1388,694.248390244,-0.5100168159404,-0.103249511261232,-0.023897663930040003
1389,694.7498689600001,-0.39661342320054,-0.1256491360806,0.01536395674102
1390,695.2513478999999,-0.33590906725380004,-0.1513098363872,0.010685926936746
1391,695.7528269,-0.6774108237759999,-0.2662915826728,0.10272172109700001
1392,696.2492911795918,-2.119232727632653,-0.6256679957995919,-0.19394275184516738
1393,696.74575574,-2.31841805624,-0.894808800812,0.10590818467180001
1394,697.2472347519999,-2.5619151604400003,-0.1631436411114,0.17283755511270002
1395,697.7487136000001,-2.45207555942,0.1468186832392,0.166476813588
1396,698.250192708,-2.81962266214,-0.108496430563386,0.065781924536058
1397,698.75167206,-1.88866764774,0.0850727543579,0.10206642365514
1398,699.253151236,0.31726125501080005,0.004844558499760001,0.08068952948345999
1399,699.749615632653,1.4999085871959184,0.09494752034016736,-0.1514216683634694
1400,700.2460799439999,1.1925266712106,0.796053908664,0.11836840242220001
1401,700.7475586600001,-1.6317136811119999,1.312998656972,-0.86722152151364
1402,701.249038076,-3.70300946914,1.6616879951519998,0.08001457365915199
1403,701.7505183,-3.7633476330000004,1.29498233898,0.6081127550534
1404,702.251997592,-0.7311543453974,1.207622323326,0.45612274568620004
1405,702.7534766800001,1.91772952432,-0.4746112834538,0.8428987650568
1406,703.2499412755102,2.3422431922040814,-0.7349979982277551,0.23634749962106125
1407,703.7464059399999,1.965994616374,0.035776675751,0.14315888939260002
1408,704.247885182,1.041561191986,0.309697698096,0.05579896158292
1409,704.7493639600001,0.1266224770998,0.3337790669212,0.15211192379271998
1410,705.2508434060001,-0.06913507740857999,-0.264606599287,-0.012038177432800001
1411,705.75232276,-0.24349974324152002,-1.64047325746,0.203174172887
1412,706.2538022479999,-0.23414698493623998,-1.7717187856,-0.18525008295914
1413,706.750267167347,-0.09357772470306122,-1.883109461265306,0.14150498153265306
1414,707.246731996,-0.30502379002811997,-2.0819710160200002,-0.35729763249580004
1415,707.74821186,-0.310614679537,-2.5543195366,0.23695666014099998
1416,708.249691426,-0.32057851399548,-2.8049578218200004,-0.35018706744120004
1417,708.75117096,-0.32236533108559995,-2.76050854272,-0.035059694547932
1418,709.25265054,-0.20115631684492002,-2.7257784907600002,-0.24945120106739999
1419,709.75413016,-0.0043651257470000045,-2.9612968733000002,-0.0809123785521
1420,710.2505949571429,-0.047407743313081625,-2.847648005081633,-0.16087955161914286
1421,710.74705982,-0.036978120234599995,-2.2654549358400002,-0.15413785540480002
1422,711.2485395079999,-0.11715790214734,-1.0591181374468,0.06704575341935999
1423,711.750019416,-0.19009323539859999,-0.38398977430484005,-0.0351772937574
1424,712.2514991779999,-0.29285574193782,-0.94645719339,-0.0660174854612
1425,712.75297924,-0.18810925064700001,-1.300543362606,0.030369982011652003
1426,713.2494442346939,-0.03914021631951021,-1.5401235810408165,0.020484443197387757
1427,713.7459088600001,0.8230991234806,-1.40296060458,0.0947376639009
1428,714.2473888000001,1.80318326694,-0.5622614568313999,-0.046621300462
1429,714.74886866,2.42374884598,0.736576755388,-0.09823480170707999
1430,715.250348502,3.4716548947400003,1.474214853458,0.07160281604138
1431,715.7518278,3.80905632936,0.797717116274,-0.0722220010608
1432,716.25330784,3.17405810304,0.7375796507865999,0.0715192476208
1433,716.7497738918368,1.0067898439061225,1.4664919227938775,-0.7931475838638163
1434,717.246239016,-1.1672181772563999,1.54493459666,1.1133613507888
1435,717.7477184,-1.395785698192,1.88862724346,0.32403123219519997
1436,718.24919858,-1.6944644514340002,1.135271594396,1.0850159438658
1437,718.7506796,-1.4133173844146,0.4328288275856,-0.013492029161600012
1438,719.252159628,-1.351664246842,0.11937939405294,0.03370742068722
1439,719.75363886,-0.585808702071,-0.303952554361,0.0490996662498
1440,720.2501043163265,-0.18749832431589797,-0.2349908553387755,0.012090848658397957
1441,720.74657008,0.07358587527699999,-0.20056425651154,0.053520968201060004
1442,721.248050272,0.0532783730692,-0.1388867031444016,-0.17528421723924
1443,721.7495305,-0.135831750597,-0.14421356191588,0.07022070966216
1444,722.251010576,-0.21629622882789998,-0.17040335996846,0.1555768668662
1445,722.75249062,-0.10928306708400001,-0.18432910338189,0.012678353972539991
1446,723.253970736,-0.13075460338356598,-0.15162116188377,-0.1527032176584
1447,723.750435967347,0.025439053133387755,-0.11672214271918369,0.10486999172893878
1448,724.24690131,-0.065455844956,-0.132570828043,0.0012507194287600012
1449,724.7483812400001,-0.19665113086868,-0.23094529488562,0.024421586138899998
1450,725.249861432,0.015077357702639998,-0.2099674972949,0.08908045935541999
1451,725.7513417,0.18704691158989997,-0.13642879534918,-0.08029554409248
1452,726.2528219,0.25105999895738,-0.12200769482672,-0.08778786216369999
1453,726.7492876959184,0.14241979690183673,-0.17748437020836733,0.08097548815469388
1454,727.24575321,0.29649487946740005,-0.29485187336700003,0.42745802225026
1455,727.7472345799999,0.3225816405108,-0.27294435751522,-0.49589713208459996
1456,728.248714606,0.27230968650820003,-0.5094584214528,0.21534867227040003
1457,728.750193956,-0.05944633829119999,-1.416197732324,-0.17329021147079998
1458,729.2516741359999,-0.04171810682460002,-1.5159629792059999,-0.07917754476330799
1459,729.7531540199999,-0.13029746175112,-0.24019726016020002,-0.0507007508592
1460,730.2496194510205,-0.2870616426465306,-0.05467540128369388,0.2374419909753061
1461,730.74608458,-0.3109382873988,0.1913150240814,0.15031936632600001
1462,731.2475649,-0.30861423095924,0.9917248919767999,0.23214081155079996
1463,731.7490455599999,-0.9247235708682,1.4231407374660001,-0.4708763466232
1464,732.25052586,-0.8068010484674,1.59684442748,0.1579970411203948
1465,732.75200634,-1.0132617456356001,1.61542682178,0.316697174819436
1466,733.2534868900001,-1.4584672722171999,1.3912965948359999,0.037900798154800006
1467,733.7499547938776,-1.6052667136157142,0.8093160830795918,-0.1287497579332449
1468,734.246420056,-1.0209858078362,0.27928257702584,0.1230055952492
1469,734.747897614,-1.2328605287662802,-0.21914758092094,0.23412582432
1470,735.249377936,-1.1920747300462,-0.56127933749304,0.3278898916568
1471,735.7508587799999,-1.1313120323896,-0.5720155099118,0.02964850574639999
1472,736.2523389800001,-0.849464735581,-0.6943538693332001,0.4524647275621
1473,736.75381886,-0.2346019504092,-0.40438735670624,-0.9002392280220001
1474,737.250284332653,0.44295672606571423,-0.26976260976224486,-0.1648212909812245
1475,737.7467505000001,0.862595274669,-0.19576728118998002,0.02529851642460001
1476,738.248230664,1.2761165965734,-0.146244178594,0.2442152650376
1477,738.74970976,1.599909851836,-0.221419806366,-0.03397025304004
1478,739.251190012,1.4809040142304,-0.15254095741928,0.029074250738599997
1479,739.752671,1.6766219562381999,-0.11243323733736,-0.0605137586594
1480,740.2541510899999,1.554761736406,-0.19028590023547998,0.34303211029806
1481,740.7506156428572,1.723239698822449,-0.26666868648587755,-0.28119896107285713
1482,741.247080988,1.7089847281019999,-0.270113849804,0.10161895964266002
1483,741.74856214,1.560001134775,-0.29200137400627996,-0.050369751671314
1484,742.250042128,1.3520872102842199,-0.41432176257279996,0.31712314450560003
1485,742.75152132,1.211026204914,-0.51631838288246,-0.36221084897600003
1486,743.2530015039999,1.079493335592,-1.2537890613132,0.23948159316280002
1487,743.749467,0.9054618997640816,-1.4303620115530613,-0.3714514625826531
1488,744.2459321700001,0.5997732632536,-1.492182578996,-0.07093887640060001
1489,744.7474116799999,-0.3083433253942,-1.218533662652,0.2896911427518
1490,745.248891566,-0.52318858721,-0.5697262272294,-0.12173092564056001
1491,745.75037223,-0.29627101729584,-0.4833703437706,0.05251908288880001
1492,746.251852012,-0.3167996099892,-0.6661889286139601,-0.23003425850000003
1493,746.75333122,-0.2673745285224,-0.28642528862523997,-0.2197780434652
1494,747.2497962020409,0.010833505033673477,-0.11832187976026531,0.31271307874530613
1495,747.74626108,2.091641273904,-0.4081797361556,-0.13805952093762
1496,748.2477409019999,3.6021057905600005,-0.8505231819319999,-0.0403520912872
1497,748.74922134,3.92075550288,-0.901514833256,-0.026815939085488804
1498,749.25070117,3.93900574462,-0.7656081218919999,-0.05750404473794
1499,749.7521814199999,3.79362702996,-0.526450891731,-0.113671135276687
1500,750.253661176,1.416383715544,0.16480675671370001,0.20075535523399998
1501,750.7501258734693,-0.35755613795759184,0.24853507223538776,0.10452036403085511
1502,751.246590782,-1.206807201102,0.20772130237702002,0.0322927453294
1503,751.7480702199999,-1.0590470214580001,0.23143740687624,0.010381941902399995
1504,752.2495499820001,-1.1580445996900002,0.1778647608928,-0.0782071642236
1505,752.75102944,-1.479695498378,-0.1239098018582,0.11375544045098002
1506,753.2525092239999,-1.2799935453716,-0.29460276023327997,0.006223483991140002
1507,753.75398934,-0.8758828201144,-0.554956042252,0.11711422151
1508,754.2504542653061,-0.31043392806630615,-0.6172901152938776,-0.2286449743489796
1509,754.74691916,0.28569400735588,-0.5359992072164,0.11992845124780001
1510,755.248398788,0.52247645409114,-0.4940677511668,-0.050843072065
1511,755.7498781999999,0.5514152226061758,-0.5690904408128,0.06694163790536
1512,756.2513577340001,0.27968680382268,-0.55650570332,0.031448524319
1513,756.75283718,0.245125362937,-0.4678994195334,-0.03975856383448
1514,757.2493019,0.4173186715042857,-0.3805940011648367,-0.023575090451897956
1515,757.74576702,0.48227213764060006,-0.353290697108,0.04753870525220001
1516,758.2472464800001,0.40044056755308,-0.3083406163568,0.0596898742546
1517,758.74872596,0.2073323821576,-0.372591736178,-0.08874803344232002
1518,759.2502054319999,0.2559223003508248,-0.3821255065404,-0.009445124389359998
1519,759.7516847200001,0.2683967334374,-1.020282348288,-0.029497963372600005
1520,760.25316429,0.10256515532083998,-1.53741815734,-0.0279003987876
1521,760.7496294612245,-0.7291610377565306,-0.7114279375740816,0.06097993185365306
1522,761.246094204,-2.54702941826,-0.4667965206486,0.027150797429660006
1523,761.7475732800001,-3.09253804962,-0.27665851695136,-0.08027282180827999
1524,762.24905273,-3.11452626144,-0.0012307497252000007,-0.12581773177482
1525,762.750532352,-3.36306877308,0.004572176924631604,-0.0504573663402
1526,763.2520117400001,-2.971754242806,0.18097641882588,-0.052438449760800004
1527,763.75349074,-1.2892405368688,0.47472111496962,0.144772066047
1528,764.2499552571428,-0.7515141356795918,0.38219918305775513,0.053781591740326526
1529,764.74641938,0.08372364636052002,0.4217503394452,-0.10629088493186
1530,765.2478987439999,0.19179082590819999,0.0345484187721,0.1359232874856
1531,765.7493787,0.15901192333302,-0.2512005315648,0.0220911549638
1532,766.250858056,-0.3194532091308,-0.32578090585368,0.1372661356318
1533,766.7523377599999,-0.23138193791140002,-0.35202232713160003,0.05669497718582
1534,767.2538171079999,-0.5355865566202,-0.34775778209325997,-0.09410381402000001
1535,767.7502812836735,-0.2735462896704286,-0.294346392646551,0.02063064744918367
1536,768.2467457380001,-0.32650527610380004,-0.2770602754846,0.042943986590900006
1537,768.7482249200001,-0.28102608588652,-0.18822911800926,-0.10047196980900001
1538,769.249704164,-0.47214737091226,-0.10001971398122599,0.17913360303926
1539,769.75118354,-0.44790794928247996,-0.014110245725460002,0.018391598229280003
1540,770.252662792,-0.4549386457836,-0.03785466290436001,0.07279384707718
1541,770.75414236,-0.3483415976746,-0.07827026701936,-0.05674081935721
1542,771.2506067755103,-0.19977523460714286,-0.13676202301008164,-0.13441415860265307
1543,771.7470707,0.2686010724228,-0.3008794807472,0.26120949565448
1544,772.2485499720001,0.23368494748660001,-0.3498922942832,0.04096158166918
1545,772.75002986,0.36113415656146003,-0.3829614193778,-6.351246053998532e-05
1546,773.2515091820001,0.849935923054,-0.39004254809919997,-0.04653660944274
1547,773.7529876599999,0.8865764269872,-0.38612481274559995,-0.006638180197999996
1548,774.2494523020408,0.9731972532684694,-0.3800151894579592,0.04559700532693878
1549,774.7459172120001,0.8413194323073999,-0.5125671316775999,-0.145450389814396
1550,775.2473967379999,0.5310834966836,-0.798235737978,0.04109351824644
1551,775.7488766199999,0.4989323278274,-0.8920554986556,-0.070804296904
1552,776.2503562779999,0.63974135174056,-1.1454834291359999,0.039236267129460003
1553,776.75183588,0.457349327076,-0.7526005352903999,-0.1152431709018
1554,777.253315672,-0.78542188462708,-0.20251808462482,-0.004425652271959999
1555,777.7497803755101,-2.2439694698408164,-0.43150361583897956,0.06372395856648978
1556,778.24624544,-2.65470357024,-0.5269141596665999,-0.2415802172924
1557,778.74772618,-2.47967160914,-0.5922580794902,0.23615686631420002
1558,779.2492061840001,-1.79648038073354,-0.6366250876512001,0.1547952812082
1559,779.75068558,-1.234986729833,-0.1081756789062,-0.42120199269498004
1560,780.25216575,-0.44293104088920005,0.5239049570024,0.13836349430755202
1561,780.75364648,0.16387543521239997,0.39196018340553995,0.25937186780314003
1562,781.2501119204082,0.24477825379387755,-0.37920531728,-0.009608299890265308
1563,781.7465775,0.16795923314556,-0.499046850266,-0.1055029492356
1564,782.24805778,0.35273787284564,-0.492110228176,-0.025168486083599995
1565,782.74953756,-0.3315220202564,-0.3885418901698,0.06685115808582
1566,783.25101782,-1.348879325508,-0.412106207256,0.104046068685
1567,783.752498352,-1.89028340886,-0.12213936754149801,-0.17010633240499998
1568,784.2539786320001,-2.477233894742,-0.23478398830420003,0.00971698483815998
1569,784.7504439244899,-2.1429993411836734,0.08668751529065714,-0.049432528190000005
1570,785.2469093,-2.32624301078,0.07552038180578,0.032111832481644
1571,785.74839294,-1.6940752570839999,0.10124437237856,0.15111830645346
1572,786.249873,-1.1630236244554,0.061826403380400005,-0.07805534712698
1573,786.7513498000001,-0.3478363365,-0.007828632385080001,-0.03083078938618
1574,787.2528298000001,0.21388449553126002,-0.313555810485,0.126561064927
1575,787.7492952714285,0.15972287951306122,-0.3968584696667347,-0.00794746391502245
1576,788.245760418,0.06214943766337999,-0.35985073841480003,0.05016923893994
1577,788.7472395,0.014469882943599997,-0.32284550308557597,-0.082987298118
1578,789.2487194,-0.04972717882680001,-0.36417564060540003,-0.008468709538799997
1579,789.75019976,0.0943478306898,-0.3699868878482,0.0005336636795199984
1580,790.25167954,0.093385243211,-0.3530274693489,0.06056850027559999
1581,790.7531596599999,0.059370044158000006,-1.2829323750200001,-0.11635139369142002
1582,791.2496245632652,0.06777961896510204,-2.085016806938776,-0.06885264687428572
1583,791.746089244,0.06049394306800002,-1.9991591725,-0.0343826571424
1584,792.24756888,0.03226202875622,-1.4997403470680002,-0.0779942203362
1585,792.7490478120001,0.031615154488239997,-0.33120949045400006,0.03079692231348
1586,793.25052732,0.016070310807479997,0.11545491029819999,0.12460731136124
1587,793.75200706,0.012935115902718003,0.5077214007992,0.07098711590486001
1588,794.25348646,-0.005586342212320001,0.09698978623771999,0.05407070002968
1589,794.7499515428572,0.02740508943034694,-0.049130289779591836,0.06867079846604081
1590,795.2464162,0.15641916613620002,0.3483041411608,0.04693357690478
1591,795.7478956,0.1852070692106,0.710604746368,0.082683441705862
1592,796.24937502,-0.0493433968466,0.33207327769938,0.08196015282876001
1593,796.750854146,-0.48084741712294,0.741654704014,0.04909960777786
1594,797.25233348,-0.5339113066701401,0.657217892842,0.12431771046064
1595,797.7538129879999,-0.36089933641920197,0.456901855018,0.07523482571838
1596,798.2502775163265,-0.40399409504567346,0.20318078575983672,0.06884728892387755
1597,798.7467419039999,-0.3778718994698,-0.06446225766644,-0.020761346093140003
1598,799.2482213,-0.42862303979739996,-0.34077578816299997,0.051051841056104
1599,799.7497005439999,-0.6706790559554,-0.03599526367206,-0.015307694829999998
1600,800.25118008,-0.987492271152,-0.06342266803586,0.23550180273992002
1601,800.752659268,-0.5969991510722,0.08648407340564,-0.12699268298014
1602,801.25413882,-1.390130685668,0.3340918461781,0.1635326469632
1603,801.7506042102041,-0.6251920686481633,0.5175342874182857,-0.1881465263000204
1604,802.247069,-0.027355249612200004,0.4050901405106,0.2186070683284
1605,802.748548266,-0.0021278342136000026,0.09988280728222,-0.016701320204360003
1606,803.250027808,-0.04400885573178,-0.08293233794565999,-0.020362086511419998
1607,803.7515071040001,0.05617166632520001,-0.2993792438046,-0.0231015655108
1608,804.25298664,-0.01887661256984,0.78268085793476,0.18599244546899998
1609,804.7494519816327,-0.018275495993183673,-0.020981226812979585,0.01850753538163265
1610,805.2459166000001,-0.010610424353080001,-0.3003723371052,-0.00735246437608
1611,805.747395612,-0.01700809764174,-0.20952749796839998,0.011964420638802
1612,806.248874892,0.009270349064579998,-0.15748028466124,-0.00652088506444
1613,806.75035458,-0.00035410185032179936,-0.15839267761700002,0.039107897364784
