Time (s),Accelerometer_X,Accelerometer_Y,Accelerometer_Z
10.24727996,-0.13645812554302936,2.1564118384208144,9.6099944841943
10.74727996,-0.014133717975824389,2.4362751519523558,9.216796891816132
11.24727996,0.001965601168476078,2.6276613810261313,9.410896661755464
11.74727996,0.06254727789015602,2.4645550792457396,9.478092397449167
12.24727996,-0.09734221447548759,2.3772112833610732,9.294663798465095
12.74727996,0.008180933572571691,2.193797781534487,9.539616134128515
13.24727996,-0.020151011520939455,2.3439261252047445,9.265099224389731
13.74727996,-0.12050609160257154,2.351716206351154,9.56441616105267
14.24727996,-0.11354650594164943,2.141701569805054,9.358100116828867
14.74727996,-0.11036630104681151,1.828858703428959,9.46581300513126
15.24727996,-0.2976585238652799,1.738815865910247,9.45052044496382
15.74707996,-0.295659943011562,2.0000252128238265,9.582550244092626
16.24707996,-0.5473125924244897,2.0731317640157965,9.368291041038002
16.74707996,-0.41223440588751425,2.008363489206794,9.422557186195982
17.24727996,-0.20139603826422953,2.013634427355637,9.458487295014068
17.74727996,-0.3250774969470258,2.0427799560894013,9.359322932183089
18.24727996,-0.4209398296369374,2.0308324844294483,9.690342668231358
18.74727996,-0.41349403701938153,2.0249450715615698,9.399058034373825
19.24727996,-0.3377363801771599,2.2333010559548345,9.019247315528947
19.74727996,-0.20086527614521832,1.9451600696388893,9.893862427683228
20.24727996,0.06080027480684825,2.0952761191308373,9.27927480767119
20.74727996,0.03859872437673429,1.9042516579701436,9.579735245855883
21.24727996,0.07124150896498596,1.9859270163487677,9.336794236314267
21.74727996,-0.04476027788760439,2.0600531353613176,9.503447965408283
22.24727996,-0.16149446639192722,2.0309170578442957,9.513085133972947
22.74727996,-0.21314853042283474,2.0743251263388953,9.273612995493963
23.24727996,-0.21131502280987782,1.828581906537384,9.65268571810113
23.74727996,-0.14219844671499307,1.7147865712223,9.427045755803954
24.24727996,-0.33336761811164856,1.8410779813166283,9.304840256202894
24.74727996,0.004355176996484176,1.7325176738257182,9.487860103529224
25.24727996,0.0565244275170652,2.00752439573056,9.431599735725257
25.74707996,0.14151654079573922,2.045684889082905,9.745055616220377
26.24727996,-0.19353630396663837,2.3047827323441243,9.225626716159299
26.74727996,-0.21191409775151057,2.0433460036114575,9.686216793301597
27.24727996,-0.38610969173193455,1.9959771863286682,9.101290956081245
27.74727996,-0.2637467763524983,1.631279522338931,9.825565429528263
28.24727996,-0.27923769017828937,1.8250552842255476,9.191622366729009
28.74727996,0.1123183567501504,1.7044266654473639,9.836983831583574
29.24727996,0.7816809076948549,1.7139068723516544,9.332601678669766
29.74727996,1.1697998922331834,1.7818196345128743,9.593199920883226
30.24727996,1.6187403347349423,1.8373230675939902,9.41474181277189
30.74727996,1.3184818371122222,1.8826376924712447,9.488996262866339
31.24727996,1.0782914825022007,1.9552838078529446,9.459597001020558
31.74727996,0.923518666703227,1.9613832272032121,9.529838334553936
32.24727996,0.6283034248757923,2.2100785983020406,9.179650066855027
32.74727996,0.9338663776487002,2.243873128786616,9.52829289726581
33.24707996,0.7653076727729554,2.12415914440972,9.387442575104249
33.74727996,0.7960785495437039,1.9124865781099916,9.356327052032427
34.24727996,0.7963670379003207,1.7853425241491307,9.848812155593592
34.74727996,0.771078050532349,1.8908654621577403,9.388176255006096
35.24727996,0.571029765144066,2.0012086885582723,9.434298179440688
35.74727996,0.7072126646212221,1.8479575627569687,9.588407372538587
36.24727996,0.6435348305517646,1.8777408345064979,9.456772294112774
36.74727996,0.6688222988512743,1.7728196758262755,9.572451031129697
37.24727996,0.3313257269247022,1.7763683361573126,9.596187374786327
37.74727996,-0.16436816401575566,1.2089153904672212,9.69000513807546
38.24707996,-0.42564540373312837,1.4383599873811832,9.208501582396027
38.74707996,0.09878689764172913,1.5889038403075801,9.770151498146262
39.24727996,-0.5353438732974546,2.7487009319166034,8.937250146243308
39.74707996,-0.02812712283926565,2.2047375073532027,9.889879754923719
40.24727996,-0.0542953725974353,2.2058669484825417,9.51592090317301
40.74727996,-0.14124701718859434,2.490962317775208,9.247885525853832
41.24727995999999,0.13237909376087204,2.507088170320695,9.499216311715307
41.74727995999999,0.08154858545764243,2.8003977914496234,9.210589880750694
42.24707996,-0.019234020339396776,2.9179593481060038,9.21254629108973
42.74707996,-0.037932133552145426,2.771358779229059,9.554301887581824
43.24707996,0.14096118380338113,2.974002191945436,9.074369927494049
43.74707996,0.10030107238956959,2.998642384133517,9.42304744767525
44.24727995999999,0.14188550277120354,3.0024293164356397,9.429719136332743
44.746879959999994,0.3521444279573889,3.0083586364251915,8.996317172423256
45.24727995999999,0.41410687840148797,2.960029225778701,9.24896062148525
45.74727995999999,0.4551508384938136,2.932265916480775,9.426787659089987
46.24727995999999,-0.2020188325655027,3.0853254807304307,9.17872347084508
46.74727995999999,0.10064092467390356,2.8746397734877247,9.24200927096842
47.24727995999999,0.1588669911929315,2.661065423266347,9.337927378696847
47.74727995999999,0.13141051966198394,2.7212564396870986,9.12165864499572
48.24727995999999,0.08962403102700833,2.8873602125532964,9.332641091412848
48.74727995999999,0.12397094301454228,3.4565046065553093,9.105613203153801
49.24727995999999,0.9591202311443621,4.032689054772772,8.788394059849535
49.74727995999999,1.1146420383080073,4.25680446571432,8.686706912156769
50.24727995999999,1.032712814907255,4.276978644590519,8.68169803471883
50.74727995999999,0.4801458050902162,2.660039083487632,9.727699912194215
51.24727995999999,0.2924299040925465,2.2723536351262754,9.25044847851213
51.74727995999999,-0.12775677623023443,2.255545556027563,9.350662875303634
52.24727995999999,-0.24405251106269263,2.5734596212905503,9.540972893973768
52.74727995999999,0.6476785079208248,2.9705464285332353,9.30343378712501
53.24727995999999,0.1786906928515829,3.298117412496404,9.334168469221725
53.74727995999999,-0.05972401292346654,2.865959528547665,9.46984808182798
54.24707996,-0.11207895590657714,3.1534616276145133,9.324949542311131
54.74727995999999,-0.08056678541522073,1.4289522837839734,9.552468301389576
55.24707996,-0.17588292353572674,1.2732948986488726,9.579150494598975
55.74727995999999,-0.31516382806758153,1.0733698915209922,9.716256088048642
56.24727995999999,-0.9218794283801547,2.0062404675430257,9.247082159657253
56.74727995999999,-0.4093612405947449,1.4123605058727084,9.599272145012272
57.24727995999999,-0.7809327439249948,1.5645946447297163,9.504625959159853
57.74727995999999,-0.896411437626686,1.6866047707732377,9.46021394989344
58.24727995999999,-0.7965146496857587,1.4450184694230854,9.505744885281244
58.74727995999999,-0.5954101044236085,1.2705106460159963,9.593966363498616
59.24727995999999,-0.4930265238434389,1.3282120363695633,9.560055389154556
59.74727995999999,-0.43149693258913324,1.2423255191093538,9.569968827600935
60.24727995999999,-0.4913375566530941,1.3070036635811229,9.554248351002762
60.74727995999999,-0.548328061353535,1.3041486756390162,9.611772577468837
61.24727995999999,-0.5249097133526586,1.2853749108773342,9.569616453807168
61.746879959999994,-0.4089184847370367,1.246883267703957,9.564426792908618
62.24727995999999,-0.3748194163866389,1.241180771277411,9.57570815905574
62.74727995999999,-0.3369605927792116,1.2171722495382846,9.59497902057175
63.24727995999999,-0.3706658160497073,1.2408737773672822,9.55926045697421
63.74727995999999,-0.3074091454097277,1.1951881690676573,9.614540083444833
64.24727996,-0.37657045311686865,1.0979820842811845,9.400835553956485
64.74707996000001,-0.12502487238515483,1.0960409515847127,9.843132520892508
65.24727996,0.01446503675342829,1.269890373889326,9.524866478330209
65.74707996000001,0.18178363607710687,1.2015192121114586,9.562226129335302
66.24707996000001,0.26224587865802884,1.147431214480832,9.561590260161157
66.74727996,0.165048740761606,1.1325155306161063,9.592065905859124
67.24707996000001,0.002822008436613165,0.9790058240835,9.649026748180159
67.74727996,-0.0947458226383169,1.0654191162672866,9.593773661024416
68.24727996,0.014678283255753983,1.0341630205633328,9.647530624137522
68.74727996,-0.011106718879108,1.013347561116499,9.615047072394113
69.24727996,0.1623458687139011,0.9824859040987992,9.618434920049134
69.74707996000001,0.24983059229018714,0.9301860401537199,9.609619959544457
70.24727996,0.3333764335680172,0.9017695236536691,9.657231155080376
70.74707996000001,0.3131085508077983,0.9592853142207077,9.618951024028247
71.24727996,0.2665267448689875,0.92169857227826,9.61123573531872
71.74727996,0.21703401555220964,0.9619143570766744,9.626254861626313
72.24727996,0.18901452985074624,0.9637460383250991,9.631727238685668
72.74727996,0.2067475354433377,0.9663539781030401,9.610676641614774
73.24727996,0.2255202654546399,0.9608791996307262,9.61972886638775
73.74727996,0.2419774849606968,0.932333285296849,9.615253915818531
74.24727996,0.21525700896353941,0.9411635660011289,9.622907451476172
74.74727996,0.21240130537712887,0.935287296384665,9.625272438028713
75.24727996,0.19171850717732825,0.92266595930906,9.647755180673265
75.74727996,0.21405017338460847,0.9682379504239549,9.623818529175379
76.24727996,0.21486395892903765,0.9462111523408927,9.618721712412077
76.74707996000001,0.2103283703633504,0.8028397750604066,9.659931140978923
77.24727996,0.21782041343093536,0.24918918802743031,9.682430900265235
77.74727996,0.19534951394709854,-0.29589699147697024,9.765449026137214
78.24727996,0.2191068409403224,-0.4671514347157988,9.74912134771924
78.74727996,0.3003487640551618,-0.6391060166655627,9.803208870327568
79.24727996,0.2422349740161766,-0.18246757465095254,9.719287452238564
79.74727996,0.21587681923328808,0.12755741436843035,9.813660664322509
80.24727996,0.18642651631758553,0.08583310475887437,9.412335366268886
80.74727996,0.32849476363552094,0.11803973070867366,9.644007098419003
81.24727996,0.5331926835820656,0.23553130041937773,9.596971008194858
81.74727996,0.7931085886398033,0.2480540162274324,9.877102731498555
82.24707996,1.2120783616245356,0.3650035290119945,9.68212130770403
82.74727996,1.6075213320145807,0.4043732932837689,9.536909019248688
83.24727996,1.9576392983789805,0.5851264824442803,9.633410382024225
83.74727996,2.178505107929021,0.2864785374882476,9.561151727771955
84.24727996,1.9505857665532849,1.1162927581168511,9.520470571681575
84.74727996,1.794437074899182,1.659970727652415,9.499514893282688
85.24727996,1.8244612048123883,1.9465807734076785,9.196957272101326
85.74727996,1.837631330611762,1.3415356221470875,9.726271842575125
86.24707996,2.196729836015153,1.3800861471640382,9.417518299106687
86.74727996,1.423507230206201,1.5026257023316827,9.517340545775248
87.24707996,0.848758462151761,1.148005161153314,9.889165528540735
87.74727996,0.44972452712339633,1.0623070583602199,9.949716019672884
88.24727996,-0.029015325287891497,0.9410112465914573,9.7079032226698
88.74727996,-0.4909333706895827,1.038373213628127,9.509740095503274
89.24727996,-0.4207396962416634,1.1125723916703691,9.524668575021103
89.74707996,-0.7590020721237205,1.2193464574828206,9.707994024303497
90.24727996,-0.3327573048250932,1.4276523150179186,9.481597363861253
90.74727996,-0.7658813124023616,2.220387664804653,9.348085182091422
91.24727996,-0.6016474817946821,2.2899261875907495,9.348209812547761
91.74727996,0.018596557634883076,2.536306184349467,9.152128926994319
92.24727996,-0.5983923521013047,2.65605481337069,9.027526104764219
92.74727996,-0.25492176882115347,2.6958317285686997,9.400573809139964
93.24687996,-0.07834000880665443,2.736012938476722,9.277243523827766
93.74727996,0.12092399150311124,2.890929447910843,9.3192484538856
94.24727996,-0.016866752006464352,3.158670090761575,9.413237946889918
94.74727996,0.08793205647024607,3.2444187852452417,9.150915086600001
95.24727996,-0.3687550539487624,3.5666590730100087,9.112715026813852
95.74727996,-0.7807914808925324,3.9762952141795065,8.766210409032595
96.24727996,-0.8238356003866926,4.057207658877536,8.804290496029322
96.74727996,-0.6938002595516696,4.194758125801315,8.912108634171755
97.24727996,-0.8690337872181236,4.368305560451106,8.813540809717917
97.74727996,-0.7348580032088915,4.087467842281459,8.89243970278143
98.24727996,-0.7589054438154095,3.70386273783526,9.081916952459942
98.74707996,-0.9411720718314257,4.183861978868462,8.74271420460143
99.24727996,-0.8510770160654428,4.291383224786932,8.718956676869633
99.74727996,-0.7047882865762574,4.182601790092488,8.822260676797931
100.24708000000001,-0.5874372865639539,3.070208842465336,9.204370732597184
100.74727999999999,-0.351314828307506,2.5693084313574546,9.227334335109694
101.24727999999999,0.14620220675272566,2.1278962397164403,9.460208813894955
101.74727999999999,-0.17236893567243552,2.3939294072092814,9.405658148820974
102.24727999999999,-0.12028974358974072,2.268405352777523,9.394719290597852
102.74727999999999,-0.03565980024775404,2.0945636112181423,9.44069907594175
103.24727999999999,-0.0859162608071599,1.9765439151335247,9.514000222164098
103.74727999999999,-0.029745426675828218,2.067469668470684,9.440896782257264
104.24727999999999,-0.05219092080168321,2.0843189455967073,9.443259222693241
104.74727999999999,-0.12586031093568295,2.1274864338476966,9.47674767790631
105.24727999999999,-0.09832650011551156,2.101026752537193,9.387287131076471
105.74727999999999,-0.018701449239414303,2.0406467959303005,9.411460920697436
106.24727999999999,0.03279777378666901,2.0896321857689997,9.572246068565976
106.74727999999999,-0.1057625444706688,2.0725381907293547,9.462101746387194
107.24727999999999,-0.2328345624401311,1.9525496931368298,9.489704843126965
107.74708000000001,-0.02121295379539889,1.9546065106860195,9.45731406022239
108.24727999999999,-0.09955438816519468,1.9487961591709035,9.486401472779479
108.74727999999999,-0.09477518378093387,2.0107465891419345,9.473258943352096
109.24727999999999,-0.4117716730737972,2.2321680182264343,9.404659839152613
109.74727999999999,-0.5892966545466677,2.4697779827131807,9.419548578721312
110.24708000000001,-0.7389739895528461,2.469560484817622,9.364145308157356
110.74727999999999,-0.6495903541551096,1.765324787558359,9.478685526936845
111.24727999999999,-0.8692609858160876,1.5203024029365781,9.518149407858036
111.74727999999999,-0.045925078171181966,0.7135918358249553,9.723238892826187
112.24727999999999,-0.11202363413554722,0.910708576144896,9.620327813519093
112.74727999999999,0.38436915919113573,1.2056533211065403,9.501571509260497
113.24727999999999,0.4016598769796773,1.127815145492906,9.754111177209555
113.74727999999999,0.4051347571224547,1.4151744836736588,9.625835584331131
114.24727999999999,0.39341898006499315,1.8585614011380251,9.337619650995144
114.74688,0.4575656068892296,1.6852205747898412,9.722924399617208
115.24708000000001,0.3561984975723241,2.0534863914136907,9.594083013701457
115.74727999999999,0.385583297614524,2.5021081938625476,9.251733254981627
116.24708000000001,0.12781587356947052,2.607027444707741,9.248161570895135
116.74727999999999,-0.3978742881914084,2.411753633578023,9.164317224611922
117.24727999999999,-0.6222748147317725,2.4669608275585646,9.364278611833036
117.74727999999999,-0.7120235024543922,2.510899941887007,9.247420295053178
118.24727999999999,-0.8316175918740929,2.504635621428786,9.452047650509432
118.74727999999999,-0.47350851944149047,2.6484839088521044,9.11710662422795
119.24727999999999,-0.06570202190519395,2.18678452907013,9.894522547453112
119.74708000000001,-0.11341896054980022,2.671210287155584,9.174876950615223
120.24727999999999,-0.2292183366412951,2.8232235195032156,9.13273506768438
120.74708000000001,-0.21963251669327094,2.7548075123379907,9.210477746643933
121.24727999999999,0.36587610377157054,2.5597153949776357,9.208818192488316
121.74727999999999,0.2707106215461382,2.813226568081467,9.259400815329506
122.24727999999999,0.14143155391682405,2.7289979854964725,9.237148292133167
122.74727999999999,0.058929669031415825,2.4269674034161053,9.522150267627474
123.24727999999999,0.09304103774786578,2.5214756040839377,9.295356435412195
123.74727999999999,0.407605932557593,2.6200654205184453,9.310604045101709
124.24727999999999,0.5732641538195099,2.7423856561095574,9.134914581590497
124.74727999999999,-0.24526653154466443,2.7596709054838384,9.409249373443679
125.24727999999999,0.08018042556738986,2.9433351403741095,9.164738710300037
125.74727999999999,-0.08185813927446647,2.861118743995169,9.226073965511567
126.24708000000001,-0.4790575206636767,3.032699534822089,9.154270597373097
126.74727999999999,0.15384296885764992,2.8279431040627867,9.170441526159667
127.24727999999999,1.086895879575551,2.5384993341382964,9.499016523680732
127.74727999999999,-0.596849697651861,2.577794115621154,9.202501802482686
128.24728,0.3047999443280727,2.3245449296343255,9.311197756164779
128.74728,0.2542550423451654,2.467827003463263,9.377237765293348
129.24728,0.7556223720595051,2.9947616849904444,9.100921467026788
129.74728,0.39636098820505905,2.646942609283164,9.38475062848545
130.24728,0.47084091327369465,2.2540286737910917,9.452615755954644
130.74728,0.29608835164409686,2.6018973721614818,9.257124709140161
131.24708,-0.25201580616200053,3.4526108210097037,8.908568905576722
131.74728,-0.08238118796519454,3.3878847376115777,9.189017330966443
132.24728,-0.5546463688908043,3.651677027185035,9.057209066772769
132.74728,-0.48884397494059195,3.811532120603338,8.831259930614605
133.24728,-0.15681794283924327,3.724723514707173,8.839481786218652
133.74728,-0.3661796239358065,3.643964060095087,9.144087836690677
134.24728,-0.4855081930145729,3.5526924067741277,9.118442542628689
134.74708,-0.45391768578240277,3.758535238232788,8.867133356710742
135.24728,-0.5049588993723397,3.564200277806309,9.001297262516728
135.74728,-1.0370109792385664,3.466683821053664,9.117932245086466
136.24728,-0.5731718364527731,3.415880545746452,9.208115379634533
136.74728,-0.4945519971884598,3.477727869024546,8.641755673596752
137.24728,-0.2961901126012688,3.266141625880432,9.02297979255946
137.74728,0.06136765901914837,3.1985511047646087,8.890840342895059
138.24728,0.06811864827918142,3.1115944045802078,8.771577814054396
138.74728,-0.03303488411083266,2.99773328577186,9.099161118162984
139.24708,-0.05984782019487758,2.8624777551737144,9.630052259133814
139.74728,0.007341444339364019,2.738507437017924,9.41651208877811
140.24728,0.19715278616470683,2.6600993313329955,9.198078598421036
140.74708,0.1449189494154154,3.120745117162983,8.963862575382512
141.24728,-0.5098237047768099,3.4000570024890453,8.829229370544885
141.74728,-0.4209805091419831,2.938519201785854,9.493512724184123
142.24728,-0.3507380145383209,3.0887694132153016,8.813029258143143
142.74728,-0.27730070100970183,2.8708455646323245,9.009201377032792
143.24708,-0.3213456391704459,2.8391564332542316,9.465893329657938
143.74728,0.6038046768192501,2.3675795744071757,9.242197535994052
144.24728,0.3445754827083933,2.494888138112203,9.545960273457002
144.74728,0.1119035171780549,2.3802912905429814,9.53872114049127
145.24728,-0.10517274425006815,2.204062032191496,9.160299076462927
145.74728,-0.408762849992504,2.0118926297142026,9.540609202567007
146.24728,0.2762535269729676,1.865126413679195,9.456373445753279
146.74728,-0.39777493268236924,2.6542279572788368,9.485332420149122
147.24728,-0.6814144884781157,2.664132503708885,9.453495677381936
147.74708,-0.5537626798037557,2.833641594503007,9.190445521870688
148.24728,-0.4930938247157618,3.033875687032113,9.272012200478066
148.74728,-0.47287553248257014,3.056520860603297,8.84910237984447
149.24728,-0.6560020666858343,3.0614898598698037,9.137538359767131
149.74728,-0.9009744436660294,3.014526866436438,9.270797156258823
150.24708,-0.19123484547702893,3.0829127075189446,8.896411598273566
150.74728,-0.2076138560413386,2.8579033938700356,9.489450755624768
151.24728,0.3191788590388169,3.2487501945041464,8.790884129280581
151.74728,0.6186935083311411,3.188331499140706,9.27264427291371
152.24728,0.2003307265238144,3.4446786906019486,8.936381277988751
152.74728,0.7610983539298459,3.22822333424791,9.452512855971683
153.24728,0.5333121021426368,3.1558668101981846,8.896473892843247
153.74728,0.3331621937342429,3.6043384035001402,8.960891363284924
154.24728,0.849806667463907,3.3760838888964044,9.263083330165324
154.74728,0.19507894085944383,3.4517826271477277,8.769575766836715
155.24728,-0.2899976823756711,3.0525789981274922,9.401213256843993
155.74708,-0.48161002468461755,3.174420636223611,8.982691213795357
156.24728,-0.1701280189128477,3.1307648004308795,9.283919313252218
156.74728,-0.32595099669747213,3.0607947220619955,9.068813647470892
157.24728,0.16727327729913302,3.1457446560725595,9.017708638122983
157.74708,0.04623462624715278,3.3448727811324663,8.9938126037037
158.24728,-0.8300858171390111,3.4704012909779025,9.200762682504715
158.74728,0.06187215565268544,3.4004183568216435,8.854610604196615
159.24728,0.4417837797800654,2.9238032922316335,9.267737885844577
159.74708,0.09032602082325032,3.438807519054525,8.766551315054505
160.24728,-0.21615733834715453,3.449956668338485,9.082808083241124
160.74728,0.09197181393589082,3.405614348289275,9.125517967965171
161.24728,-0.18621778509298817,3.5144110335649374,8.782145613712796
161.74728,-0.13763429030850255,3.46344166146796,9.053755738314969
162.24728,-0.08201884407157595,3.3915148551709637,9.038568446558948
162.74728,-0.11923564365367932,3.3444028748985293,8.667588434628087
163.24728,-0.1643395837425714,3.2282714327715167,9.54307628304826
163.74728,-0.16145588368539443,3.310266454679611,8.76940811150599
164.24707999999998,-0.3510017670874557,3.4585061135627977,8.95753581962774
164.74728,-0.7048416246002346,3.6293618529879343,8.846153166238302
165.24728,-1.3636671626387493,3.693402845771461,8.9408832282618
165.74728,-1.981154115987143,3.6613151533294497,8.984896135939511
166.24728,-1.3705878189006868,2.9392931441930608,9.181322006051023
166.74707999999998,-1.2567286801086228,2.6715886766798254,9.246909874263217
167.24707999999998,-1.0236334131388956,2.5014327574336934,9.571445609512194
167.74728,-0.5626032282392783,2.92873331992354,8.847672775887924
168.24728,-0.5582421470745367,2.7822255017188673,9.254768689328
168.74728,-0.622102130532271,2.7733061393106215,9.181163944895353
169.24728,-0.5847655262037081,2.467534796998835,9.458773475895091
169.74728,-0.23312412821824366,2.2326062301935523,9.239683848989323
170.24728,0.5678931665971303,2.4759507798541374,9.47572553222394
170.74728,-0.04528087933024844,2.57723468915622,9.277569171522991
171.24728,0.2554687922289324,2.183368688561,9.248027362644683
171.74728,-0.0903383789706262,2.039424441452579,9.08770282793123
172.24728,-0.5274430513949203,2.012835696612775,9.348182089078614
172.74728,0.40663964712355605,2.6752080491211494,7.593883546924793
173.24728,2.0141461136532683,1.015538725680399,10.991365176021107
173.74728,1.609831850656909,3.10733963922209,8.639205766101378
174.24728,1.1356018751704884,2.550145978900613,9.94876006566546
174.74728,-0.015769953542870276,2.896169444698764,8.601867498296391
175.24728,-0.8501778187622228,2.7685506906430386,9.696419468634582
175.74707999999998,0.14371173651472371,2.453376906895576,9.141046779036119
176.24728,-0.2782188589132668,2.326002254840542,9.365911787567647
176.74728,-0.2931021225886797,2.1466901473154127,9.341694625675945
177.24728,-0.222944522774438,1.9736866621851468,9.684495425453221
177.74728,0.6214139071539032,1.735863719925156,9.454661439345063
178.24728,0.9503951573126403,1.260366019746857,9.958564569431273
178.74728,1.166110615609096,1.6324417460807967,8.98739923596483
179.24687999999998,0.7557212062901089,1.4201378726251233,10.108380779755125
179.74728,0.4396400507774418,1.7991687706529473,8.972418643913771
180.24728,-0.4208829141081253,1.5349891207421278,9.996739467549856
180.74728,-0.29347053451511107,1.7513726612497214,9.756305860383595
181.24728,-0.20459639285858158,2.060727105518601,9.30060074805886
181.74728,-0.19819960073057924,2.301646988573334,9.121382489144192
182.24728,-0.23519578496809537,2.167470836292444,9.381012201258928
182.74728,0.13956207774793275,2.2890063586888956,9.410490128232269
183.24728,-0.27484446224262565,2.462004418573843,9.155075723010881
183.74728,-0.010701312934148489,2.2945506060886873,9.97575059038718
184.24728,0.4191542391383175,2.8208421584738685,9.19614970568349
184.74728,0.29937995635617254,3.1077522650723326,8.703132757675563
185.24707999999998,0.017304132217177814,2.841539120158909,9.599262800734797
185.74728,0.25250042522046906,2.8167425225445286,9.030589944002575
186.24728,0.5376542878107735,3.2743816096243537,9.400629440701874
186.74728,0.5373792950546951,3.9770015098154685,8.896606750987885
187.24728,0.4628199035642844,3.7929192275157293,8.97176304227739
187.74728,-0.31044995513130863,3.069003965933892,9.22828444652479
188.24707999999998,-0.22235092170597665,2.807617096364823,8.987538329996363
188.74728,-1.4205116485967344,3.548214105048524,9.251832279656325
189.24728,-1.66741850074827,2.595487304782533,8.403782402768844
189.74728,-2.6846716277033464,2.944430552310164,9.389995248209136
190.24728,-2.882593050049731,2.858060313932688,9.127199417039712
190.74728,-2.815394304650265,2.885172105515279,8.906405732200124
191.24728,-2.6480414077313266,2.941867129563394,9.162803156596237
191.74728,-1.866096745011792,2.7783251894706327,9.11798732234807
192.24728,-1.0197654795323787,2.712662234458553,9.23998403116318
192.74728,0.24393452136449156,2.585008974798809,9.27480984773658
193.24728,1.374251913540344,2.1726959598951137,9.555109284126159
193.74707999999998,2.083008848049035,2.3919104828649345,9.054821299997537
194.24728,2.5524137863112513,1.843499741259077,9.572099858493033
194.74728,2.8140278512367267,1.833006977322835,9.298382050575947
195.24728,2.5014537849464484,2.238729014679215,9.218054969920146
195.74728,2.103484628613613,2.1187021849090595,9.441891695819248
196.24728,1.5265623807061013,2.0743618581090533,9.266260351850912
196.74728,0.8771440274579709,2.283680139115137,9.458884601601591
197.24707999999998,0.048921986186507255,3.142949986181431,9.175781147752486
197.74728,0.2057769586938147,4.138830471386824,8.536294661145138
198.24728,-0.5557806290097953,3.250825217766988,8.882721926678988
198.74728,0.15857434714755583,3.5541613565992556,8.575707521793705
199.24728,-0.037613321363288675,3.2183216576537212,9.17806686398149
199.74728,0.21210215193926124,3.2053525703244348,9.09819311210257
200.24728,0.29344062246881036,3.7168494400175143,8.961383301651995
200.74728,0.5259678823553459,3.604313583502356,9.296352943243614
201.24728,0.4113409866734804,2.5414777136839932,9.303574610396423
201.74728,0.38314245067413993,2.497497721960659,9.311403354368105
202.24728,-0.14567978157611836,2.5035150413836633,9.284630578509764
202.74728,-0.07729526923690803,2.125367381649133,9.477849917423105
203.24728,-0.07316031979256282,1.9518947941826883,9.441707563687887
203.74707999999998,0.367272064764266,1.8600191033086118,9.894372686400919
204.24728,-0.1389663393351549,2.0312024034941856,9.617480690950217
204.74728,0.01847446566832479,1.8823471582904951,9.399223980386067
205.24728,0.3932293167752832,1.972949990496527,9.551132247897849
205.74728,-0.1783978825670302,2.196962457422851,9.449265872387251
206.24728,-0.08177618535389111,1.9388455464322818,9.771274522129556
206.74728,-0.23214140660947902,2.0389942712381033,9.372909866616515
207.24728,-0.21274739367161943,1.4205114563896384,9.693877506252754
207.74728,-0.266761307537847,1.8929715638335944,9.463166580472771
208.24728,-0.6523746835187842,1.8840789511081335,9.582489468499615
208.74728,-0.43999760841936586,1.9274210329227626,9.269418606961812
209.24728,-0.6368816098671548,1.869704980223106,9.522036977999365
209.74687999999998,-0.12960251815106216,1.9923617803795768,9.377948345709665
210.24728,-0.17340266900043425,1.9442415800820225,9.51810200759356
210.74728,-0.042772422228496865,1.9279167162993394,9.210985415706995
211.24728,-0.356282150430619,1.8637927485849348,9.685536025944371
211.74728,-0.4618365022972093,1.8923328096556107,9.435315725244381
212.24728,-0.3244408181307438,1.8944787489566497,9.56993290102964
212.74707999999998,-0.39185867426064236,1.9057964510981427,9.376967689282928
213.24728,-0.4811606171724162,1.960905300213833,9.617099606888166
213.74728,-0.42087409799479397,1.828250038655814,9.48105394605047
214.24728,-0.4682576290893393,2.0704664963342374,9.532495561085668
214.74707999999998,-0.4575213123765473,1.9792930426522946,9.563403032241347
215.24728,0.05290707723209449,2.0793102748415198,9.324313505013842
215.74728,0.8015527025740908,1.8443993257225493,9.876638939676411
216.24728,1.739878237764907,1.5033461484142834,9.50044428200645
216.74728,0.36372147057282334,1.973379939091954,9.225851905846884
217.24707999999998,0.6780190706707286,2.8365070746593846,8.874499324315172
217.74728,-0.40790880867189894,3.1303893506659852,9.177132069861898
218.24728,-0.5337053361914098,3.339453445486882,9.114415439011955
218.74728,0.08971695559760405,3.414375064067454,9.155493717786582
219.24728,0.5048031168859946,3.123250971654564,9.799625872401668
219.74728,0.70698183822925,3.6098335913499766,8.8200207423083
220.24728,0.5169293175507719,3.9749870643907594,8.78734459047841
220.74707999999998,0.18388764725627035,4.130072135686448,8.346054018574769
221.24728,0.7119890429121609,4.154020978313422,8.576986722492164
221.74707999999998,1.1228398758612688,3.9992092804012644,9.014596632306619
222.24728,0.2784170842860355,4.66735678333351,8.668291485838417
222.74728,0.21720340555156953,4.377776440530692,8.517074749878281
223.24707999999998,0.12117249181447802,4.6669482559132645,8.706979394597615
223.74707999999998,0.5129247551164652,4.735092150080342,8.352517940816778
224.24728,0.3191823807517261,4.809013467330106,9.105541766517275
224.74728,-0.23308043521706215,5.38352322106778,8.10448883726583
225.24728,-0.6500651921007556,5.430010220371259,7.915879591239976
225.74728,-0.4523110488940186,3.9536669472793253,9.037570546678138
226.24728,-0.48949736477311395,3.8548093248167445,8.824956028137436
226.74707999999998,-0.1476733576914118,2.7996661619055927,9.259950014242486
227.24728,-0.60408595291597,2.741338117243439,9.178389164700778
227.75208392156864,-0.9597193010698198,2.7766243018596755,9.29639017536773
228.25207591836735,-0.781455865704218,2.727235227417979,9.332816694467278
228.74707999999998,-0.08615214104294822,2.7192506693737912,9.41699686750913
229.24707999999998,0.2374173385803611,2.4836783692383926,9.415996993705283
229.74707999999998,0.393741177139946,2.448277918406468,9.329097818164323
230.24728,0.3680977341207184,2.38221341895318,9.517437884013175
230.74728,0.07843470725266397,2.4184003560140095,9.348474577968796
231.24728,-0.7081059901463689,2.6197106441200493,9.363615415580842
231.74728,-1.63370043704383,2.81422323480174,9.119596592504587
232.24707999999998,-2.325092468593932,2.937445947691492,8.97456268069484
232.74728,-2.286267693140083,2.8122108727188966,9.072752069648693
233.24728,-1.9962376438856548,2.8522698816392733,9.007821660732596
233.74728,-0.8153048518037805,2.692267657021865,9.178679639099396
234.24728,-0.502108965224009,2.6054043213633538,9.334999338528217
234.74728,0.18264967059697415,2.592919940747424,8.980885113404092
235.24728,0.4973936457587784,2.4493524130829782,9.279462483514074
235.74728,0.1883280176305699,3.0400683911964417,9.69863769044537
236.24728,0.06207179839324164,3.304405733303148,8.669623782145287
236.74728,-0.14242327248065242,3.1786199812468294,8.913461999036645
237.24728,-0.12691537996072152,3.091231594349552,9.121116304256462
237.74728,-0.18256339260125748,3.251003517257286,9.194797260459005
238.24707999999998,0.06365773478689554,3.694907599208973,8.859811799469043
238.74728,-0.1721490084939669,4.044375573471228,8.844539320036548
239.24728,-0.07901693838475818,4.032435184060628,8.926454109432909
239.74728,0.13335712639042546,4.597060055778936,8.619736587415362
240.24728,-0.19273405760906562,5.012433425050371,8.425323482585135
240.74728,-0.17841819200256331,4.8988674082102195,8.636417462947534
241.24728,-0.0575115313810573,5.035732719707414,8.359532926232154
241.74728,-0.033695855435133294,4.67870882528324,9.024361898019112
242.24728,0.051462085724769686,4.636466797262641,8.482210588654455
242.74728,0.12303730244542616,4.568933752151362,8.745015338348415
243.24728,-0.04531124231085459,4.558915720108229,8.624832822867923
243.74728,0.47918916794857613,4.711815295730022,8.615162877312706
244.24728,0.4750708080145661,3.794984140164757,8.84788809708501
244.74728,-0.06624805202362237,2.3981933888632057,9.480907130068942
245.24728,-0.1753842180608227,2.765172802672463,9.267313791998927
245.74728,0.18207801622447256,2.633976007397175,9.387965132390464
246.24728,-0.23638448986238403,2.9033150459106287,8.828374867787236
246.74707999999998,-1.122746321663592,2.2534691746898834,9.569397350146343
247.24728,-1.0392666005784401,-0.648055568826333,9.529468637705863
247.74728,-0.22337734306390478,1.2405300929383198,10.29657749234205
248.24728,-0.029868748708449702,2.8000269555496184,8.242321466422796
248.75208392156864,0.9633348872376009,2.545820368543188,9.713396466113414
249.25228,0.012195351748958168,2.3583946465871914,9.345566301531303
249.74728,0.006280436397414423,2.4558103312120436,9.423992370900383
250.24728,-0.2546060105956596,2.2105500209838937,9.480862769085887
250.74728,-0.146764891583128,2.257194753860967,9.404274037813805
251.24728,-0.08439372932850545,2.33760468015731,9.397677775672546
251.74707999999998,-0.0664656022880811,2.259387061320083,9.404552851707376
252.24728,-0.09439144150151932,1.785490376314661,9.594352267731223
252.74728,-0.1127066403531111,1.3735782033789585,9.549630554268964
253.24728,-0.04597119756379642,1.1294294397421922,9.661926752173144
253.74707999999998,-0.16901202885326072,0.9059749534087308,9.825643026309137
254.24728,-0.1476485587079413,1.1886503035562865,9.582103649201068
254.74728,-0.16249964422525967,1.5639391318703326,9.57991310417206
255.24728,-0.18575966711310765,1.4655932548649553,9.721871472435435
255.74728,-0.15459088243619454,1.4232941889474207,9.56862145692188
256.24728,-0.02071649165374293,1.4642223998138848,9.43534927819671
256.74728,-0.12247456805911065,1.4357862306033646,9.705959667704013
257.24728,-0.09857726021330476,1.4339460807856401,9.520263290299054
257.74708,-0.3000864002306475,1.6025576703894375,9.932955225183042
258.24728,0.08808491410447258,1.454402363539973,9.663112032429588
258.74728,-0.17602722910074967,1.4435210499691555,9.7242008386221
259.24728,-0.030156554455083057,1.4822621804336567,9.580676785108473
259.74728,-0.1737975236932125,1.6281790939219052,9.399113898563872
260.24728,-0.009743092691475448,2.2562870066452376,9.4312913340747
260.74728,-0.05422120262562728,2.918117579210979,8.633161259054159
261.24728,-0.6570184257567067,2.4537182451355277,9.033299426349986
261.74728,-0.798445795430537,2.9715517141127537,9.307869729672753
262.24728,-0.7138441261781466,2.444005559577447,9.405770680558442
262.74728,-0.46943440035960243,2.5227353268512274,9.581163190168297
263.24728,-0.8167916221996394,2.609534304588851,9.067531399922105
263.74728,-0.33053603927819497,2.8756417493898065,9.542637066903453
264.24728,-0.28996423408710764,3.001748080333158,8.89252980187164
264.74728,0.10508348653257592,1.948637677388472,9.42789886329096
265.24728,0.4124464800476656,1.9565699284907287,9.484168058231411
265.74708,0.34117846561499315,2.3961461252685807,9.43916876326603
266.24728,0.1896800644648798,2.56756764067834,9.483839705068304
266.74728,0.08182387740936288,2.774186226773842,9.271840778461492
267.24728,0.2031410007072919,2.7657687096455077,9.404511362649098
267.74728,0.24289513371017935,2.6420852776262485,9.330466862229231
268.24728,0.3260136808070835,3.1883990226392354,9.250528001709432
268.74728,0.27238520187406573,2.037176728291693,9.558887398159158
269.24728,0.25728443113786226,1.3444521527130433,9.491140605694648
269.74728,0.3075925090042013,1.2855532219061356,9.633460813473878
270.24728,0.31292636454404527,0.46971672566324785,9.70857254349459
270.74728,0.2457605609895278,0.6679711404245188,9.718368192733015
271.24728,0.2507137221472271,0.52414174857568,9.814956376743211
271.74708,-0.233880914774177,0.9074381464234028,9.69462644599681
272.24728,-0.4139497017071687,0.810215845948742,9.625065833290313
272.74728,-0.9718457144007857,1.0787678961541807,9.62222930194779
273.24728,-1.5250769503689252,1.3223993287873537,9.68902416652426
273.74728,-2.0329035213459123,1.413933065909992,9.610416450326221
274.24728,-2.233106458837966,1.7488854654495074,9.330329704930943
274.74728,-2.4831312047613237,1.8243745563701146,9.410849972135772
275.24728,-2.7903866114475933,1.9916990246539756,8.927670423585823
275.74728,-2.4327816385600953,1.8537536187751666,9.151642218978965
276.24728,-2.667038238577624,1.869250295569866,9.54214753505306
276.74708,-2.119745485066056,1.925900580566659,9.023983474522987
277.24728,-1.8962930348707607,1.939376851503346,9.711458498600981
277.74728,-1.5966398729539468,2.0126516080313617,9.58347327838655
278.24708,-0.6860487292361493,1.8858834274467788,9.19402068973681
278.74728,-0.17955658767398205,1.7460278891689833,9.871460124825722
279.24708,0.03623014761789455,1.7829057457844244,9.236767266647963
279.74728,-0.00471804242947376,1.8072701205130448,9.570830396938833
280.24728,-0.005641728549838,1.8380742028389934,9.464883790795595
280.74728,-0.07384787598250149,1.7948222014222635,9.195054727810437
281.24688000000003,-0.1415825588164499,1.8932293374885767,9.537187798192221
281.74728,-0.12960805410686793,1.9204975781119729,9.644437846961651
282.24728,-0.16049309225233407,2.00077768854651,9.325176325302632
282.74728,-0.23556753972087174,1.937942926405867,9.518907355887837
283.24728,-0.16642800658123566,1.9068837901112554,9.44661401024091
283.74728,-0.24362633984714285,1.8462295509566582,9.61892099079217
284.24728,-0.11260744814626342,1.7906364845065892,9.38515070757985
284.74728,-0.1119988046683668,1.8213816299142709,9.554875234978171
285.24728,-0.221887132508218,1.8801855912020042,9.509480115726621
285.74728,-0.08480341191186232,1.7927916839899154,9.704271401172647
286.24708,-0.0759667618573388,1.849813780794143,9.600790736263255
286.74728,-0.2974022445142299,1.532061263219434,10.221239122126958
287.24728,0.015425720251243606,1.79275961481395,9.318505204267469
287.74728,-0.05405451235899669,1.6303553885884614,9.52156608165505
288.24708,-0.2668354212496516,1.7085211692745332,9.698111104026502
288.74728,-0.27810369626187403,1.8330027717291124,9.67131496214967
289.24708,-0.07784937032320352,1.895060214545355,8.875473114136572
289.74728,-0.23820084585863716,1.5593506814872569,10.07122377369655
290.24728,-0.19237425162826383,1.835883118176014,9.004718509910745
290.74708,-0.028892058425169953,1.715386982443518,10.204015251061506
291.24728,0.16449087607766713,1.7699016764488613,8.896780069059277
291.74728,-0.33280921543531655,1.7704215685647458,9.960639313744284
292.24728,-0.2847394796390257,1.9408328902973355,9.350048153272327
292.74728,-0.30317750052364884,1.7450526670441837,9.36235805226264
293.24708,-0.2734309053955577,1.8321463838287713,9.228643310898597
293.74728,-0.20607936194232684,1.8903458427789064,9.536277735278215
294.24728,-0.3002811125994847,1.736699621980692,9.134472665249403
294.74728,-0.16065720989207194,1.7487069881844917,9.6068991409187
295.24708,0.2568476145078462,1.6279782421730973,9.498629094554259
295.74728,0.14512791268684302,1.5935652905471576,9.491619713271646
296.24688000000003,-1.1295818435797031,0.3946324713393015,9.676466891741034
296.74708,-0.28883717828939676,0.8072938103237274,9.537864314927798
297.24728,0.14024080693963195,0.9798842276743442,9.723845614765292
297.74728,0.09643246404129048,0.9602553715940847,9.636174935775562
298.24728,-0.37065796312782484,1.1805968428708533,9.2457042272383
298.74708,-1.2719841354855468,1.9293353237588413,9.25422654210806
299.24728,-1.3727897337256851,1.8743761160859154,9.4419087758714
299.74728,-1.260510712926494,1.9095989075989988,9.48016763241356
300.24728,-0.847069434155636,1.6976699086028217,9.488909329053822
300.74728,-1.0681410095189308,1.7789079521346607,9.420940676031126
301.24728,-1.0240302489710265,1.9408780756491797,9.4025903334047
301.74728,-1.011097407683354,2.2854332780042985,9.252082399974542
302.24728,-0.8536358414465022,1.8703200496664316,9.830903251508742
302.7520839215686,-0.6751579859855189,2.3305849073605063,9.100556076899556
303.25228000000004,-1.014508703820846,2.3455072260076957,9.38061696273252
303.74728,-1.4184879379153323,2.4578992818391647,9.101123109550246
304.24708,-1.2929035964696534,2.5610392431495397,9.637853110794431
304.74708,-0.9385093714390881,2.3260834917109263,8.649887272933185
305.24728,-1.4510385417445621,2.1366631051560234,9.34817922457213
305.74708,-1.1810630606362296,2.25618087641516,9.077738257518181
306.24728,-2.1765732275636167,1.839399925775805,9.301718267842084
306.74728,-2.2170022516515386,1.1504465952879672,9.217359400237385
307.24708,-1.2874460201663518,1.723374190038886,9.404967555242495
307.74728,0.24795053748105056,3.1036798627098103,9.126791788850976
308.24728,-0.12488254777498504,3.3354046294299167,9.079691118891557
308.74728,-0.3388095990819535,3.029211590070136,9.252944571733194
309.24728,-0.04457336109381335,2.829266740086417,8.883574944542328
309.74728,0.06952585921766273,2.8677044364164455,9.311845560371758
310.24708,-0.022136644067726852,2.773545957050097,8.796593646309375
310.74708,0.40422134957250455,2.642332023134931,9.446619324006878
311.24728,0.2742108825090404,2.6080466315750948,9.227996766573217
311.74728,0.27871794476498546,2.6653017305577227,9.289646005949109
312.24728,0.6542397748274813,2.6903267977795253,9.184354862218093
312.74728,0.7334668402820489,3.1738534188041285,8.698990978368242
313.24728,1.1602781974268026,2.57962369086635,9.887912790740742
313.74728,0.7744985271627776,2.4322540343222063,9.197523650059292
314.24728,0.8568356836925735,2.3021711263704727,9.566707576376576
314.74728,0.7429221453536105,2.3192609562343502,9.460684011598433
315.24728,0.7794882687730507,2.5411493073937517,9.189473577511187
315.74728,0.9510359973888532,2.933873513670491,9.277699010461317
316.24728,0.6833577267683266,2.9022974807526425,9.47473385105448
316.74728,0.33346310829733844,2.465132236041984,9.49889150144915
317.24728,-0.16051418170466525,3.0370960343597675,8.80605688581446
317.74728,0.40700531701788906,3.4625397198401178,9.044215738994074
318.24728,0.16939745050427477,3.2731270206823955,9.362979666201475
318.74708,0.5505360696672498,3.4133498646808955,8.48977643709751
319.24708,0.8576138970351965,3.1083389362934715,8.41238652731068
319.74728,0.23523590554909768,3.5160637397706838,9.073285767506514
320.24708,0.04126942210838219,3.3411856450872235,9.465848159160815
320.74728,0.9664930957981315,3.0917482011078943,8.73670299015581
321.24728,0.4881784418142307,3.5047779239340078,9.296248497786777
321.74728,0.3670837956188222,4.188817738158375,8.003907757881835
322.24728,0.37398126283036265,3.773431660712072,8.876878903157902
322.74728,0.9882883854524338,3.5390718729737523,9.824966187846552
323.24728,0.41775972099667724,3.630430887124439,8.996700416896239
323.74728,0.983886177285633,3.826836874817241,8.288649140155918
324.24728,0.36634466853373754,4.317661775442312,9.127983953443502
324.74728,0.6389262877419303,2.8508028467939477,9.233222980161433
325.24728,0.362363946187594,3.635735740413361,9.35925466851415
325.74728,0.5951970428569269,3.6498424773442717,9.009440084198248
326.24728,0.4880176640677361,2.0747110065871177,9.399663042823498
326.74728,0.5466448236962639,2.2287327435724733,9.40462053713748
327.24728,0.8108738072772782,2.136469927632109,9.399149878227492
327.74728000000005,0.8308089749137452,2.1106624201399504,9.420357615160121
328.24728000000005,0.8415833990736052,2.0739426727609858,9.422126361911417
328.74728000000005,0.8401915639497315,2.0391644672176765,9.451637575182106
329.24728000000005,0.6874091125937241,1.7959303192134402,9.469024603060825
329.74728000000005,0.6756300672412159,1.7175907416735345,9.526450093605408
330.24708,0.6294094408386762,1.926916730478218,9.443781494100161
330.74728000000005,0.5372792701778407,2.1543195359282676,9.447377778434348
331.24728000000005,0.6030232988365994,2.17501755552817,9.429625817735424
331.74728000000005,0.5888739817664156,2.113748715176396,9.41534999559132
332.24728000000005,0.6302080355097425,2.223837622917991,9.43806442765072
332.74728000000005,0.8103109467065679,2.2848433503335617,9.545062966260469
333.24728000000005,0.8199801985828357,2.1939659050639633,9.325630663152223
333.74728000000005,0.549289050616236,2.0839163263839966,9.430021022679629
334.24708,0.5891385723506106,2.023204008974328,9.472416041281404
334.74728000000005,-0.09078981124530774,2.0861652262101487,9.38656294048156
335.24728000000005,-1.3641796074550812,2.465494768019984,9.275377886175898
335.74728000000005,-3.350781477651729,0.997755814693022,8.675690452506222
336.24728000000005,-0.4495609518096767,2.166643336909948,9.458478845756895
336.74728000000005,-0.1826158582091938,4.492301025253927,8.070870381083118
337.24728000000005,-1.1016165872924812,3.851947721997176,9.148816356834745
337.74728000000005,-0.4051097769282176,4.442410004063263,8.387732773464252
338.24728000000005,-0.4648470156591687,4.530244582536115,8.761669801372483
338.74728000000005,-1.0955177003424885,4.780863062786558,8.46455354144794
339.24708,-0.5668834064564975,5.099766159464678,8.211858991655063
339.74728000000005,-0.8008468000407464,5.025634351221067,8.289384751674913
340.24728000000005,-0.39086514526208993,4.966296796693014,8.178788324413663
340.74728000000005,-0.19104228392180136,5.151413190855595,8.197824993941731
341.24728000000005,-0.15343679872788207,4.957499274392236,8.336079886868697
341.74728000000005,-0.059957100043030766,5.055123112335686,8.095999266050473
342.24728000000005,-0.3028834266011402,4.388571261034045,8.541974280557508
342.74708,0.14744332024509518,5.213128027999899,8.346196463879503
343.24728000000005,-0.44262448188275316,5.166835948262628,8.206392013763296
343.74728000000005,-0.14979085666155384,5.225455843031876,7.918384397716673
344.24728000000005,-0.08413214449832748,4.397566276446732,8.768942637502152
344.74728000000005,-0.11777958325731236,4.340258619880526,8.6486472721039
345.24728000000005,-0.11588038159228649,4.247640053375593,8.739646703071621
345.74728000000005,-0.09637029311039333,4.194136543379075,8.744311002208546
346.24728000000005,-0.1943862483624728,4.318220930603848,8.636978344713912
346.74708,-0.25414892850156945,4.277568675343969,8.708412088247005
347.24728000000005,-0.23451871369709637,4.256583770806418,8.659078565520419
347.74728000000005,-0.20579069296578972,4.182470176564772,8.814728183535168
348.24728000000005,-0.22613544605252375,4.266210958595081,8.628396671362081
348.74728000000005,-0.20250348650656513,4.26071504519322,8.714636739647174
349.24708,-0.18236252093279798,4.203346759168142,8.71790700537636
349.74728000000005,-0.20473912784669845,4.204574290189104,8.799117670241348
350.24728000000005,-0.30917249318621287,4.26466913531135,8.656328936533033
350.74728000000005,-0.24538714067086306,3.7993926197353307,8.888384689226024
351.24728000000005,-0.06055882628886475,3.5105623572349707,9.08817440720112
351.74728000000005,-0.02568108785275153,3.204978117162544,9.281199356070486
352.24728000000005,0.13233841716547246,3.3424290493688273,9.100294636443525
352.74728000000005,0.059901057800521504,3.519160729023514,9.004460296555642
353.24728000000005,0.043452024973998526,3.956459573844343,8.890628027852255
353.74708,-0.08560156646650409,4.248251032659609,8.567799479263618
354.24728000000005,-0.0012038644092147476,4.291834008109144,8.646429895391002
354.74708,-0.03047498976880365,4.575217695399357,8.418265393127179
355.24728000000005,0.05734154406673202,3.9649559165959953,9.06849246998024
355.74728000000005,-0.07963728189722864,3.7912094082239762,8.97127167994871
356.24728000000005,-0.5037769396542671,3.7311697596063813,8.739425543716026
356.74728000000005,-0.28377100784225273,3.857747147236143,9.141738236049163
357.24728000000005,-1.2307793205941318,5.412118497893561,7.580157205261251
357.74728000000005,-1.3151073381547882,4.802586055278357,8.621380961000561
358.24667999999997,-0.6965722840040989,4.043254450487078,8.751562410941657
358.74728000000005,-0.7131330775277792,4.047422645015086,8.756223051178143
359.24728000000005,-1.1135952398591018,4.139798189600641,9.039605910628518
359.74728000000005,-0.5978900435553829,3.5848607740479417,8.807289155143632
360.24728000000005,-0.8934254144779401,3.894813842351837,8.577451864699759
360.74728000000005,-0.8765123325785086,4.343126739147139,8.72089757379933
361.24708,-1.0572498535304022,4.098598662901178,9.03979408200101
361.74728000000005,-0.5687105697704333,3.080454857237774,8.414850444618816
362.24728000000005,-0.40253762939057536,3.5276460356621713,9.322222651921813
362.74728000000005,-0.3867773103826089,4.001786616947839,8.655723088340142
363.24728000000005,0.28365664776948746,3.856564724164311,8.902374179011906
363.74728000000005,-0.15351860312011717,3.7004098883175387,9.178032442936242
364.24728000000005,-0.5363760374798783,2.3269569763557647,8.971999905724415
364.74728000000005,-0.21460040736620623,3.0007379313680698,9.364624713064298
365.24728000000005,-1.7216531845974041,2.839188851774367,9.248791089096967
365.74728000000005,-2.1624637335309718,2.8293740410629225,9.20371036432781
366.24728000000005,-1.5258563627894217,3.0166056475892074,8.863337573307588
366.74728000000005,-2.1279089185758653,2.9843570606220338,8.947252942642118
367.24728000000005,-1.2301922032488317,4.038569179299754,8.850114915320667
367.74728000000005,-0.8833514366997113,4.091470133228432,8.728622011039784
368.24728000000005,-0.7817176933774271,3.9054486902669994,8.749652492957011
368.74728000000005,-0.6495455687830335,3.878127347420837,8.902085169032112
369.24728000000005,-0.6264316776002091,3.7838055820893755,8.786121023343883
369.74728000000005,-0.6105558296043035,3.740207960741974,8.945970042902745
370.24728000000005,-0.43356945139818576,3.827695436340455,8.85757964127712
370.74708,-0.5958640605747642,3.8281577982267034,8.85607055599394
371.24728000000005,-0.6072473129700898,4.093900802352685,8.766662522411949
371.74708,-0.5191736902903681,4.041832370604002,8.602076024201347
372.24728000000005,-0.5559292742037913,3.9104557446191976,8.866957388335425
372.74728000000005,-0.6188121565539708,3.9024986066314766,8.752193491095674
373.24708,-0.27969594636913186,3.751047985672269,8.853370353696585
373.74708,-0.09337893615129794,3.783435913005249,9.09882839252085
374.24728000000005,-0.28268676725547853,3.9046978757649073,8.771219480033398
374.74728000000005,-0.3307714494845006,3.7635295162619458,8.666831368153142
375.24728000000005,-0.6556028568311512,2.2597212601206724,9.633597856047025
375.74728000000005,-0.34164735896896153,1.7367770259637516,9.443948638707912
376.24728000000005,-0.1903482065670313,1.6536716536633125,9.673571836707968
376.74728000000005,-0.2566369535517369,1.9896997354936823,9.182259283098869
377.24728000000005,-0.4257245672688068,2.400614726114751,9.39680631087619
377.74728000000005,-0.6228348295114339,2.8914294208391143,9.313598898052328
378.24728000000005,-0.6653363932330001,2.984222222365044,8.963003097491532
378.74728000000005,-0.5882614716444444,2.8583814125342233,9.207721124961896
379.24728000000005,-0.41550354415370705,2.8917932750240403,9.02791310029808
379.74688000000003,-0.6266704398610138,2.884501003538345,9.343450536983111
380.24728000000005,-0.6658482201122103,3.1171136274448394,9.323788608062364
380.74728000000005,-0.8199934917241373,3.065539565190467,9.19876233627441
381.24728000000005,-0.5515890892479703,2.855124234039815,9.24885944534571
381.74728000000005,-0.693565766294629,2.8924160724275647,9.155955959031003
382.24728000000005,-0.4949991626259628,2.9414443886859494,9.219784065054034
382.74708,-0.550027430380887,2.8493422890798534,9.235559360826537
383.24728000000005,-0.6271213703268629,3.391024817475574,9.268431203782823
383.74728000000005,-0.8574057252076563,3.5790043170100345,8.923883925083612
384.24708,-0.5297501234427884,2.7417877165085525,9.227973517937095
384.74728000000005,-0.003983557187832414,3.9622334623521205,8.425233957978277
385.24728000000005,-0.10681064573595293,4.113854838906509,9.269214782087062
385.74728000000005,0.4042156739678803,5.578103574408552,7.682410334796648
386.24728000000005,-0.013378009371443001,5.754129332084268,7.789781220994154
386.74728000000005,0.14735045352311352,5.5941120295924485,7.9126076245320975
387.24728000000005,0.11459665467555614,5.658289243336647,8.230288927064379
387.74728000000005,0.20964135658895666,5.766097278037956,7.873617331717953
388.24728000000005,0.11905726072463794,5.827008901615519,8.107982674091268
388.74728000000005,-0.14615286410807785,6.124545829922262,7.728809163787146
389.24728000000005,0.7908001469282293,5.946140009434547,7.816923730742365
389.74728000000005,0.5073641403981533,5.88102710713494,7.790870004318637
390.24728000000005,0.39477829497519035,6.055747485318266,7.774430156747959
390.74728000000005,0.42904291917256066,6.595293673571563,7.375653085482198
391.24708,0.37436744716187076,6.613925981333182,7.174412725679689
391.74708,0.31235974523389454,6.869516279039007,7.081761086853683
392.24728000000005,0.4746347031971493,6.681118161519878,7.230976854599579
392.74708,0.3093354741091136,6.931525778494086,7.032418994965376
393.24728000000005,0.7390446060272636,6.675006751382378,7.144362851763689
393.74708,0.6060369290307223,5.643226232176879,7.720337287165554
394.24708,0.7133672928653836,5.1613661835488935,8.152649289096592
394.74728000000005,0.9379567531108897,5.438084985182451,7.994754354326589
395.24728000000005,1.1031596917263302,5.428777418700065,7.961053449875462
395.74708,1.057798154842243,5.438874136627385,7.9131735129937955
396.24728000000005,1.1705937769926031,5.44739064618096,8.008188252479107
396.74728000000005,1.021461218030488,5.5407271314489925,7.816201812615713
397.24728000000005,1.190466552041502,5.546981150699733,7.803086561485248
397.74728000000005,1.121189409647617,5.626969115536859,7.935156533064255
398.24728000000005,0.7876972859319544,5.622361118744501,7.836362387514822
398.74708,0.684769196172149,5.5969818635867545,7.954829421501857
399.24728000000005,0.37109399054823217,5.581723527809471,7.830521721417341
399.74728000000005,0.33290927560410166,5.087429445297595,8.334994907188115
400.24728000000005,0.39051850424014456,4.712707625113629,8.39897641186637
400.74728000000005,0.441240428028443,4.6312495313618856,8.536557708442446
401.24728000000005,0.46366516854724293,4.678845660294334,8.443967913533225
401.74728000000005,0.447836676184711,4.647591369929908,8.509855576769557
402.24708,0.40160803484124663,4.603308580134619,8.485385387720529
402.74728000000005,0.3728262607877059,4.636647703544395,8.549936399556177
403.24728000000005,0.06459518242755323,4.684972009866732,8.519244541402418
403.74728000000005,0.0044297953006395075,4.272299954073673,8.69933871427997
404.24728000000005,0.16698228512060942,4.080381973567221,8.85353424798049
404.74728000000005,0.17204204659096956,3.8954744235454495,8.97456759809303
405.24728000000005,0.1589574843726718,3.8138714174206614,9.096320719971489
405.7520839215686,0.547598175550958,4.209780753724274,8.71251025229241
406.25228000000004,0.6658238928799429,4.635179897580065,8.485523139526165
406.74728000000005,0.2807366866347996,4.738638723171092,8.559834027938736
407.24728000000005,0.33297884507631637,4.729261732404472,8.356330480253384
407.74728000000005,0.32561807338347726,4.804571674992919,8.50458051051931
408.24728000000005,-0.16657364642275888,4.275044050806832,9.251080927472033
408.74728000000005,0.13040177561734947,4.482109319977311,8.551222737748095
409.24728000000005,0.3570575178830604,4.585680203020038,8.356737507352031
409.74728000000005,0.11900240543375422,4.673019128079554,8.59917847802689
410.24728000000005,0.3709643300373874,4.627112909675006,8.355103877256724
410.74728000000005,0.2958695696064045,4.585749575120795,8.573518107602387
411.24728000000005,0.3373186044997343,4.689786917273314,8.420003725497194
411.74728000000005,-0.06473726408271653,4.980304350850997,8.444119391685168
412.24728000000005,0.2534800186489142,4.927547882184596,8.284485558518707
412.74728000000005,-0.05145617752153107,4.676939346722718,8.482390252102542
413.24728000000005,-0.5034357132470924,4.756554768726164,8.717657994965643
413.74728000000005,-0.7981587016115645,4.82038735229142,8.406785453990452
414.24728000000005,-1.1770082651191758,5.090342841171631,8.382967347074265
414.74728000000005,-1.5299685551954973,4.74778564610237,8.131836148727714
415.24708,-1.678096810927872,4.605747714558316,8.60158459686944
415.74728000000005,-1.0200783788204404,4.0493323853120025,8.497135997254132
416.24708,-0.9722352835054353,4.241714814596175,8.411800522063857
416.74688000000003,-0.36112082460510203,4.4842835833119805,8.253627620417216
417.24728000000005,-0.1146845176042885,4.427279970882894,8.975660031867621
417.74728000000005,0.6895242016858787,4.692194058493413,8.338650260058335
418.24708,0.46235741313670564,5.20597853646532,8.183732850312156
418.74728000000005,0.45620305564306607,5.3267172436969386,8.005674277897812
419.24728000000005,-0.719123237120699,5.768419076067903,7.977935957827039
419.74728000000005,-0.3437593452767018,6.006525665153182,7.360016584174764
420.24728000000005,-0.5128733143405431,5.840836814563197,7.814987703517143
420.74708,0.8135065991121929,5.5184082886206145,7.543930134062382
421.24708,-0.019761152822697695,5.398626097779635,7.947477254517333
421.74728000000005,-0.27796383774313715,5.472971201367903,8.235442968602706
422.24728000000005,0.6732077487696386,5.695866952307773,7.620645552071817
422.74728000000005,0.11997302557453488,5.681315109192426,7.882811615230438
423.24708,-0.28423575820894936,5.568357762157531,8.312405185858196
423.74728000000005,-0.8205660030929764,5.672208087099898,7.671711197795279
424.24708,-0.49547802012071196,5.762373921826909,7.8234636356997065
424.74728000000005,-0.44971540386253556,5.56799758603257,8.04648179632975
425.24728000000005,-0.2294035794861939,5.0335317984104915,8.050839510552033
425.74728000000005,-0.43173273403956136,5.00647584706302,8.393166717594095
426.24728000000005,-0.0011456879275031006,4.545007808275027,8.68015077532677
426.74728000000005,0.5668205102762987,4.981512337083284,7.386759628114064
427.24728000000005,0.39084286618395025,4.928521621593446,8.519919092464049
427.74708,0.16514252294764328,3.275744861951176,9.263286864307169
428.24728000000005,-0.06095672087940505,2.196064675182757,8.99727092663769
428.74728000000005,-0.004870894177683704,1.5902727117060453,9.49970391509046
429.24728000000005,0.2759669244720763,1.5556702110754779,9.409828825983585
429.74728000000005,0.06808232331489046,1.6802801288832592,9.540753205335069
430.24728000000005,0.17554214426320328,1.9649691696554372,9.611109137418458
430.74728000000005,0.05594141013997701,1.9183833637042869,8.93874525541371
431.24728000000005,0.14351921189997696,1.8813077865623395,9.57440802348303
431.74708,0.14894693210671464,1.9380960898343067,9.428386795188931
432.24688000000003,0.08871978661530942,1.9260616733768594,9.608484859751508
432.74708,0.23664088233751385,2.2914975073903636,9.314865479609553
433.24728000000005,0.38739000520694233,2.110960326786683,9.337531983881599
433.74728000000005,0.18811256623128803,2.2924054291563967,9.659744447239873
434.24728000000005,0.013880611266384022,2.667583357731269,9.154571572662205
434.74728000000005,0.053306770275486484,2.951804489977327,9.516519314841744
435.24728000000005,0.24306809798608778,2.9328546416604815,9.418470557686
435.74728000000005,0.24479651542251413,2.17218520682928,9.656992415974443
436.24708,0.24530602900046133,2.4299735414906833,9.275517017510328
436.74728000000005,0.14910823881570998,2.8694349055525055,9.031885487788891
437.24728000000005,0.37899820769155207,2.7198622540591733,9.501622335382947
437.74728000000005,0.11715510826549798,2.9908914211078597,9.514654193625306
438.24728000000005,0.44104295380880126,3.3619738113728976,9.360943577784845
438.74728000000005,0.3262543221942761,3.284850405487492,9.252848908645923
439.24728000000005,0.23775640460526412,2.8196702180342497,9.357357412765204
439.74728000000005,0.2592124544791392,1.8294987618688467,9.438632093353663
440.24708,0.19792163074438157,1.1629552825500953,9.678935427773883
440.74728000000005,0.2624145083779038,1.299924446412042,9.585910296029232
441.24728000000005,0.26881052290341945,1.2718457305417872,9.598913539503616
441.74728000000005,0.30238835436377387,1.247035933113209,9.587073785244032
442.24728000000005,0.3138731708780858,1.232206769353204,9.59988119662481
442.74728000000005,0.3295368864352918,1.2294252971243353,9.593967065350384
443.24728000000005,0.30726834270074305,1.248854499088239,9.57822045492394
443.74708,0.3344754077622378,1.2397493581596803,9.60045437164494
444.24728000000005,0.37527368052263127,1.2483391847185885,9.638824345212699
444.74688000000003,0.2902273730454535,1.2381564895798547,9.556667599653359
445.24708,0.3456769417345649,1.2244201687887952,9.591190850058634
445.74728000000005,0.35061294559334877,1.215783042300348,9.601387425972018
446.24708,0.3742801959221599,1.2132382492991867,9.614411451906081
446.74708,0.41985602533137034,1.2187320139298878,9.604252393817204
447.24728000000005,0.4073336985901142,1.184659045408506,9.597371746850827
447.74728000000005,0.44941915333908583,1.117009358832384,9.61048395512249
448.24728000000005,0.4669187543185211,0.11379159303838261,9.727746136715282
448.74728000000005,0.4363824298834931,-0.24452230842244166,9.753742720149901
449.24728000000005,0.5600408199700393,-0.3918296911840776,9.709362785313928
449.74728000000005,0.5445161117373557,-0.3066587516508232,9.823619953993159
450.24708,0.4770331090538306,0.44834749126556944,9.58412080824181
450.74728000000005,0.5721822745452444,0.2692028855441198,9.792914250966035
451.24728000000005,0.7446325366096663,0.19438687503338672,9.7910831344626
451.74728000000005,0.6929458483687122,0.3615579941945966,9.820241422393607
452.24728000000005,0.7431129475655287,0.41909524300246986,9.514003644191833
452.74728000000005,0.6802401661146601,0.3376193965797075,9.722253096369489
453.24728000000005,0.5242823858090963,0.39864450875986984,9.522074906017977
453.74728000000005,0.49666667504355316,0.48303051847995093,9.814603349522512
454.24708,1.5503413240717046,0.7819492875775089,9.263002059612123
454.74728000000005,0.5315200824691194,0.7364087326569302,9.624966908425261
455.24728000000005,-0.02610636198676506,0.6081667919268869,9.97736856259629
455.74728000000005,0.057334861650077895,0.4062890813800068,9.606208981006302
456.24728000000005,0.08636718200462902,0.5000848959576722,9.552930606158496
456.74728000000005,0.10254039050766166,0.4892317309013374,9.514821518932267
457.24728000000005,0.10898431969606479,0.40559673193455653,9.67160252484553
457.74728000000005,0.18367087582396305,0.5233444577902856,9.285179545357035
458.24728000000005,-0.07459367050713078,0.27261599671175396,10.145911223368214
458.74728000000005,0.18711510846920812,0.5061616360310152,9.86413589731989
459.24708,0.45950271638450746,0.8304748116043241,9.016190989875556
459.74728000000005,0.30607613235796066,0.7367141705411764,9.843294182375217
460.24728000000005,0.20075693113149612,0.5238553857276671,9.830266012748995
460.74708,0.3337765851516814,0.5747268078027896,9.653712092703586
461.24708,0.11020564582925692,0.6490653238669997,9.65224768814877
461.74708,0.28039931160772613,0.6228232169704269,9.61227232547842
462.24728000000005,0.22846079922971468,0.6895319466159998,9.771121669428657
462.74728000000005,0.15750284916675725,0.636260958178242,9.654851743584837
463.24728000000005,-0.03546533473644962,0.6869425676672595,9.536782303850687
463.74728000000005,0.0005931996854819609,0.8043038322024758,9.665265386004119
464.24728000000005,0.21944867111709968,0.5676146887344128,9.69996253131091
464.74728000000005,0.3590485691183909,0.7458198235586708,9.879339459634128
465.24728000000005,0.3175564966429619,0.8610219691355294,9.658959744024719
465.74728000000005,0.13330821678498542,0.7105754123145281,9.853441746209798
466.24728000000005,-0.04712108797998375,1.1991322402395226,9.346927836929051
466.74728000000005,-0.12675136010393306,1.212138802573719,9.6869036470511
467.24728000000005,0.19546524513098537,1.02405325810317,9.674203542317708
467.74708,0.804092563441783,1.5890714235730041,9.465596571379963
468.24728000000005,1.4117814588583455,1.4439483234601567,9.4302772014688
468.74728000000005,1.3388587299366932,1.2370983253769818,9.886132387511596
469.24728000000005,1.3188194774797406,1.2685697924109425,9.539379966735003
469.74728000000005,1.1547116914109947,1.3791753366271045,9.439363500669181
470.24728000000005,1.2665841154802373,1.2978973693847504,9.5522554587199
470.74728000000005,1.322494949466322,1.153183889633369,9.626020390897754
471.24728000000005,0.5210249463300602,1.6488707442282011,9.341004552130288
471.74708,0.40271125318904827,1.5491011981937661,9.68126067205636
472.24708,0.38002289299635067,1.7161700802259756,9.533132101599952
472.74728000000005,0.5053648482938717,1.5695294268035096,9.390625190157982
473.24728000000005,-0.023085573917101972,1.7626899126395579,9.392692060207665
473.74728000000005,-0.4963231986034709,1.9401541833846705,9.53260317843387
474.24728000000005,-0.5979883707669176,2.27038602307312,9.306098151888769
474.74728000000005,-0.4250244336763813,2.1786907692574498,9.465004746373376
475.24688000000003,-0.3024943526631601,2.2068604342366727,9.392751488199801
475.74728000000005,-0.2877761337147916,2.132794544856575,9.512985113646511
476.24728000000005,-0.22711952234134739,2.220532331315988,9.429671791952511
476.74708,-0.2965032808597446,2.197918094301441,9.360970648016243
477.24728000000005,-0.3542077415927814,2.2341063930565475,9.377458220142186
477.74728000000005,-0.48615813403828406,2.2494741871000334,9.388631231523291
478.24728000000005,-0.5270389767265362,2.176042729768187,9.50431707809412
478.74728000000005,-0.5583629514291324,2.3028727758160694,9.34911678988171
479.24708,-0.6136538445238889,2.213997825025165,9.556980691823505
479.74728000000005,-0.4575309535863238,2.301122558462439,9.322712803365713
480.24728000000005,-0.49731442310753127,2.2803369944024734,9.365956801499358
480.74728000000005,-0.4722853150361279,2.292562692273674,9.43059848458277
481.24708,-0.30879055913198994,2.547773013775782,9.068668043101686
481.74708,-0.4277577132616507,2.7283683846292566,9.537911226362933
482.24728000000005,-0.1585410646596863,2.7453127042204795,9.18629850004428
482.74728000000005,-0.2783673898412394,3.171306597413816,8.954251212841086
483.24708,-0.2664160430069489,3.5492416885831575,9.393527114756578
483.74688000000003,-0.3208875998615283,2.8472581418968677,8.797059018877922
484.24728000000005,-0.37722175321696416,3.05846394517391,9.680683913097162
484.74728000000005,0.016381928656778122,2.8109402729191455,9.113637695498904
485.24728000000005,-0.053342242790582535,2.7445202527914967,9.596891076388022
485.74708,0.15918268559018092,2.4210018898444665,9.133076181943618
486.24728000000005,-0.02338836721030687,2.5490927372270717,9.439471139717995
486.74728000000005,0.16604359816761807,2.531645446297027,9.546517307268326
487.24728000000005,-0.055363277598570425,2.4336697636839473,9.49811971379722
487.74728000000005,0.10171644575087199,2.7582320386967307,9.553838851195577
488.24708,0.10409312297864268,2.857562741455238,9.279277560912183
488.74728000000005,0.020943627665421304,2.9870640915449433,9.620517234454974
489.24728000000005,0.04504675087662439,2.8647488614542578,9.340677364697534
489.74728000000005,0.060922869827706186,2.94335344688676,9.39614084311744
490.24728000000005,0.013483780052392987,2.0862713962313433,9.508092007187361
490.74728000000005,0.07585807346997146,1.010660044824205,9.616217143652788
491.24728000000005,0.0011674533599581375,0.9902075247865072,9.644521156278309
491.74728000000005,0.05799570634912432,1.0451797452474876,9.61721555070774
492.24728000000005,0.04835761144771155,1.0091570996917048,9.622424162822112
492.74728000000005,0.09700098668090985,1.011187959812051,9.640870315188442
493.24708,0.13221040664354264,0.9668669398984453,9.62652916392897
493.74708,0.19295822096799775,0.9250444410349669,9.648483770780224
494.24728000000005,0.14691891818180494,0.9439135236481897,9.619274464874199
494.74728000000005,0.18509006648913573,0.961575379597412,9.644319020491308
495.24728000000005,0.20442085351043737,0.9502138533682363,9.630911681003305
495.74728000000005,0.18385923683082322,0.9913831054248099,9.597199271133487
496.24728000000005,0.10962618213417265,0.9824226465125063,9.710831528978808
496.74728000000005,0.021541776444191543,1.1415560725870675,9.56320317591221
497.24708,-0.026684707998248857,1.2015426037823642,9.573606946344109
497.74728000000005,0.019644807749735215,1.265025532891656,9.55032349223813
498.24708,0.04098680641858626,1.2266632717131023,9.6239183702243
498.74728000000005,-0.24184767419766673,1.7235807606553175,9.45305208263619
499.24728000000005,-0.3108213951753982,1.7171465721138761,9.48643576634912
499.74728000000005,-0.14463328883917695,1.4990120194475267,9.703410612392327
500.24728000000005,-0.06038463448914394,1.3929113850293107,9.549665808875295
500.74708,-0.2368468314395591,1.436508448305404,9.56883328058674
501.24728000000005,-0.22784246872097125,1.4611508107817561,9.550673541165912
501.74728000000005,-0.20704328074968673,1.375829929342216,9.567269166962747
502.24708,-0.24116149068832268,1.3412082820265967,9.559193863018624
502.74708,-0.22994441391187892,1.4141200406878673,9.552012694273023
503.24728000000005,-0.2580374313425874,1.117070247549482,9.577010981477395
503.74728000000005,-0.2367926480718581,1.2438946037841232,9.624262144421918
504.24728000000005,-0.1831435589232239,1.2008249401973015,9.613852960433448
504.74728000000005,-0.15004916556816358,1.2210226820276366,9.601690513393438
505.24728000000005,-0.10241106745218632,1.232342103791627,9.60526730062276
505.74708,-0.1388066448402613,1.222894893926225,9.611558104240185
506.24728000000005,-0.13776795805778788,1.2950622849357507,9.622506831544104
506.74728000000005,0.859389600162796,1.5363772296936526,9.483331765970547
507.24728000000005,0.6023820744014422,1.8703164674581378,9.50076607926812
507.74728000000005,0.14393354347032886,1.7775092638933154,9.466011517721428
508.24728000000005,0.18343996979982055,1.5724364494116312,9.566673714799084
508.74728000000005,0.17009789643645454,1.365095078414086,9.670399125128789
509.24728000000005,0.49060597996383104,1.4324753822953071,9.424360302207884
509.74728000000005,0.47083337548129733,1.3755995427554573,9.57610978187717
510.24728000000005,0.8233262437708906,1.1129536288512356,9.618078820118452
510.74728000000005,0.8048077586458546,1.126994169508173,9.531433997901853
511.24728000000005,0.9068934288204078,1.047474458270882,9.612834146059557
511.74708,0.8687137993799756,1.0650269565053647,9.575341955397361
512.24728,0.7707507246551201,0.6925681839084217,9.617394706982713
512.74728,0.8141922551927151,0.6505140155942634,9.647132123104825
513.24728,0.7866684387613896,0.8596512085129164,9.61081494195633
513.74728,0.8047298043196153,0.867929454908956,9.610064530010355
514.24728,0.8817942945494633,0.8850865081173964,9.600484325498432
514.74728,0.885667437845846,0.9348028481254125,9.594490122821666
515.24728,0.7295824176500532,0.8677598219957083,9.597104879309063
515.74728,0.8497711391664048,0.5585605719192273,9.647614767209948
516.24728,0.5411475216768237,0.6262182002691354,9.728312757710643
516.74728,-0.269368617548427,0.3993964893267497,9.824557323111538
517.24708,-0.8866639855064524,-1.0527798110796684,9.655801507710441
517.74728,-2.71467367951645,-1.1255873850768758,9.393073585445322
518.24728,-0.980733524714585,0.6553626431791503,9.492694285010405
518.74728,-1.0968207073431997,0.2597471487400665,9.616364532609142
519.24728,-0.03844267739443445,0.5545590980729501,9.87240073011299
519.74728,0.5225037221038945,0.16266633241882433,9.840115997790313
520.24728,0.6268931435860344,0.1565776403320633,9.415356742641368
520.74728,0.8020551302165935,0.17537188694462258,9.401056544663016
521.24708,0.36626045832956516,-0.5763399034638758,9.745361535641853
521.74728,-0.025735047467375188,-0.08722577130439443,9.949925618756472
522.24728,0.2766316311628428,0.3672408924735678,9.74419939951894
522.74708,-0.10945675386499275,0.5568748122223691,9.647014349369254
523.24728,0.3763608368233507,0.6759009294637973,9.423147001308742
523.74728,0.41315912367392654,0.4132764387849697,9.862990262831707
524.24728,0.4498661553059185,0.48221552748468066,9.969445536424283
524.74728,0.28951140915499773,0.8337127350681545,9.331838065556846
525.24728,0.4320884113479005,0.8683261718702369,9.63008238124571
525.74728,0.4188407985928297,0.8258005809916267,9.259982752262955
526.24728,0.2329948284918374,0.4399286217250786,10.31719568816236
526.74728,0.21088610744533526,1.0058870264290027,9.621226755426763
527.24728,0.29533600618714595,1.0075572941908726,9.12834688465606
527.74728,0.3150400437587503,0.6199304018412425,9.266058194479887
528.24708,-0.005797019351089117,0.7367704624512155,10.576835150497645
528.74728,0.6450298109778432,0.9213923313229497,9.28219769008929
529.24708,0.36567913858461365,0.5186880396347207,9.865345736511376
529.74728,0.3766459839533195,0.7243261732076259,10.567398584458205
530.24708,0.24828176200308846,1.797393086134088,8.398811875969173
530.74728,0.2937931746449259,1.9964266867675184,10.595332031933546
531.24728,0.5555088775011211,1.3079542836862603,9.400602273318038
531.74728,-0.37299577207450413,1.31646957251447,9.591826966525966
532.24708,-0.5621066064952797,1.3598903066212054,9.68502571189987
532.74728,-0.22940725274844834,1.5089541821736956,8.92923228549743
533.24728,-0.17086588315353396,1.2752073361520073,9.738121452300739
533.74728,-0.11976697933503395,1.3215347738858583,9.48926021494452
534.24728,-0.06342085083407002,0.928737803938668,9.734417671919346
534.74728,0.2244622582264667,1.216084655473975,9.58164461886656
535.24728,0.21560453498465107,1.2036707979993175,9.632982487216786
535.74708,0.34057729664571895,1.1276432592636036,9.733701490089906
536.24728,0.4289404067094682,1.1545971955511742,9.20665641412291
536.74708,0.29037641907799305,1.2028227293631222,10.139244887074412
537.24728,0.3551437101322214,1.4236114263321,9.45981166200163
537.74728,0.35371092329395337,1.390569189520481,9.491869222161824
538.24728,0.44906662962706884,1.5718269031549184,9.347145916534494
538.74728,0.11164034657137133,1.8167329650922432,9.477155285264532
539.24728,-0.06251137421262366,1.9589766351234794,9.563583053269156
539.74728,0.0634193896758396,1.9072209643790856,9.373295262748654
540.24728,0.005685067892951594,2.116875067049858,9.498592871170064
540.74728,0.01156984341374374,2.2222496130148466,9.661794765628322
541.24728,-0.007643049100778672,2.4769516835489678,8.944461506208365
541.74728,0.005218404130012014,2.392955008295168,9.733479719778895
542.24728,-0.2764887301002527,2.6314162457481296,9.66487410416995
542.74728,-0.21425217361265708,3.1117387246239714,9.22557006221821
543.24728,0.037975861906767515,3.0334512142040726,8.806738388938049
543.74708,0.14737947013928263,2.611195213859891,9.711775208712034
544.24708,0.007232424599409862,2.5746563628147343,9.432726923087676
544.74728,0.07539711405463184,2.5628786987680896,9.407723265050075
545.24708,0.09799564803019944,2.1542090582741737,9.815487298929455
545.74728,-0.2149170527883916,2.228132637155153,9.85187540642272
546.24688,0.21248211717636348,2.727385152459677,9.384393265995623
546.74708,-0.1642162954955758,3.043449905580726,9.202730607477246
547.24728,-0.12362875744245878,2.8036987117614847,9.4371368993386
547.74728,-0.040758924995746605,2.799606508571428,9.409168003041257
548.24708,-0.11287897828234555,2.5845077138429247,9.42674930805568
548.74728,0.01477686838907745,2.7582265092912963,9.308214073538013
549.24728,-0.0750757015409734,2.599704936217006,9.474731036321003
549.74728,-0.04939172531647338,1.9592905424656875,9.514586649219916
550.24728,0.09847755379946747,1.2432829178473868,9.627278355538516
550.74728,-0.05272011768650788,1.2289124529579982,9.559848539564733
551.24728,0.010962518016675813,1.1119901381514716,9.62568272727592
551.74728,-0.023035304262038706,1.0908102378776634,9.59498069568544
552.24728,0.051135885304785196,1.1316188921264745,9.647878550260561
552.74728,0.051304768526233176,1.124484989897656,9.597818386379219
553.24728,0.07988829143349839,1.0944831134784783,9.633156427041751
553.74728,0.09055709473613886,1.0918069187666426,9.606313503582387
554.24728,0.1486859906677787,1.0771928373126292,9.678904248355218
554.74728,0.0026557596556748765,1.1512191860927377,9.535513416489637
555.24728,0.015489086375522897,1.1450795389170498,9.630674274564305
555.74728,0.03683157109125057,1.176412658197125,9.606485625351684
556.24728,-0.002712978098880994,1.1152758261713505,9.599088043679602
556.74728,0.053724627419281336,1.1170475084097022,9.655080111889742
557.24728,-0.005385449191033328,1.1072888562122654,9.587899438258615
557.74708,0.016185328973434755,1.1493365812880567,9.614088653242822
558.24728,-0.01570006282429014,1.135164790462901,9.606355812014103
558.74708,0.007106223875635836,1.1520292185847911,9.602074727392816
559.24728,0.007659263415037479,1.0778973726366115,9.642910498579647
559.74728,0.038518594354494964,1.0613292802440453,9.593463911645527
560.24728,0.039810808748025554,1.086510795244031,9.658745213380625
560.74728,-0.03689179843799495,1.0575650817575062,9.620439759137646
561.24728,0.020963936546843177,1.0873371892659096,9.632040647039243
561.74728,-0.05571392257963377,1.0488066603433608,9.595337428227708
562.24728,-0.05143892797836923,1.0525034235756572,9.614897765095522
562.74728,-0.1443762172210034,1.0335231810326642,9.62206478037084
563.24728,-0.06591808278425626,0.9949630183192311,9.667569588256418
563.74728,-0.05295987617015567,0.9859201211495164,9.584478642351383
564.24728,-0.050753514562228395,0.9887350954851647,9.601354952953958
564.74728,-0.018533350306799787,1.0034710539519338,9.661503017072047
565.24728,-0.04022976520393713,0.9799551684933693,9.617928060748323
565.74728,-0.05156149649455365,0.9768141359684148,9.612841541760828
566.24728,-0.06479647463169105,0.9323795267271344,9.668805837713027
566.74708,-0.03699724321453318,0.9385623780484448,9.627753126855062
567.24728,-0.07952883191106024,0.9412988753614622,9.598901712682174
567.74728,-0.06800869868547185,0.9537330963540144,9.638306918378687
568.24728,-0.08384929702167215,0.9558289385067004,9.550315503655808
568.74708,-0.12198045770041897,0.545604888869065,9.701871754100537
569.24728,-0.00804951706884583,-0.18177709824235144,9.649279737276343
569.74728,-0.06838132329180248,-0.47459213034335285,9.796506655300478
570.24728,0.0013139687917898652,-0.5896349936229051,9.68367361485095
570.74728,-0.012034261701873517,-0.15905082006450105,9.669780364531077
571.24688,-0.04631001606162868,0.07964958389650423,9.84666067389579
571.74728,-0.017737818432122535,0.11334292090681525,9.700474196567825
572.24728,-0.029334853267802427,0.10360619452846652,9.739446363154714
572.74708,0.04023036405276911,0.0977094001137755,9.768565989294402
573.24708,0.02689958223753655,0.09314728290589613,9.463824944018741
573.74728,0.0488630000384965,0.027630836914225614,10.012840132447684
574.24728,0.003147864966023919,0.4157891710202895,9.23545569190815
574.74728,0.02304837344686063,0.15915367611421932,9.652509990407935
575.24728,-0.02796857859475894,0.27782629162034617,9.543109804995225
575.74728,0.11658757467058428,0.2715874869223155,9.88253533707807
576.24728,0.05196499194016396,0.2802673798874837,9.67265472336655
576.74728,0.4590880019026167,0.23004540432998208,9.563701910451982
577.24728,0.607772153202162,0.029044063284835647,9.697676424080447
577.74708,0.5657900606991609,-0.10546513026901443,9.554410610069645
578.24728,0.22244327270561054,-0.33286923133841934,9.64033805403889
578.74728,0.5132718569330433,0.10968643808819575,9.721788808458125
579.24728,0.3419420991435222,-0.01814251423806083,9.627995737075722
579.74728,0.4133158611972148,0.005966741807072193,9.42607483569169
580.24728,0.37743823674848415,0.15527317402393936,9.978245700443164
580.74728,0.3520079883092215,0.5405424240206989,9.53411745464093
581.24728,0.3361131153153273,0.286582347919576,9.886560842900305
581.74708,0.05714110694960897,0.6926049526451667,9.51876845280417
582.24728,-0.02749024915348272,0.7990358104220628,9.693386191172294
582.74728,-0.020140547736117075,0.7121825976715699,9.601452302383946
583.24728,-0.08251602470534083,0.4936707923631549,9.687486282105208
583.74728,-0.09784123432781465,0.6312822703942307,9.537983371281783
584.24728,-0.2454989319501466,0.7674452273597062,9.615481420985358
584.74728,0.07633891959483391,0.6912457157931496,9.57852156573958
585.24728,-0.07611969285869652,0.5377104449040594,9.782024430250077
585.74728,-0.1323612493695142,0.4756241620212391,9.532085151186568
586.24708,-0.19593275379122313,0.7589401338315485,10.07159569255937
586.74728,0.004873863840893624,0.9515601820267389,10.049157507208506
587.24728,-0.055808963595046876,1.0362601948311134,9.841294666828311
587.74708,-0.10280481148754124,1.3096620395250904,9.499453783406752
588.24728,0.10801662648655165,1.1414296380126112,9.337340433419996
588.74728,0.09688862365827211,1.1716523944281176,9.644171585736933
589.24728,-0.057072968769833456,1.1253397878692442,9.717885502104373
589.74728,0.016065605121498783,1.6963318850241722,9.294353964311743
590.24728,0.07064263287930675,1.6212435123479383,10.095875661393318
590.74728,0.05947844368180693,1.8230868654112218,9.549906423062573
591.24728,-0.02934071974646571,1.8606670700020986,9.342448053054138
591.74728,-0.0757464080527253,2.1457025007677784,9.636760376105139
592.24728,0.01770559930737352,2.839151174439977,9.473002900158036
592.74728,0.5210958760882941,2.8388516043158565,9.071003253668675
593.24728,0.2241905102092489,2.421961451426455,9.649549911420989
593.74728,0.7052380786754209,2.572749191480895,9.132736971171083
594.24728,1.4279076763324503,2.2458033579525356,9.280212467732811
594.74728,2.3939640770379067,1.7147774295564624,9.601105557209673
595.24728,2.759714238019343,1.8130481853884797,9.033620316469895
595.74708,2.830800899429282,2.043373339067889,9.371712475519343
596.24728,2.3118226634474444,1.7893936289180457,9.503159350314597
596.74728,1.5727276489917952,1.1446832960252677,9.978176088667755
597.24708,1.6816626376618182,1.3180987569971097,9.752609948187846
597.74708,1.91786154045256,0.969271815451216,9.914775178558337
598.24728,2.0415612717821587,0.991470141391054,9.586006243452202
598.74728,3.157160013811158,0.9887239806753498,8.584292116313641
599.24728,3.164206304789188,1.53765374994219,8.998688005714357
599.74708,1.5412433820221585,-1.5429209532444728,9.948808371933557
600.24728,0.7005336920709192,0.09363043736636127,9.298750257051546
600.74708,0.44982136966120384,-0.3385559955296097,9.767614949390946
601.24728,0.747744556892387,0.3973404893734317,9.825850063301171
601.7272800000001,0.5739685217583184,0.28088784548686474,9.483909292811184
