Time (s),Linear Accelerometer_X,Linear Accelerometer_Y,Linear Accelerometer_Z
10.25310835,0.11957911867322886,0.11969446353186741,0.23943050590170523
10.75310835,0.2274950640869346,0.268572093829744,-0.3331204668353984
11.25310835,0.19621195335296077,0.32818035926349237,-0.053706413368483474
11.75310835,0.14492107657652237,0.1623765318225405,0.0313007262341068
12.25310835,0.041894818674887556,-0.0393493128494023,-0.09573912235820593
12.75310835,0.03447435500007811,-0.18613743218191345,0.11944171432211576
13.25310835,0.013077655135039503,-0.07277453752298636,-0.062096456774372026
13.75310835,-0.018998037778324442,-0.012644747535486256,0.1783996575135603
14.25310835,0.017388461380193957,-0.1313111747766793,-0.012180682052954292
14.75310835,-0.0655717381250956,-0.10781076238478915,0.05425556855408642
15.25310835,-0.11594895116204505,-0.003357034134853368,-0.10003934909876362
15.75310835,-0.0744207932803935,-0.054512085335494974,0.14573987097199392
16.25310835,-0.09094850649905074,-0.02123746567737206,0.000772574102479755
16.75310835,-0.08394379864056699,-0.012112933527701571,-0.0028646805834923227
17.25310835,0.06492335279877012,-0.035561412157086456,0.05157008011497963
17.75310835,0.11594187466810828,-0.02338304114929865,-0.08847504093581576
18.25310835,-0.05344863731252288,-0.03422864273245665,0.200387551636246
18.75310835,-0.04635011039851916,-0.036261491646273056,0.007075839581574789
19.25310835,0.033599711105164715,0.10065900140525247,-0.46022384605298877
19.75310835,-0.07012397965838167,-0.061717421839570095,0.5838663228405393
20.25310835,0.11897607603252842,-0.002255162214150004,0.011160226522195464
20.75310835,0.08874601315472994,-0.008841706476144755,0.16743637260484895
21.25310835,0.1171360389112181,0.07624960476654492,-0.1718085518657677
21.75310835,0.03704719327870089,-0.007219052531196516,0.08290404397911319
22.25310835,-0.028014231337438775,-0.0317375418470018,0.16909332689989612
22.75310835,-0.08847955022785647,0.03685681098724964,-0.09050129492867791
23.25310835,-0.057749657430956225,-0.12699663511464024,0.23053898583431573
23.75310835,-0.11689009302637876,-0.23268202633922466,-0.028161152074033975
24.25310835,-0.05458272460198658,-0.22419953075740343,0.006902974334980118
24.7531076396,0.13140894353923413,-0.32700754304273333,0.09920419498415019
25.25310739,0.16320979402071248,-0.1296619849698689,0.14054919797734086
25.75310739,0.17461476853626004,0.1197447461782001,0.27082214640779845
26.25310739,0.11611082465565409,0.19195065510284207,-0.16271453089534668
26.75310739,-0.08230882926861409,-0.04717612054964989,0.24626102015169177
27.25310739,-0.06096290588338126,-0.09869591557052733,-0.2453457605433318
27.75310739,-0.034248305966436444,-0.3027596152081467,0.361691646533524
28.25310739,0.06207769757661843,-0.19585923693417479,-0.23461159671704576
28.75310739,0.2617685667898674,-0.2613660187659581,0.41918105467333894
29.25310739,0.8497221734578617,-0.1998815454902855,-0.2494565824807376
29.75310739,0.9376167033206368,-0.11546244095005352,0.08853199698127742
30.25310739,0.8896273907318181,-0.11811960654832988,-0.008563230402649516
30.75310739,0.640181945512921,-0.09172639473956956,0.0814381377460062
31.25310739,0.3096513381341692,-0.05909341055567155,0.0837928684595446
31.75310739,0.22013274754065915,-0.03388658678902996,0.04319068047763624
32.25310739,0.06875984730671002,0.10072326723395893,-0.11613135546547476
32.75310739,0.1581913171010595,0.153796082960858,0.20396814946336841
33.25310739,0.05052691871819239,0.1244311269952247,-0.09750369078565052
33.74525926956522,0.02543479130281,-0.017871092855481153,-0.16464139511335846
34.25648229854166,0.0034909756637255054,-0.017847090411876883,0.28867844243125795
34.74810739,0.01895490026605786,0.06333428306102121,-0.2666519769586465
35.24810739,-0.00033177516224520645,0.10444694141340152,-0.18291806605192046
35.74810739,0.06568998103844977,0.040139703597065965,-0.046222126796194266
36.24810739,0.03010911282185813,0.04839007609127398,-0.07522335883532655
36.74810739,-0.05363757889906484,0.04317017472574724,-0.019026292879458673
37.24810739,-0.31969859555262287,0.06947647214133315,0.07381325730842304
37.74810739,-0.39581614308666035,0.11089406177271742,0.046913229228446214
38.24810739,-0.46669342018716053,0.012702808399274521,-0.3912751108697239
38.74810739,-0.5407847395137201,0.10560051186755319,0.11866637970165175
39.24810739,-0.5113037915478984,-0.18279919489000626,-0.3218748270920343
39.74810739,-0.4053036123521674,0.09067881530345243,0.47377292340089255
40.24810739,-0.25336250690805434,0.0664721409363081,-0.05338271960596728
40.74810739,-0.1455322288697989,0.0718336714567694,-0.1462635285415271
41.24810739,-0.03387999399186921,0.11228711462367626,0.1758943311456715
41.74810739,-0.04309506844176402,0.2254631485574773,-0.1503433609378747
42.24810739,-0.02915582267486729,0.20219835768336875,-0.08275483824735944
42.74810739,-0.055065552826057095,0.14265802592952587,0.21023379137338047
43.24810739,0.032602224175428386,0.15479473487297493,-0.22458173709376578
43.74810739,0.001970540509031351,0.11665992080956339,0.032750583138116615
44.24810739,-0.0023179839996537925,0.11424071602894394,0.09681148499405552
44.74810739,0.11862729276430262,0.10703043613378908,-0.3683743793330412
45.24810739,0.1418533660045924,0.1977246430211213,-0.06834791536729351
45.74810739,0.1456969147854109,0.25569887273901915,0.19635307486024395
46.24810739,-0.034466725110025374,0.32307708293180926,-0.12365025469311192
46.74810739,0.04454648190319938,0.354835023875919,-0.1017591450929703
47.24810739,-0.02474892937917325,0.2862107982189118,-0.03177615730769634
47.74810739,-0.030251575988769396,0.3144360768669815,-0.1503784098012686
48.24810739,-0.07745626248277125,0.4306992634717989,0.020550823912838388
48.74810739,-0.04361182097088947,0.8672962075143096,-0.13531183156104734
49.24810739,-0.17905568592060891,0.8513811448455207,-0.31390997475332816
49.74810739,-0.03221217081889139,0.8383920274342533,-0.27098993643241887
50.24810739,0.04998108752225189,0.8952264431951629,-0.35272799574612823
50.74810739,0.023988432324795576,0.8053200609418344,0.3036757823846017
51.24810739,0.013033011198761591,0.5951724541154156,-0.26722278260944826
51.74810739,0.025866360412588066,0.5230521006455969,-0.16254925428413078
52.24810739,0.0554197743611525,0.5848648603471758,0.022102517883420103
52.74810739,0.057046500614371,0.19510299712395646,-0.016611691654548767
53.24810739,-0.043143492370669084,0.4593802166533113,0.0006684405081116162
53.74810739,0.04609966833802006,0.270180839229127,-0.06724247251872499
54.24810739,0.006941846253022449,0.3387950483608753,-0.09281937463682034
54.74810739,-0.03966534064348712,-1.152170951335206,0.10731473662424129
55.24810739,0.02053786974873774,-0.9370646024921174,0.1282101426386026
55.74810739,0.01804845703138255,-0.962217332858763,0.2678771164232173
56.24810739,-0.0506698077411703,-0.6812594333127596,0.0005614279082463791
56.74810739,0.03872503424046966,-0.5671652655248084,0.1682622575959304
57.24810739,-0.037629608072842366,-0.26875642963242313,0.0005367999824048453
57.74810739,-0.006044241012460615,-0.19982221318203927,0.08307498687712503
58.24810739,0.0018283047318527804,-0.09359916687789446,0.0335220762106963
58.74810739,-0.0020403924164141035,-0.04062765049646764,0.033359413212128756
59.24810739,0.015109999507368221,0.023024808319577757,-0.0060483546056874895
59.74810739,-0.006261706159123005,-0.04709386001034184,-0.002427829103485016
60.24810739,0.0030910680425222793,0.004414433059752671,-0.006201659448850666
60.74810739,0.005123112620032129,-0.008080016189841575,4.39678263243326e-05
61.24810739,-0.002669190907446789,0.004337173249113777,0.0027405165209464437
61.74810739,0.001215695998139467,-0.0045458543788331855,-0.01248074716439989
62.24810739,0.0008011982749768815,-0.0033166432532259747,0.009941309759573556
62.74810739,0.005583595717826712,-0.0037642404757810876,0.004917839022597209
63.24810739,-0.006342115305567149,0.008253957941255954,-2.503266168186638e-05
63.74810739,0.027213543058406033,0.001133047298343609,0.0424040958344979
64.24810739,-0.04406341582936755,-0.11896694479892275,-0.2805253436490344
64.74810739,0.10363446675754771,-0.0479135219240049,0.23728325932976063
65.24810739,-0.03396809048837354,-0.02243375258576403,-0.08544498637569196
65.74810739,0.012399241557998417,-0.026637619207503467,0.02445059831789059
66.24810739,0.017272007947318736,-0.010642306800017858,-0.02944439285477556
66.74810739,-0.006665036197634175,0.008553200277032956,-0.02027919637244405
67.24810739,-0.015364860096583008,-0.030534149783919207,0.04287997519797048
67.74810739,-0.005920657114264329,0.012912518312610484,-0.018072938645680842
68.24810739,0.007255723505994849,-0.002559705069582175,0.008336596835688099
68.74810739,-0.002599550524031652,0.0018848712092313,-0.00046825570636017456
69.24810739,0.006395152892298563,-0.005018954822462028,0.00998010132508719
69.74810739,-0.0004812639455765916,-0.0033979754834273577,-0.009249007490277641
70.24810739,0.0025381252152571164,0.0008022468917682043,0.01071400361066568
70.74810739,0.0026781708983136913,0.0004453037903763542,-0.005704380255622184
71.24810739,0.0033086457850912475,-0.0008474483704431108,0.001963444671090246
71.74810739,-0.0007620279769552885,-0.0003405380913129816,-0.0007652176679183848
72.24810739,-0.0002740438628437703,-0.00030601275510467083,-0.001153042372528258
72.74810739,0.00087177532406718,-0.0012915089258694772,0.0025379437206860924
73.24810739,0.000999917912646738,-0.002000297758136448,-0.0009769911609772408
73.74810739,0.0004874724584442107,-0.001912973938160287,0.0031746335864249408
74.24810739,0.0014548279667423736,0.0005112813307256203,-0.00544060700363411
74.74810739,0.0006727410468407911,-0.0002268276222644508,0.0018112755717588167
75.24810739,-0.0036440902159414344,-0.00140913368845561,0.0031622511453895685
75.74810739,0.0004407212189896289,-0.0017645608075751726,-0.0003978411232531856
76.24810739,0.0005840679680208389,-0.001101510056521142,-0.0017164256504147903
76.74810739,-0.0074757422769929005,-0.13019762309486832,0.03809796912472824
77.24810739,0.01747358124963227,-0.37858023276717234,0.009403123275706145
77.74810739,-0.0005431332306045927,-0.5277302487307994,0.05809953670449967
78.24810739,0.0011710053497760284,-0.3215725842052708,0.012133813988656665
78.74810739,0.013862059951574626,-0.22866525903155582,0.031050708890569934
79.24810739,-0.026575459891179168,0.23211222432005113,-0.039628888983279896
79.74810739,-0.022002176818632094,0.22467663507999802,0.07424794081492536
80.24810739,-0.07148146007508992,0.03744316258197248,0.05008228487959945
80.74810739,0.021608428267416702,0.13069400327338013,-0.013601305123658335
81.24810739,0.15775327706414838,0.18479101171459725,-0.1403845201323897
81.74810739,0.3157565856256002,0.14926087701664187,0.1796795207415434
82.24810739,0.7187550959097706,0.2601645112307836,0.0072793658232230985
82.74810739,0.911854540173088,0.30900715408139234,-0.09920056736387468
83.24810739,0.6790248857454073,0.22683596834952424,0.11395521470938368
83.74810739,0.7699986092636268,0.08093674722034985,-0.05653667755120802
84.24810739,1.0133819044340222,0.3630058814655673,-0.038112973967260926
84.7481080812,1.327909136183503,0.5681086935148123,-0.10680756834395906
85.24810835,0.8050397757745403,0.9568129706509519,-0.26131485506966234
85.74810835,1.143170507212308,0.5408233400066423,0.050642739575388875
86.24810835,1.0839029419764754,0.8279258113609163,-0.29310396106626335
86.74810835,0.7956413413292196,0.7453718214228658,-0.1165205628816513
87.24810835,0.3720312526116334,0.5885489121240396,0.15978851640205807
87.74810835,0.005778156148795349,0.48913102514413415,0.1568000728013893
88.24810835,-0.4125313765892271,0.4623104931070199,-0.0020419815349566797
88.74606397361703,-0.7550016726947963,0.3889408809566018,-0.2512923684759963
89.26257639531916,-0.867165215790044,0.38864730483509924,-0.04427995645302905
89.74810835,-0.7229830278906326,0.2836403905759814,0.08867257347737553
90.24810835,-0.27357194832544013,0.047408357846712566,-0.18082278660253553
90.74810835,-0.44359477023551647,0.47715779915534967,-0.13812295879923442
91.24810835,-0.3562065474504649,0.678634492043261,-0.2696558658916598
91.74810835,-0.13406003083780996,0.37286753008408907,-0.21280078570668126
92.24810835,-0.2780247416875298,0.4802189011023629,-0.3983394110315717
92.74810835,0.16763730175354316,0.5284719520959734,0.08137581918792178
93.24810835,0.3964722112787078,0.4387265964232402,-0.1301504662941614
93.74810835,0.5185878095517115,0.5882624389384483,-0.009065084038170768
94.24810835,0.29164311244068375,0.4655082025752404,-0.02344624945397868
94.74810835,0.2065261980658962,0.4081824641730758,-0.22571963017708316
95.24810835,-0.043677308542269803,0.6808146660509403,-0.11092046345432367
95.74810835,-0.2337911413472979,0.8936369810347682,-0.33762793074214625
96.24810835,-0.24279110572988005,0.7691460450402323,-0.2753580889061972
96.74810835,-0.11287553350841818,0.7525244998297654,-0.17591997616905267
97.24810835,-0.1987358703024991,0.78039933670162,-0.22603025797810095
97.74810835,-0.027158849603229642,0.362222274542875,-0.0886587920858274
98.24810835,-0.014164793555222035,-0.08958580060817675,0.12649313869670545
98.74810835,-0.10124547529213573,0.260544509686687,-0.2229060797405161
99.24810835,-0.10773017008701981,0.2923677687620312,-0.11759728734672406
99.74810835,0.03645287047445591,0.003109356760519756,-0.03853084383102272
100.2481084,0.04899003182787716,-0.7012860786468113,0.23866861052011576
100.7481084,0.025893560706157413,-0.5533080988784899,0.05521250434978557
101.2481084,0.047460932137785024,-0.5486964836269753,0.15067068932400063
101.7481084,-0.05245667494180123,-0.36229892147236903,0.11216924965850486
102.2481084,-0.0008015539906097741,-0.19660635426712136,0.045296705035798496
102.7481084,-0.006740135121009172,-0.08732358722521004,0.03825645266266362
103.2481084,0.006076785767362457,-0.0447662511817716,0.036919304746994154
103.7481084,0.006582793781741743,-0.01683545763112834,-0.017488314312988366
104.2481084,0.0015370922593655246,-0.0012595235091106968,-0.002051126478876401
104.7481084,0.005692172976794485,-0.002324303260783098,0.027367701855031457
105.2481084,-0.04322186081991131,-0.0020358034947427217,-0.03544126273180934
105.7481084,0.021454196669997688,-0.013244164742827419,-0.025088998692595035
106.2481084,0.0238224669261941,0.0063764975910235,0.08856251536327074
106.7481084,-0.0007218391938161198,0.006231905227271583,0.004399222723827107
107.2481084,-0.010042439432299996,-0.012573968412702148,0.021107741280226303
107.7481084,0.017463581971783316,-0.001336388738568462,-0.008342708090617325
108.2481084,-0.0011139668294601565,-0.0016957350847572152,0.008827740204017526
108.7481084,0.009916674978115811,0.0018748024067291634,-0.0010591274435812464
109.2481084,-0.01674348222022031,0.007190433340692816,-0.01802916671873496
109.7481084,-0.011350549021840628,0.004556072615083162,-0.0006152571459104966
110.2481084,-0.03632506882919097,-0.012723655577788463,-0.021434028713375478
110.7481084,0.016256917821323814,-0.9523784718455905,0.26429986378650827
111.2481084,0.01601339046981926,-1.0729269804597659,0.21796145848305185
111.7481084,0.06130466521874393,-1.1250962340469755,0.17332594461394824
112.2481084,0.051286118230362866,-0.6498860373020625,0.15047793931547926
112.7481084,0.1376921441932819,-0.17185715187506928,-0.03560514751547541
113.2481084,0.09021146532067995,-0.21054946966752275,0.23945250384648367
113.7481084,0.16838601739792286,-0.13478046594814386,0.034915799451657153
114.2481084,0.09694747753400447,0.05861980644867749,-0.16001731218661483
114.7481084,0.07136475412705905,-0.11318460483303604,0.23691407557622576
115.2481084,0.12672814585748576,0.06893386912349418,0.03773884166083742
115.7481084,0.08080591511142911,0.007239171474849244,0.0342257664750038
116.2481084,-0.04840575555217336,0.07067281641973168,-0.060497495771731684
116.74205996170214,-0.1831788069326333,0.07196348318545298,-0.09420982904995516
117.26447341914894,-0.3241188482736916,0.08410865304470161,0.012652471780288981
117.7531084,-0.2050625486407544,0.07580158571484226,-0.047419010539694245
118.2531084,-0.2866589933431325,0.0933732812116539,0.02195003902464273
118.7531084,-0.10325725321463308,0.15962349421653008,-0.27814378512777194
119.2531084,0.009281067549917296,-0.018743988053546462,0.30511362706693274
119.7531084,0.019806987776854742,0.14760591650506,-0.12538840744171947
120.2531084,-0.04383222609999592,0.2009429588827345,-0.2239969274527914
120.7531084,0.18061269334804472,0.11853591135278299,-0.05104323370138582
121.2531084,0.2795105996846156,0.1279146936908053,-0.06223834139954574
121.7531084,0.126726549281291,0.1511171370713615,-0.17300451187579718
122.2531084,0.14485538690302008,0.13304709312114676,0.025693122560807264
122.7531084,0.1362360736928339,0.07095756937158469,-0.03910998609218601
123.2531084,0.042570092463782974,0.09778516129175056,-0.07637828653143529
123.7531084,0.081193398615011,0.10137848374411335,0.15331209090364806
124.2531084,0.15472842725459274,0.19941299905478307,-0.26112912792601795
124.7531084,0.04333717656281269,-0.024104006110931792,0.011627369470309307
125.2531084,-0.002518756107724035,0.19606592955504049,-0.020542681291557674
125.7531084,0.022190653433236212,0.15683795949312326,-0.10339011788176684
126.2531084,-0.017342554612070526,0.13878647015323747,-0.009041682381723608
126.7531084,0.03789239966700143,0.11051731154039912,-0.1863741620364179
127.2531084,0.2873056316897855,0.14206661402585688,0.06553585953741754
127.7531084,-0.16576124176290744,0.10889497509662807,-0.1121836871608331
128.2531084,0.13598361756692498,-5.7370789548076287e-05,-0.009331576891738618
128.7531084,-0.045155642447393146,0.1056994946808092,-0.08762906247191865
129.2531084,0.19392924151054303,0.031934252832069986,-0.0821438170712526
129.7531084,0.033986594269255314,0.04153041049129668,-0.005857240530527945
130.2531084,0.007660849575771615,0.07300319716603611,0.16887633770736085
130.7531084,0.11963411520747451,0.1148558547906327,-0.2703717115677707
131.2531084,-0.03586327768297288,0.5377371009638062,-0.2737751015923234
131.7531084,0.052405081629381824,0.44038508133647497,-0.016139508846433864
132.2531084,-0.004835104686375896,0.4761444378359718,-0.09512152574517671
132.7531084,-0.11573482286840366,0.38493547146837775,-0.23295087735314376
133.2531084,-0.03457459187346313,0.40487695319534356,-0.22171509960788793
133.7531084,-0.09187220559929936,0.3397006532532176,0.01628715207637427
134.2531084,-0.13655412882762896,0.276672704177984,-0.010314043630055239
134.7531084,-0.02540135853434938,0.2407408107765316,-0.27455662512962953
135.2531084,-0.20917273656161575,0.12132430630932689,0.008504528288489476
135.7531084,-0.13067286893827681,-0.10015433346265383,0.1240375151611511
136.2531084,0.14174403666515703,-0.10236448918237333,0.08124770507589477
136.7531084,0.12203295349874295,-0.0035144684680375148,-0.2979748538448799
137.2531084,0.07654728122859965,-0.001643086323627685,0.08378806081536348
137.7531084,0.1944011458012018,-0.007754649077773689,-0.09517195827258743
138.2531084,0.11484231830160369,-0.021246932993612404,-0.2550628910689069
138.7531084,0.0605303230818625,-0.03917911385606417,-0.22755680266068234
139.2531084,0.03992465461153415,-0.04890312195116902,0.3492762244073105
139.7531084,0.03865834111896729,-0.1454910413409889,0.22160470025020299
140.2531084,0.14392799821793323,-0.12091325726521994,-0.16164375538436274
140.7531084,0.1919401236452907,0.5630854049056827,-0.3152642299904385
141.2531084,0.05203737845961129,0.48155670937944833,0.05422527898426775
141.7531084,0.017235192347838473,0.05280617051616398,0.18972502833906404
142.2531084,-0.12634897461435837,0.035586468573397194,-0.36432820124974774
142.7531084,0.0002852287095137207,-0.21703926134695725,-0.11963124023479922
143.2531084,-0.1355316921099553,-0.1661156516996562,0.5155068284598975
143.7531084,0.41349885286046606,-0.2440608633769889,-0.1805032108192743
144.2531084,0.31565175813651963,-0.18865694825617274,-0.006823951617171362
144.7531084,-0.06979089585696466,-0.19494180512227557,0.39129257038492615
145.2531084,-0.36385104773863036,-0.24044892141796811,-0.017948162792472626
145.7531084,-0.4951948426356526,-0.26009823728495646,-0.04583508094360633
146.2531084,-0.21005665137111215,-0.3166522813189963,0.07085295110296616
146.7531084,-0.3798674993846018,-0.23171983489459294,0.02972604564463737
147.2531084,-0.22592663690394296,-0.14859821976522955,0.1484582506520516
147.7531084,-0.16597310640999863,0.020792202305909818,-0.1255721778047776
148.2531084,-0.054799871717680054,0.24773388314333927,0.04345242553878054
148.7531084,-0.038357645340456055,0.1621938827361337,-0.12907654103168345
149.2531084,-0.07233931294505745,-0.038693835725484065,-0.0667939918105335
149.7531084,-0.2654333351547522,-0.10298518333366129,0.1490049302726545
150.2531084,0.200422562187172,-0.13111615204700572,-0.31141367446859225
150.7531084,-0.021941198290676568,-0.12003640079120985,0.4353165164003051
151.2531084,0.302134549598331,-0.17427097200472347,-0.38841236999892537
151.7531084,0.2677924595320371,-0.04335928080550816,0.28037211351493146
152.2531084,0.2127809564524228,-0.043419541466940645,0.058656221791255264
152.7531084,0.5850141547285711,0.012693751646943717,0.29471189410636406
153.2531084,0.45659256077124055,0.06595571819091506,-0.36867114400093487
153.7531084,0.23593067377528384,0.24293446402144586,-0.13015221019865394
154.2531084,0.3345494700838085,0.07379527592758174,0.14585978049124187
154.7531084,-0.08728326578741294,0.048298810063499065,-0.30785371890399277
155.2531084,-0.4435397947803178,-0.013015466538787773,0.2164151018192046
155.7531084,-0.5515986539275015,0.04246228463593298,-0.23823975295039926
156.2531084,-0.3406999700328319,0.04220006882948578,0.10932279736011115
156.7531084,-0.1565744242919401,-0.25992514844556724,0.04414308896844692
157.2531084,-0.04948401270128926,-0.17303258956516043,-0.00505697334305637
157.7531084,0.028022555012034656,-0.1181440242723007,-0.060267568153202646
158.2531084,-0.012856546001059283,-0.10594787248535786,0.18829950779772275
158.7531084,0.024985303059311764,-0.18363849674005286,-0.14246803318274104
159.2531084,0.0954462861717134,-0.06994236871681,0.2694729153020287
159.7531084,-0.05538888425627457,-0.04712287726200157,-0.32171334516130545
160.2531084,-0.024348831076145192,-0.016528353508198056,0.19687944120723588
160.7531084,0.09960835154342977,-0.02974198028127177,-0.07303848401540235
161.2531084,0.02773433219700247,0.05477522981467397,-0.19806737799249943
161.7531084,-0.09016776105680975,0.16982421302253087,-0.012503853719942918
162.2531084,0.06472370321789335,0.06797054910752647,-0.16688158186701643
162.7531084,0.03693756435463573,-0.012152401176945096,-0.1452874574539739
163.2531084,-0.042519004963028253,-0.045354388333086415,0.26352420940088767
163.7531084,-0.04403949966641907,0.058824865576242516,-0.15972238657795798
164.25310839999997,-0.09572644343899504,0.21843980436458274,-0.0900569672620337
164.75310839999997,-0.3162330751167772,0.27071886616960805,-0.10895531983124208
165.25310839999997,-0.4755516739531952,0.24724163714076453,-0.23422557467791194
165.75310839999997,-0.7024999331645886,0.3201921353878816,0.048272068728359846
166.25310839999997,-0.3260134718578961,0.11833695696768814,-0.36577744527952455
166.75310839999997,-0.2877898838633564,0.1841769417253256,-0.058641980770199886
167.25310839999997,0.14925719527693554,0.059921444203759645,0.0997589869110913
167.75310839999997,0.1383348596533033,0.1691386157129314,-0.2028035974251589
168.25310839999997,0.10984665446168655,0.14105254755906688,0.06121858900578185
168.75310839999997,0.1519905229291495,-0.08331860750658286,-0.11882261749965328
169.25310839999997,0.1618679528031902,-0.08840098997460952,0.2119168972094842
169.75310839999997,0.08556594526688524,-0.012753855947209711,-0.10762086200554681
170.25310839999997,0.3604821820863537,0.09425475878126427,0.05813325361212028
170.75310839999997,0.18530549207085972,0.11319255120161842,-0.13061828203178094
171.25310839999997,0.2151227913661697,-0.07832386750343401,-0.15110785891160108
171.75310839999997,0.051125636211807685,-0.2926855002926623,-0.31150168375661375
172.25310839999997,-0.3024589741464741,-0.4578132740746784,0.09123500530966046
172.75310839999997,0.3041235258622927,-0.12141480431535534,-1.5966478336278873
173.25310839999997,1.166577728017642,-1.1508284787215062,1.674870161988977
173.75310839999997,1.0206099352906461,-0.24942665445551843,-0.2518169665875925
174.25310839999997,0.33042376917922295,-0.3469296247063562,1.060896921619137
174.75310839999997,-0.10464189671174054,0.014481600710058324,-0.7549833747462877
175.25310839999997,-0.8279254204824937,0.2423343862735145,0.5030646602552573
175.75310839999997,-0.3616213731810731,0.1286927347312308,-0.3656447866601385
176.25310839999997,-0.5750310923607542,0.1191297174405019,-0.15504703784864554
176.75310839999997,-0.4847893015348715,0.01973966634877872,0.078405075625595
177.25310839999997,-0.32204723814722636,-0.1122674169746723,0.18906475566750763
177.75310839999997,0.37771585280964687,-0.24616953767832603,-0.13078460449408336
178.25310839999997,0.6205317412053014,-0.32799089070513365,0.3074213850947816
178.75310839999997,0.8041471200279793,-0.22295536077120406,-0.5715368564102616
179.25310839999997,0.5379857753735465,-0.4128705727610734,0.5410158681354629
179.75310839999997,0.18870269685026586,-0.3718730534295027,-0.3878180953573886
180.25310839999997,-0.44832605797315656,-0.30097519118426547,0.1936499386390032
180.75310839999997,-0.33113847430523063,-0.18456597563851576,0.11487057437924494
181.25310839999997,-0.2955966720270947,0.14372565839408016,0.004718868499559697
181.75310839999997,-0.17825040813844725,0.271505208526638,-0.322303729019191
182.25310839999997,-0.2380199793611894,0.13924558853060445,-0.07923331196979624
182.75310839999997,0.006034516267823023,0.3475257610984389,0.10859881835407421
183.25310839999997,0.017677289948739305,0.3196887416161959,-0.6119934755339053
183.75310839999997,-0.0853392306250111,0.16788798148398015,0.5252190120307977
184.25310839999997,0.14309718680743194,0.451167981535052,-0.27307925344726225
184.75310839999997,0.24185529734679662,0.600506843752999,-0.42687998651504894
185.25310839999997,0.03400689703837327,0.48006010165559987,0.1904022532738439
185.75310839999997,0.10252717253968077,0.46884979135086374,-0.23661542649419914
186.25310839999997,0.2939052024057218,0.9130208359072174,-0.11567453340391522
186.75310839999997,0.16201793238283205,1.126204399444238,-0.365955043082964
187.25310839999997,-0.013910679267457062,0.6421648507177565,-0.09749935246627345
187.75310839999997,-0.486871199647073,-0.2799237866577762,0.042099880722522215
188.25310839999997,-0.5439618532221177,-0.4863947659217952,-0.029356717400006085
188.75310839999997,-1.0863008945524883,-0.2461088408984495,0.4772006510198581
189.25310839999997,-1.320892767509328,-0.7139233729424305,-0.3889482573328018
189.75310839999997,-1.5375910854891917,-0.38897001248624635,0.2985574826608257
190.25310839999997,-1.3011495622620937,-0.1793561029564098,0.06232909746344006
190.75310839999997,-1.1086641066434568,-0.02094139982746257,-0.29002333299004923
191.25310839999997,-0.9083439707998048,0.3030875661293217,-0.0005735620355726124
191.75310839999997,-0.12309025671141645,0.2644998163745091,-0.2196854248557421
192.25310839999997,0.5650150352034775,0.20632724888952583,-0.045971926844321394
192.75310839999997,1.0879874079941005,0.018066752861479275,0.04175494446213465
193.25310839999997,1.5342808805928294,-0.36245910127763525,0.22726696139793304
193.75310839999997,1.8111799578231649,-0.3915054232800859,-0.19249518209378613
194.25310839999997,1.8640809032312375,-0.5675997066063948,0.09983641939577349
194.75310839999997,1.7392804532253072,-0.5189721424920848,-0.1558947044784876
195.25310839999997,1.450137735315849,-0.2839780193460035,-0.18479908702411205
195.75310839999997,1.036748173180642,-0.18144537457207485,0.15911482859337983
196.25310839999997,0.4111774092348906,-0.08893332283744299,-0.1129245041995236
196.75310839999997,-0.08720801468124267,0.06219794810963972,0.23426037151531914
197.25310839999997,-0.3468657337467311,0.6492493138250781,-0.033874741502330226
197.75310839999997,-0.02916976576466079,1.375250246560386,-0.7326220574981663
198.25310839999997,-0.6119801524375726,0.9341262503232153,-0.49118682369644795
198.75310839999997,-0.35059815856433635,1.148001332097372,-0.2950677214993132
199.25310839999997,-0.31535751312696425,1.008217519522736,-0.20659918214902542
199.75310839999997,-0.2632996602175718,0.8846063139192374,-0.23245260257440306
200.25310839999997,-0.03369145412927241,1.1975587066799747,-0.3336760184272913
200.75310839999997,-0.06018092616554626,0.9783539887374311,-0.00708690091616083
201.25310839999997,-0.1384809419942832,-0.20325428421558137,0.026175712097647283
201.75310839999997,-0.15748597648430548,-0.39164753967680743,0.11125360372535219
202.25310839999997,-0.1449110895670724,-0.43257211390429917,0.05918207086345371
202.75310839999997,-0.038929848089481724,-0.6530081172622663,0.26258766104697284
203.25310839999997,-0.021763313163558732,-0.4694955110530256,0.12921622545035652
203.7504167173913,-0.02641046049118034,-0.2758553396078197,0.1454284218106487
204.26256071063833,0.008806463169932657,-0.22969661953207987,0.10249005326971407
204.74810739199998,0.11564442224333116,-0.18757867368820821,-0.03561445053033392
205.248107,0.17964257007109535,0.046822044892539695,0.05628093679301012
205.748107,0.06362443656530768,0.06887833229867255,-0.011634072841414173
206.248107,0.25639003854840925,-0.024734984932575574,0.12564472395320617
206.748107,0.09862034592477847,0.08723991633212941,0.12726514936327468
207.248107,0.20033454947349477,-0.2256303255084116,-0.091539238853456
207.748107,0.08923053460563711,0.07933988466914199,-0.06864914051871926
208.248107,-0.20499819390294433,0.07640060236821135,-0.02834127140859927
208.748107,-0.1419068332146089,0.09604749381627817,-0.23376832110017012
209.248107,-0.21019753701392857,0.036108144391616796,0.14176907837044442
209.748107,0.02296160467876131,0.203776335080762,-0.13441003098001697
210.248107,0.07563534570096098,0.13567855538315104,0.02475027587617333
210.748107,0.11129481134967616,0.10516344996269883,-0.2702928760972239
211.248107,-0.0834888829600919,0.11929470982371006,0.14305666107291412
211.748107,-0.20686251437105396,0.17562681929299148,-0.0572678390964701
212.248107,-0.1344680180965423,0.10908674279997502,-0.026034992178481455
212.748107,-0.08482172660280005,0.036416086588189955,-0.2568073907738737
213.248107,-0.14020726829350613,0.07182525715875361,0.07962583273228697
213.748107,-0.20759775740333367,0.10489862753728635,-0.10777353295534517
214.248107,-0.3012531127366243,0.15741262368938047,-0.05788393851476121
214.748107,-0.2615099474135773,0.14047209325707768,0.0004906218626185322
215.248107,0.10023345946216232,0.17414878460161382,-0.3818720664793529
215.748107,0.5251185573530703,0.013087057492468324,0.3164703169961208
216.248107,0.8603677518202092,-0.04204353727864963,0.09697664107638446
216.748107,0.6593400939803865,-0.07066662453584197,-0.25049477094954303
217.248107,0.4004813873148811,-0.005698052011885393,-0.28256455090510035
217.748107,-0.3952424914055481,0.237247612474369,-0.18092982686293674
218.248107,-0.689087672329629,0.306748932563658,-0.029462952909317143
218.74819498,-0.47144695574890627,0.3116553757674593,0.029057721621525815
219.25274622,-0.029243213002849405,0.20607411511411317,0.04748382416181816
219.748107,0.17902233732151618,0.18499036758908766,-0.27840563006356533
220.248107,0.18159165358019705,0.3424333004103529,-0.15586020402875478
220.748107,-0.0152838414830621,0.3693936218143993,-0.32301546495719835
221.248107,0.1990453643644178,0.33777955917416014,-0.3058790619956105
221.748107,0.19471709231733456,0.3423024389116692,0.0993300756578013
222.248107,0.13492372396852154,0.492348181989233,-0.18763970833869992
222.748107,0.3016451271042907,0.7776269017093734,-0.631254312150093
223.248107,0.23883333751626903,1.1158710694447402,-0.30473626384128283
223.748107,0.35073897105833907,1.20856133280616,-0.6978468863007626
224.248107,0.21067902684733014,1.3924170844564838,0.06889983835785919
224.748107,0.3152949007880666,0.9572715096632461,-0.6782316045345506
225.248107,0.0639023581911288,0.6252154985192689,-0.42718797407502807
225.748107,-0.0449957197783999,-0.2895547574398968,0.3234808594110286
226.248107,-0.16932332589654525,-0.4841201329762967,0.13444054128663396
226.748107,-0.10676570576965945,-1.0092597908264882,0.34068629201144485
227.248107,-0.16100893929410404,-0.902004530403918,0.15381717561187183
227.748107,-0.22804713320767767,-0.7844067339187728,0.30151612222722124
228.248107,-0.012087886359381865,-0.5656102466185801,0.2254163878345988
228.73288417777778,0.14828122735786553,-0.3926613873790529,0.039816465939222716
229.25310700000003,0.255090312292984,-0.41712238439568133,0.20692419175117752
229.75310700000003,0.33324692771884523,-0.35454880456007737,0.010999353842147173
230.25310700000003,0.29393471402237403,-0.31177074653559944,0.13943086390036957
230.75310700000003,0.0871041126425993,-0.29775054054821426,0.07706161466982472
231.25310700000003,-0.3790887408114267,-0.07559506724915313,0.1407051855788195
231.75310700000003,-0.6939159111761636,-0.10159114634303497,-0.15593072201553315
232.25310700000003,-0.9184028439219909,0.013136990557520609,-0.06981369461482484
232.75310700000003,-0.5741109770344618,0.00376844796089575,-0.07878739425002505
233.25310700000003,-0.1592033315488268,0.026065002683283874,-0.05594441215515006
233.75310700000003,0.471733282588259,-0.09329689459819494,0.03688414205027785
234.25310700000003,0.5439101617904023,-0.12140142756847318,0.08041917237547722
234.75310700000003,0.7567887835989846,-0.1364445113396211,-0.23270355086330993
235.25310700000003,0.8560751124477268,-0.26185776218025447,-0.0662755312399556
235.75310700000003,0.56194487367043,0.2801038466439305,0.4434296319289479
236.25310700000003,0.18473669642350285,0.41636246614407907,-0.1065428948981726
236.75310700000003,0.22775488353525902,0.3889216510901597,-0.4364975089672803
237.25310700000003,0.20551408609783867,0.3959247018103582,-0.0856943375518553
237.75310700000003,0.11686629914269425,0.47348214658121207,-0.17976649756607038
238.25310700000003,0.26018968711933205,0.7880887046910732,-0.2782749922752289
238.75310700000003,0.19149522340906258,0.9159998257949001,-0.21591312343624985
239.25310700000003,0.23892046587967122,0.7181989739398168,-0.18235010039828264
239.75310700000003,0.164692144383914,0.9993695124194356,-0.3015324588686137
240.25310700000003,0.2626666610337082,1.0072080622257453,-0.48625164254240993
240.75310700000003,0.16385657509506119,0.6535432473209063,-0.1367033817027865
241.25310700000003,0.08716119290825507,0.5842582422791144,-0.25095257675554516
241.75310700000003,0.11045915789364581,0.2886195596770405,0.1264691391459647
242.25310700000003,0.09547034191532404,0.30396608032383127,-0.2811456624847752
242.75310700000003,0.09705743043462547,0.15578330375118635,0.0018051587247019363
243.25310700000003,-0.030753222662335634,0.08909226294283011,-0.09195925367020907
243.75310700000003,0.08868019157037059,0.08668259901672044,0.007411260260794865
244.25310700000003,-0.09671146874347059,-0.45894672297310357,0.09360596421446583
244.75310700000003,-0.21090958845187885,-1.054441556184215,0.33806761082297
245.25310700000003,-0.06346000736994807,-0.4481900996347868,0.15546420481999837
245.75310700000003,0.007576940940613965,-0.20908856882643523,0.11282313579582859
246.25310700000003,0.2868185107812635,0.06687848238155983,-0.32762008843424306
246.75310700000003,-0.4280909676015132,0.002893857164012645,0.2278882109012191
247.25310700000003,0.03117928956603089,-1.3372189753658157,0.0415895652448889
247.75310700000003,-0.1252058884951063,0.19340228827651573,0.6407733344877297
248.25310700000003,-0.3365673610104853,-0.02075871980090194,-0.9448666921100132
248.75310700000003,0.13587480031944363,0.01933235063408324,0.45229677600191953
249.25310700000003,-0.046642551373962726,-0.08513220012500755,-0.05516341714065237
249.75310700000003,0.1052917265071416,-0.05677461099557059,0.04083733731786934
250.25310700000003,-0.02981597557468159,-0.040783359079418,0.0711337417673904
250.75310700000003,-0.019813932760458654,-0.010904066731036161,0.00824094359489248
251.25310700000003,0.0141775946050361,-0.005905760522635195,-0.04851521944644618
251.75310700000003,0.006598990380936216,-0.0040248702570342,0.003315392195879736
252.25310700000003,0.008916121296375104,-0.2923205699308204,0.15947343648710213
252.75310700000003,0.03001785432302015,-0.4368130184145707,0.016336007983207335
253.25310700000003,-0.025679463931262508,-0.45862181105891786,0.08234314180346508
253.75310700000003,-0.021105681048120543,-0.32454017405039154,0.12906473061652154
254.25310700000003,0.038735981959683065,-0.0012408178810791165,-0.05695373386168123
254.75310700000003,-0.0033509785192585837,0.223828967416665,0.00583309703523089
255.25310700000003,-0.02188868987138837,0.1656002173515283,0.07223215706176739
255.75310700000003,-0.007177498954923613,0.16698289661109464,0.013754929726715994
256.253107,0.014632893479428968,0.12613685208081227,-0.06939305612729109
256.753107,-0.008857218638466285,0.14637393778685953,-0.000697353142052508
257.253107,-0.019204200859846324,0.14828401090482027,-0.25130959705885575
257.753107,-0.01960923565570959,0.15235318225428202,0.07464852886660499
258.253107,0.09033361608920602,0.23703892556544998,-0.021042379878053054
258.753107,-0.037788654932190496,0.21302816307297515,-0.003695493337808933
259.253107,0.03259933416720471,0.1803054556689065,-0.04036718194395011
259.753107,-0.011201267567798037,0.2433545033938259,0.07036261423454207
260.253107,-0.03655063467395342,0.8006391743512999,-0.3805044479964138
260.753107,0.06846731149805843,0.7772176288953402,-0.8398804911485209
261.253107,-0.28996686681492817,0.7059530325471118,0.3412636733048459
261.753107,-0.09130101773452422,0.763464727949564,-0.3153946745157613
262.253107,-0.1777207262567828,0.5320253042137429,-0.10440195860410359
262.753107,0.07963882518968268,0.8035777119026077,0.08870037860691374
263.253107,-0.17226819953514083,0.6715182888688892,-0.3239786233571711
263.753107,-0.08703444499555658,0.5242592311053424,0.08356437340318557
264.253107,0.13995026381433232,0.6579651877971822,-0.38228852664957214
264.75310772,-0.11124907088038358,0.5002769495277988,-0.0294532372767677
265.253108,-0.019178506630955224,0.5801307367483054,-0.19116751154516734
265.753108,0.030595406941364738,0.8355628251757724,0.012704959318312637
266.253108,-0.00335929192359541,0.761897195541992,-0.14308498078370815
266.753108,-0.07698778323682777,0.8740459620578521,-0.20645887167566812
267.253108,-0.029498942586699807,0.5121603897041216,-0.03380337678113483
267.753108,0.0013394418694829282,0.14857458924953365,-0.0788020113206569
268.253108,0.034560028178431214,0.43416503078929675,-0.09211596184542929
268.753108,0.049410869792619376,-0.9076076218809633,0.25226767482246876
269.253108,0.06617185953024013,-1.3743948956857213,0.18359077285307396
269.753108,0.044934514843654697,-1.0183307233136654,0.22848676285945543
270.253108,0.0684870653858609,-1.3361372307332247,0.16020286463751657
270.7440855744681,0.0261430454793332,-1.0194534738766239,0.2531036523081748
271.2591433347826,0.006241026584413182,-0.4827256168304097,0.13404328770452836
271.748108,-0.38514319461720076,-0.115192709242353,0.0009647146239589177
272.248108,-0.5832500166204668,-0.2629709189625132,-0.11586435036808056
272.748108,-0.8934308359678953,-0.07859502968892178,0.01265672731808517
273.248108,-1.2356471486371796,-0.05985989939849347,0.0731971120558358
273.748108,-1.4844443540557353,0.0680369110247292,-0.04072284190524424
274.248108,-1.412384340319334,0.2764075435934668,-0.3707236409880097
274.748108,-1.5266917842097112,0.28624517141994427,-0.15677641132469208
275.248108,-1.5573485358353247,0.3506349624404305,-0.42351752315891317
275.748108,-1.2405055974011139,0.32386732694564413,-0.2487155736186498
276.248108,-1.3253785863155867,0.3196957127503591,-0.03740503414341241
276.748108,-0.8113804287428619,0.35106646279200193,-0.4286799173374361
277.248108,-0.5249023414572475,0.4393231760896985,0.16852943305509527
277.748108,-0.25100286082183043,0.38065966560128706,-0.20957850161239575
278.248108,0.33267040082133936,0.2944951012432135,-0.226558753040626
278.748108,0.5440841483007087,0.12764946454562856,0.24799148127887002
279.248108,0.5168562567950805,0.10940265778477892,-0.28703186965768546
279.748108,0.5144684305753559,0.09441891057274969,0.017497530797252962
280.248108,0.3836003012904083,0.10201334241070566,0.07643026546574991
280.748108,0.29830433990555133,0.08662899260313167,-0.2922271299684614
281.248108,0.20899271402179312,0.1595433500900105,0.16339887540119075
281.748108,0.22082487532992068,0.16040783030803304,0.07477542170016643
282.248108,0.10765988440933887,0.15449256566857134,-0.17350700366611232
282.748108,0.10922602075236633,0.1412239076243483,-0.029049093898830744
283.248108,0.11775457808868633,0.11835003202459149,-0.07755024800591859
283.748108,0.03914373584367643,0.10222093857575698,-0.027910734473358775
284.248108,0.09749707787081059,0.09000225168314056,-0.06822318233473344
284.748108,0.05266506579979335,0.0730759737604141,-0.004840140497835871
285.248108,0.001828961451565639,0.118462210375779,-0.005527713803520257
285.748108,0.09967817340128776,0.06835411974816145,0.17464967392942882
286.248108,0.06441505996779147,0.045914174172366755,-0.11161751214368128
286.748108,-0.007978238975734393,-0.024814645706222955,0.10745838338413283
287.248108,0.14472288444756864,0.05673731257337643,-0.08849834929713406
287.748108,0.17487287345634428,-0.10260922297035448,-0.18002129218278032
288.248108,0.0020070329220080564,-0.03302558984727664,0.03555241329512459
288.748108,0.0006134647440450111,-0.025492631103022086,-0.1463251561232259
289.248108,0.12266635306812042,0.021827748794092047,-0.4596732895994353
289.748108,-0.11406679887467354,-0.194066177217151,0.5584017502983848
290.248108,0.03755730024846676,0.023625010219276845,-0.42134090457684636
290.748108,0.16088238984848638,-0.10465429552115216,0.443716434465518
291.248108,0.24488245155212837,-0.10933783426003524,-0.4366739693446168
291.748108,-0.10756961049195207,-0.029095554537531067,0.5308348681407175
292.248108,0.05061571843000954,0.06257423498957836,-0.14772363092708837
292.748108,-0.00012942216041206655,0.03769468516494798,-0.23999372843077807
293.248108,0.08621440916122161,0.023525378087939953,0.12309597438984765
293.748108,0.03728885152205925,0.04254555195416074,-0.13266599941067148
294.248108,-0.12988600068697653,-0.04829230624494933,-0.12302195991419401
294.748108,0.030001267252600838,0.02815095354950863,0.17127517521189406
295.248108,0.04412879856921885,0.057425657884291645,0.14166875601768741
295.748108,0.028251625302939946,-0.010997320601570437,-0.07690947629094308
296.248108,-0.10762302687909185,0.029166159842401135,-0.03644826322699499
296.748108,0.039929292551616875,0.07934115176738535,-0.11280694182693718
297.248108,0.032527563422139666,-0.013436752722567346,0.1147836987973012
297.748108,-0.08320058843547269,-0.012170726501024331,-0.14938032812327817
298.248108,0.0008228798051925823,0.06840601151962653,0.42098012443643396
298.748108,0.055841351073246316,0.05871328964836846,-0.23045098902146863
299.248108,-0.08740235292707223,0.052047583060295194,-0.0534580497766188
299.748108,-0.13072548229397538,0.0794426143224166,0.11175955901456075
300.248108,0.1426360710540055,0.040572418718061165,-0.0020011061866978073
300.748108,-0.017962555492274067,-0.04118811604574399,-0.027525906809345732
301.248108,0.09858417490851791,0.12737063211137728,0.22048800105282024
301.748108,0.19957044986273365,0.028692397350809706,-0.40012632852693986
302.248108,0.1019410633023367,-0.055341740546366716,0.22238771659606335
302.748108,0.2009233119962515,0.17120766935561857,-0.12887037662891287
303.248108,0.15266411671888258,0.15369284269473288,0.0846524037382401
303.748108,-0.032928860444133796,0.09647101451413681,-0.3359996212768552
304.248108,-0.013588802062816333,0.19191669197699743,0.42418295813621504
304.748108,0.20794734667913684,0.13992243881371658,-0.5369912500280413
305.248108,-0.1827960253448915,0.03607057833197062,0.14638807306248675
305.748108,0.13425426761800652,0.08861257162353901,-0.15474505078690554
306.248108,-0.016814107303576263,0.17429313093588317,0.19749738849625115
306.748108,-5.676740676519687e-05,-0.13709508144618143,-0.12545997288601282
307.248108,0.2777537683664428,0.15718850760301187,0.11762166048757518
307.748108,-0.15108338428326484,0.06174865849594056,-0.07957968381356562
308.248108,-0.156045754269339,0.00791204372433325,-0.14225562391746002
308.748108,0.029063736065382387,-0.052054788133547095,0.3622229884657471
309.248108,0.016298186114659684,0.033377302293548156,-0.20488193416011508
309.748108,0.17855091448479748,-0.047223016859462515,0.1976607059134748
310.248108,-0.12463214704445717,0.0770703076969244,-0.3639776908363278
310.748108,0.10069201748373427,0.13890555566480292,-0.09316546011318287
311.248108,0.06498987365460673,0.10497761901172675,0.05692179694035698
311.748108,-0.06672539379250204,0.12943161559687638,-0.08012465146308106
312.248108,0.09885217771127165,0.049830273478641544,-0.3310423225278519
312.748108,-0.02233384044459735,0.11269443097293688,0.1803555996646095
313.248108,0.11147213076530056,0.023486533630736627,0.10141833042979234
313.748108,-0.00629059429695203,0.07723977013802708,-0.21119578758980953
314.248108,0.052472385802571686,0.028722086941590005,0.17189789952052212
314.748108,0.040683611270219314,0.15692464136434098,0.06835633994147823
315.248108,0.02767060673973235,0.3936997206540849,-0.3032867924061144
315.748108,0.10332197384163827,0.649626850018972,-0.21166919266835652
316.248108,0.02997353028888402,0.6496581537889271,0.04568323654755114
316.748108,0.01726452813767712,0.4044803622962458,0.0947393973925038
317.248108,-0.12848726653565568,0.7142912552940679,0.12816315445411322
317.748108,0.2943264506786704,0.40270498278979333,-0.752856044506215
318.248108,-0.13424595992851227,-0.09728764289466806,0.09061675851605316
318.748108,0.22968109369855963,0.16590319472916285,-0.4096145397690286
319.248108,0.26274100906682973,-0.30224369169168247,0.28300623826415283
319.748108,-0.0014792698993902008,0.07155350234773213,-0.4350874760324224
320.248108,-0.3247938110846966,-0.1299155904191672,0.4744949972992106
320.748108,0.41319816000933135,-0.19466002877518337,0.0022777016529654938
321.248108,0.09829807732405978,0.32208082201843247,-0.18924917160975613
321.748108,0.03709713329059726,0.7417984945056368,-0.8602812049065242
322.248108,-0.2174754712364261,0.5538109070692063,-0.030757931175107372
322.748108,0.26904765812323417,0.25239804692152207,0.5690599940449923
323.248108,-0.10259991630328674,0.2646389856000187,-0.3451678490676918
323.748108,0.3641190497301439,0.24083207990678226,-0.5426153280977393
324.248108,-0.11025215793073474,0.7245736874467675,-0.19840127847177555
324.74810779,0.08566841510630802,-0.7126807827180686,0.2584055200192699
325.2481077,-0.0872485100194865,0.10813383773069693,0.12508861362152354
325.7481077,0.0767368690205639,0.05958894906942963,-0.07168144329893197
326.2481077,-0.014568514855896848,-1.0506965859622346,0.33797406590736884
326.7481077,-0.05936901774014599,-0.8184450223034339,0.255148811422244
327.2481077,0.020346241564407806,-0.38385972258528944,0.09031112127269358
327.7481077,0.001874876480116471,-0.15656771726557173,0.04435365833722296
328.2481077,-0.00024036503825930312,-0.07223235818778397,0.01611053919644097
328.7481077,0.004049987896318226,-0.03354448731795475,0.03479428787809391
329.2481077,0.0032172560008215645,-0.017574208798916607,-0.02072187115579876
329.7481077,0.0026404620282796986,-0.014083055753077516,0.008673387541351017
330.2481077,0.003986545142934171,0.010339909808141236,-0.018945377895417975
330.7481077,-0.010203005811121213,0.019560110243996617,-0.023244989930908972
331.2481077,0.0066954367591129625,-0.007589789311290938,0.02247891683059566
331.7481077,-0.005668133754081556,-0.015927554934174616,0.06625580522368496
332.2481077,-0.011716642357138112,-0.024013094376558786,-0.06308321073093431
332.7481077,0.04522949791041389,0.017482214661706696,0.10360844589863381
333.2481077,-0.008123069363562684,-0.0010615270364484793,-0.0701373547348508
333.7481077,-0.07445563601406455,-0.03587544421765693,0.009137120118601752
334.2481077,0.062247211630793886,0.015351411568725118,0.04514676998195816
334.7481077,0.00797287255977869,-0.04639704976497356,-0.06670396263113473
335.2481077,0.0120153852341722,-0.0012832543485443914,-0.04718893568619405
335.7481077,-0.15197234759202455,-0.0658942819480123,-0.27808325322213784
336.2481077,0.030111766426053642,-0.4511136057533016,0.19032765284658573
336.7481077,0.1734274129875625,0.21206653566569364,-0.4652196431492209
337.2481077,-0.41348421676239056,-0.2465997837641675,0.47100275403217523
337.7481077,0.020189587917922528,-0.011699051728569823,-0.3019609838493233
338.2481077,0.11095442619889534,0.05004032128693585,0.09163041149999832
338.7481077,-0.14961787020661282,-0.04447353877838418,0.07668446215972323
339.2481077,0.15494468807448594,0.05127959882251405,-0.07971448010777812
339.7481077,-0.0624137341893094,0.01554641217139513,0.015847968164722573
340.2481077,-0.0679942960179187,-0.06212979381619284,-0.04705942003147445
340.7481077,-0.05387402447572363,0.02796451250287022,-0.05573322913713927
341.2481077,0.10658593947097021,-0.006088893904708157,0.006398482996511131
341.7481077,-0.11545694350600172,0.06863570726057219,-0.2647714153458843
342.2481077,-0.09548554037638927,-0.2810720962507318,0.1583126991991466
342.7481077,0.4259363716658401,0.2580455192571631,-0.016648960627129443
343.2481077,0.07082273265176116,0.01956678237937706,-0.06262784272375169
343.7481077,0.005564479363456371,0.07547077206457034,-0.32186180325329516
344.2481077,0.06945387005472577,0.01000905885231125,0.08968411384086342
344.7481077,0.05669193357262249,0.024250749843901374,0.029748705304991477
345.2481077,0.036453249974538506,0.01142120599111351,-0.011953099006163885
345.7481077,0.01416547801288926,-0.008821157703904908,0.0035027132975058934
346.2481077,-0.0075197356969529065,0.010060910581294862,-0.056949223956954745
346.7481077,-0.009596377152441738,0.0005146735927124007,0.04053953815754471
347.2481077,0.01567361711225023,0.004031687232649444,-0.04348085001496667
347.7481077,0.007686740259759441,-0.012521211959961571,0.044689670536613484
348.2481077,-0.0026332840691810667,0.004928232314878243,-0.01938832319540715
348.7481077,0.0009827667292763211,0.0009528580393444026,0.008971260682284463
349.2481077,-0.00971843526624629,-0.00563444972446888,-0.002956799334278184
349.7481077,0.009382140055071183,-0.0008898996748156673,0.04874537382177374
350.2481077,0.0041015480320201626,-0.09204205838310689,0.0063646435606926
350.7481077,0.05401816753232246,-0.38675460636356074,0.12377639059343283
351.2481077,0.056803624738875146,-0.3854746490239087,0.20080441818486933
351.7481077,0.025869673713138773,-0.3701590734355555,0.18847093523314157
352.2481077,0.09520804533346779,-0.09106205638858737,0.019939576715905655
352.7481077,-0.009119205983077548,0.056989402142198206,-0.11510526426718619
353.2481077,-0.06114400085115527,0.39230463922875103,-0.12671627744747435
353.7481077,-0.10760831458577418,0.45995670019827384,-0.3248978473440431
354.2481077,0.07180316505727415,0.471515213690634,-0.2697969285927373
354.7481077,-0.05575654055351757,0.7734156105787412,-0.45604844579043496
355.2481077,-0.09672844376956846,0.3582422845177001,0.05597097928160486
355.7481077,0.10055059484296892,0.13798939589269427,-0.04221112410604724
356.2481077,-0.1825564807002187,-0.3099418172049726,-0.015995233362217125
356.7481077,0.009063980126799109,-0.16778203525587554,0.2833076895577216
357.2481077,-0.10624024700101567,0.8343415091659528,-0.8756398782997288
357.7481077,-0.12305901097094585,0.2482527312785946,0.09689457228230239
358.2481077,-0.002920575726818618,-0.11589299070158297,-0.0032456498428094617
358.7481077,-0.030343341559283806,-0.17481128830910367,0.06029095850001372
359.2481077,-0.1842361902251421,0.0922868474162426,0.12657654779584143
359.7481077,-0.03813313470212055,-0.27860626919860143,0.09557670727383367
360.2481077,0.015574813503124403,-0.01470995448702706,-0.23069597515841514
360.7481077,0.018011969069229864,-0.016183335908013453,-0.14718261385211495
361.2481077,-0.23154742094077982,0.2102741541292359,0.19029750815635682
361.7481077,0.09303686458541492,-0.4464660072884586,-0.36010946166864355
362.24388448541663,0.06769550339903638,0.25882594553552357,0.2424187192948671
362.7627873425532,0.07241521124615914,-0.2528841655176469,-0.23846030640278748
363.2531077,0.12064150320684078,0.23637451821037442,0.24872871826608936
363.7531077,0.2107848887210752,0.08164708483610923,-0.15468348103996388
364.2531077,0.041178776421950045,-0.5063210215264041,-0.2144109294404533
364.7531077,0.3482964852209404,0.2135671119461788,0.05703850812414066
365.2531077,-0.028907907218427873,0.29674291256667795,0.17112755245817202
365.7531077,0.02851648503762581,0.057411658177817355,0.07183996705566704
366.2531077,0.42634421130013633,0.06611777951408547,-0.19472390787551772
366.7531077,-0.26271629963781334,-0.05662568906389806,-0.10175000804458598
367.2531077,-0.15735336500888933,0.1561882643717177,0.03366196419996279
367.7531077,-0.0749833467516696,0.10849781915254753,-0.0764353764429591
368.2531077,-0.07784278622040566,0.009610757948700518,-0.06803071613808626
368.7531077,-0.02930096696192578,0.07479621610680873,-0.006610279922425063
369.2531077,-0.0643242914222224,0.021969501189276833,-0.10131028486808118
369.7531077,-0.051541119574225025,0.023221536755381956,0.06702447894658553
370.2531077,0.07663896857244742,-0.03635790735788393,-0.0638371630608527
370.7531077,-0.07016672229406043,0.013515129685680027,0.014548362930654384
371.2531077,-0.029326008389845403,0.07968126369813185,-0.06206090845666498
371.7531077,0.053639258731334925,-0.02398251417782387,-0.05692785057749993
372.2531077,0.0055284112589892775,-0.002300967621012211,-0.015418265112077906
372.7531077,-0.019205391892237696,-0.06682836940947094,-0.1623271152963315
373.2531077,-0.0024018035486986777,0.110556197348891,0.02307892524263525
373.7531077,0.14996796729284254,-0.028407239267037428,0.1541862663026256
374.2531077,0.0034891075864954767,-0.08700248083305392,-0.07149348575091423
374.7531077,-0.04453074078030328,0.06076619255907509,-0.16949597411913483
375.2531077,-0.19707810152245955,0.048216204320522885,0.16067027164331332
375.7531077,0.026417434296773457,0.00996911961765378,-0.09240362101593408
376.2531077,0.07264059957252378,0.005340860682764185,0.14193189536843728
376.7531077,-0.009278587115444414,0.06636107288807067,-0.26022871382399393
377.2531077,-0.010488246881861653,0.031552289621418164,0.026942829244963128
377.7531077,-0.09811052663680751,0.04251697249426274,0.13344712831730457
378.2531077,-0.017238709186238026,-0.00954900491470523,-0.14506087008324375
378.7531077,-0.061539166542436116,0.019913296997908354,0.05516884740474073
379.2531077,0.06048302239023986,-0.01827972045289173,-0.16037826802811453
379.7531077,-0.12853905097701093,0.039597306823481164,0.13520455322772285
380.2531077,0.08719532578946323,0.0407591773285847,0.06703322659465874
380.7531077,-0.014960584494235011,0.22811257248701047,0.017690919144437274
381.2531077,-0.019422057141316885,0.21798789692567094,-0.06886528645038872
381.7531077,-0.04703467226921056,0.19200413809850814,-0.09778735886380502
382.2531077,0.03696334930261631,0.1490668951941021,-0.030854266543226823
382.7531077,0.00022921063690016562,0.07538482747671658,-0.029926252675669153
383.2531077,-0.04602910447428897,0.3828375203161534,0.0027774778684150547
383.7531077,0.03795921369440358,0.1677195314503902,-0.1457013351746463
384.2531077,-0.34437771032672,0.14900689985897164,-0.13783868195547896
384.753107124,-0.09783852618653546,0.1561277941147957,-0.3094125823048247
385.2531069,-0.13442261287687482,0.1722318853345859,0.3478434556534472
385.7531069,0.1999202998357303,0.675662934461001,-0.6858056736165363
386.2531069,0.053124180317985825,0.9630540743346345,-0.576144111802697
386.7531069,0.03129850736226841,0.8548430967165372,-0.5246196182879944
387.2531069,0.011540278840120228,0.8310358892567034,-0.25139931963645606
387.7531069,0.02111813915528749,0.8995218291453745,-0.5030153055518061
388.2531069,-0.01950791747838611,0.954087296742853,-0.31385445442886617
388.7531069,-0.15363351724181457,0.8268166093427045,-0.4587240322753862
389.2531069,0.10763618963933454,0.7822633240986143,-0.47915526811092585
389.7531069,-0.03271589664802834,0.3334543323314611,-0.15820252723874323
390.2531069,0.026771014528164064,0.3221464581205907,-0.10498872847763643
390.7531069,-0.04296285621819461,0.5402658664890713,-0.2739451326112727
391.2531069,0.031460021192900374,0.3514643554262936,-0.3143878513563356
391.7531069,-0.05932959435832269,0.43062031373168547,-0.2653485873695579
392.2531069,0.0051896087323605004,0.1734118156260416,-0.09184031652659368
392.7531069,-0.026704544177980426,0.32149629102828475,-0.23421322274682194
393.2531069,-0.04907712338483673,0.12165700374242365,-0.03927764833316964
393.7531069,0.04243037928116647,-0.588505067244816,0.28905981326734037
394.2531069,0.03619018165649714,-1.0598779412888772,0.7299499390265797
394.7531069,0.025046083910999162,-0.7913374560708811,0.5847538616487191
395.2531069,0.024123370404462944,-0.4405947649237666,0.3534543587703461
395.7531069,-0.014431227427923812,-0.2639470291587908,0.1316203059319287
396.2531069,0.07701894441978144,-0.1657576437839191,0.24958545062870555
396.7531069,-0.016903666929191125,-0.09274584059109926,0.0749111299254401
397.2531069,0.03594428033863356,-0.07909001946306987,0.04069106782529376
397.7531069,-0.008028548089451191,-0.052501714575613,0.08761901529142647
398.2531069,0.01866564118555863,-0.08175601237826648,0.05880381461924475
398.7531069,-0.029608487993086352,-0.03326046447526401,0.09596579809460094
399.2531069,0.013134835425972172,-0.03341741362435264,-0.04029401982299034
399.7531069,-0.004622187712007975,-0.003613073674521621,0.15235589018477172
400.2531069,-0.006312385216550028,-0.023000019634122064,-0.07887007324412186
400.7531069,0.011114673063922394,-0.011018538843462546,0.05080321475814324
401.2531069,0.005105694846192591,0.0002568263404111562,-0.04794314832247286
401.7531069,0.0017078567563928685,-0.0009948252357299078,0.02287460560929324
402.2531069,-0.0021403863821094164,-0.006490943716600218,-0.019183767162993966
402.7531069,-0.00032001474624477195,0.00225271409442966,0.02889487971820775
403.2531069,-0.0030959639373572155,-0.050135960172235844,0.016748309890118787
403.7531069,0.0021856712260221733,-0.34815584688164614,0.14524998548545287
404.2531069,0.06091023466248727,-0.46039837389108684,0.32279760318423156
404.7531069,0.02320696802773911,-0.5074351626603677,0.27847454917538106
405.2531069,0.0005134253147305545,-0.2940823024075897,0.22228991232942
405.7531069,0.07272810213982923,0.09629483307733235,-0.1454896023041505
406.2531069,0.13328832831092144,0.15351345342422676,-0.19030895815750218
406.7531069,-0.09104433542772915,0.15215283564435986,-0.08806440193029433
407.2531069,-0.08993910375903612,0.10411511923502373,-0.28222413548200564
407.7531069,0.0038118433555320986,0.26330013033650557,-0.1548419847312675
408.2531069,-0.09966623294829961,-0.09465424241813082,0.20810581990646074
408.7531069,0.02374233210558059,0.20448758849665402,-0.3449413141909759
409.2531069,0.04536632264550853,0.20205066075642952,-0.3415570268028839
409.7531069,-0.128598343804401,0.2750688187990189,-0.05982965892826577
410.2531069,0.035073068284041865,0.19956264460147943,-0.2679075273637587
410.7531069,0.03403872039922006,0.14196377091036944,-0.0957035750601556
411.2531069,-0.07297521928606554,0.13557023308284497,-0.16439912112102864
411.7531069,-0.3592879477499,0.1333211611802763,0.012654084360438245
412.2531069,-0.29886573306445174,0.14305778792255297,-0.21877908420145417
412.7531069,-0.385739934063564,-0.01341448011949757,-0.07197453620979352
413.2531069,-0.7179721331158855,0.06769396202587225,0.053292046343667174
413.7531069,-0.8415669826312434,0.15044530771381628,-0.08298531085466586
414.2531069,-0.6898930749721126,0.2486969833344529,0.09863517182317307
414.7531069,-0.799004366672229,0.14544011994895115,-0.30635962988551657
415.2531069,-0.7840698381663681,0.164445924675881,-0.057466592862900685
415.7531069,-0.5108300756987916,0.11421905740027999,-0.30374667417498025
416.2531069,-0.3054986693254189,0.08632889854237571,-0.3591613320947794
416.7531069,0.3245541554296894,0.12727084579739315,-0.32329285714021094
417.2531069,0.4709469455270247,0.1787797254767273,0.2603092123948384
417.7531069,0.47385270997918205,0.09008912565007397,-0.223946672053458
418.2531069,0.22261477331201632,0.1415754852242105,-0.073757234475599
418.7531069,0.1460696460384897,0.04502617692613717,-0.1126562334008457
419.2531069,0.2435728204612969,0.19458672148421918,-0.05653605289653907
419.7531069,0.2495410290509027,0.5444524006716908,-0.46830755998986634
420.2531069,0.0035517707289571734,0.6219391609103659,-0.18511876947992115
420.7531069,0.42689576951877556,0.4021685776625724,-0.5710021320204216
421.2531069,-0.10830093334867515,0.39262959815998744,-0.28691916518654864
421.7531069,-0.16728986959444636,0.3623644441760798,-0.17148052238363243
422.2531069,0.2332310076977243,0.3865114925192528,-0.47339848773379756
422.7531069,0.12786411967873992,0.2929286551360401,-0.108692479394839
423.2531069,0.17522363352316128,0.23869730849533352,-0.0949426198106057
423.7531069,-0.18618058079776745,0.3574635447157396,-0.38481567849297876
424.2531069,0.15404430971752997,0.3296363569917143,-0.17977629427410893
424.7531069,-0.08904055719714223,0.40414099067957887,-0.03244322247981117
425.2531069,0.1516567096043125,-0.049785726995824724,-0.2744010154955834
425.7531069,-0.057561629195448966,-0.09378948394935066,0.24278503959686076
426.2531069,0.1258529702039203,-0.4749604034969142,0.39632430149297726
426.7531069,0.22790423694548242,-0.3537180366779979,-0.2743948639736059
427.2531069,0.09409805419660452,-0.287658355808621,0.3362803576431487
427.7531069,0.17574963761741763,-0.22417321523889297,0.18318085937626738
428.2531069,-0.09078882081595831,-0.35809411279277725,-0.04484142922895241
428.7531069,-0.11455793972227447,-0.19790883936267345,-0.01285194355813787
429.2531069,0.047221156599623074,-0.11575453537019856,-0.1482186284257093
429.7531069,-0.029778083425962408,0.13878177186604432,-0.0802599193107665
430.2531069,-0.1292324895495265,0.36036112218964705,0.1304192506054564
430.7531069,-0.15645515069235194,0.23893084835286693,-0.2836269608185932
431.2531069,-0.0664271816124465,0.18707747212398373,0.020051734124732743
431.7531069,0.0316090469233466,0.2965790401039354,-0.02746580254769349
432.2531069,0.019492847764817595,0.24809286988583107,-0.0567910906406788
432.7531069,0.0038746779465239334,0.4438013916343854,-0.11754809002579546
433.2531069,0.19962983061647946,0.41472875893161076,-0.06253472135021734
433.7531069,0.07296227143340925,0.41854946983785757,0.016301734076641837
434.2531069,-0.1347138025468597,0.746788395906417,-0.30750960715097586
434.7531069,0.040277838201913364,1.1246048598379381,-0.16353920788728082
435.2531069,0.10023559078032653,0.9393140668913368,-0.19503062623406994
435.7531069,0.0072064083545205606,0.2063656143434785,0.17228801905947633
436.2531069,0.06497188656428764,0.4628356065503475,-0.1732805525440716
436.7531069,-0.06755293288517794,0.7709763584591584,-0.2266580673139417
437.2531069,0.11385408567463848,0.5373998424250486,0.010530760669245116
437.7531069,-0.1428566211536383,0.7240560967709382,-0.024336688050110373
438.2531069,0.13624982690059353,0.9570766321163778,-0.1032944042783176
438.7531069,0.038782187402254635,0.8128192943413501,-0.1514146534540684
439.2531069,0.0005112456053604915,0.10207449897421174,-0.03508378541086945
439.7531069,-8.52544916105108e-05,-0.5626184156218956,0.04278557126231829
440.2531069,-0.02985607664952888,-0.7495909219274058,0.13209347089409865
440.7531069,-0.014746532097663433,-0.2661516979301556,0.025238934767202074
441.2531069,-0.01067244712006155,-0.1354441784456955,0.01789753864928159
441.7531069,0.0033694403802523604,-0.05114496541328792,0.00472864118217872
442.2531069,-0.0035836572025104204,-0.025534638018684656,0.0012023346191023202
442.7531069,0.004482528398122557,-0.011197289215933746,0.006164063171617837
443.2531069,-0.0030409906115262198,-0.0019955449253917855,-0.004125342407313474
443.7531069,-0.005287434643087792,-0.008431837379580627,-0.002014208692417227
444.2531069,0.0321960512626184,-0.004420951921362977,0.03266930383841606
444.7531069,-0.047532022069476224,0.013653219943501646,-0.032665717174419774
445.2531069,0.012239605190731162,-0.00714583342331366,-0.0007227817741347225
445.7531069,0.010005507779217574,0.0004445209735437191,0.002717444109984678
446.2531069,-0.0012477776927545,-0.00023676817700998338,0.00210940016800969
446.7531069,0.0022824604057269026,0.0014353769269177573,0.0020443861360143365
447.2531069,-5.614491032218477e-05,0.0034860835849519017,-0.00781266013537633
447.7531069,-0.0013975413657217022,-0.04942986633057295,0.007981299208968236
448.2531069,-0.00861267033214978,-0.6466384589272896,0.06566750873507733
448.7531069,-0.011013012093321319,-0.5335971001296912,0.08605739790373328
449.2531069,0.02409316224154038,-0.3432011657679911,-0.022264505359862664
449.7531069,-0.03598137840977053,-0.09056427452629758,0.08132134867989685
450.2531069,-0.01030654823440322,0.6346632566303524,-0.10519190673046123
450.7531069,0.012017202899762689,0.3855460804873592,0.10576012662010693
451.2531069,0.029195791736323456,0.34627416493914936,0.0369927188496873
451.7531069,0.05664078042065393,0.41881244156692743,-0.023431737816446082
452.2531069,0.013829488510718004,0.4504355670397891,-0.1655570116560952
452.7531069,0.04894471351128222,0.3166027338672275,0.14613683812865086
453.2531069,-0.08859986610673204,0.3303032515803224,-0.2251496184320799
453.7531069,-0.14686012059814407,0.30038869123368384,0.184356832768622
454.2531069,0.1553528821425351,0.41280239550809533,-0.19050859980250084
454.7531069,0.0007866529303417569,0.29133269249346944,0.05446881104350679
455.2531069,-0.05505165498147625,0.21962850960046937,0.13924666306647468
455.7531069,-0.009678079947487634,0.2320372568400573,-0.18432233388162278
456.2531069,-0.0557779648103644,0.23690158887193383,-0.17631830529420248
456.7531069,-0.07382971079806554,0.17540005544701168,0.08172282792592254
457.2531069,-0.03339039490968924,0.14999504071526223,0.03201267060054733
457.7531069,0.1446290793973508,0.15740857649630832,-0.5674382437741055
458.2531069,-0.11590146382356759,0.014965619219983137,0.6061305352777131
458.7531069,-0.011424205898530009,0.07962427790400153,0.1412083514065099
459.2531069,0.08606586021615824,0.24835320703351343,-0.3987583295936243
459.7531069,0.023478927524669145,0.2136138622853852,0.21169028717350025
460.2531069,0.005070422171119927,0.12844161906746007,-0.02407807449536624
460.7531069,0.12624613230334586,0.14869585305529678,-0.0005505722224673357
461.2531069,-0.06886977806586239,0.16000531546929753,-0.017744100129798553
461.7531069,0.05459896219870886,0.07251901967086263,-0.11724407975841597
462.2531069,0.037245167828947025,0.10372221524743176,-0.011356260960476412
462.7531069,-0.02381768628862633,0.03205524232356094,-0.06722201102245422
463.2531069,-0.17535912701835488,0.052662028225451386,0.0887494873232551
463.7531069,-0.11380269612668487,0.18029709064448107,-0.10177657263479296
464.2531069,0.042225556712784905,-0.05925724636874447,-0.010908667331780815
464.7531069,0.17899386459617375,0.11559693665259393,0.09338666147683793
465.2531069,0.09382062110369406,0.14705563423340326,0.06383110439718306
465.7531069,-0.005688031197508102,0.01615323771338818,-0.11239502834543125
466.2531069,-0.1084886057644752,0.19924717272077636,0.12597260706040267
466.7531069,-0.22046267842813194,0.14983726966296554,0.060522916568690216
467.2531069,-0.08533657495455405,0.07964846416745164,-0.12217163646542356
467.7531069,-0.1627658389776058,0.1721864508214448,-0.24692824149618936
468.2531069,0.4294341238346388,0.18164052445679096,-0.058951948491628395
468.7531069,0.6883789537494154,0.1303042873861836,0.014516546380115364
469.2531069,0.5403711551981059,0.07472050991576618,0.008961749862826886
469.7531069,0.3857119258998721,0.0966549857039326,-0.14963870830121143
470.2531069,0.38275660405102824,0.08188125569828808,0.026262375937648415
470.7531069,0.31943309372614165,-0.03917078734791299,0.06835280951644386
471.2531069,0.1473235902719576,0.08922261235119454,-0.2682330338531069
471.7531069,0.1445558743354836,0.027685149341548834,0.2918786094612945
472.2531069,0.0920903607790203,0.06867561479740927,-0.023267592587770274
472.7531069,0.12458475996146953,0.03160018512351745,-0.03926166287180722
473.2531069,-0.19062316758210587,0.1353852828620595,0.06362137893956439
473.7531069,-0.5331545322019674,0.12176309661587005,0.04900802137346831
474.2531069,-0.4535467682693791,0.45041484420689715,-0.23523758875878742
474.7531069,-0.2889384059786622,0.364625983016478,-0.08752351559003245
475.2531069,-0.22318822740097136,0.3597715368872025,-0.04708787344560189
475.7531069,-0.17122866430653602,0.2718728919129715,-0.059336939832734074
476.2531069,-0.17461445071976603,0.28315820163974054,-0.101283844115842
476.7531069,-0.12128934114943127,0.2105699255965279,-0.04538400160708894
477.2531069,-0.09651434388287068,0.18994579279792456,-0.10607197157395129
477.7531069,-0.20632026558304695,0.17221226152075036,-0.020549240563321927
478.2531069,-0.21793750155466085,0.10241270391829732,0.01534490151540893
478.7531069,-0.22067407493192598,0.15105320480987675,-0.07909316816993892
479.2531069,-0.24141799074417775,0.05340386570358465,0.04954652632231115
479.7531069,-0.090699403088542,0.13127260207492356,-0.06597045155249942
480.2531069,-0.06314983187161896,0.049102310911418784,-0.05036513212963861
480.7531069,-0.06399841840148814,0.09773968218991637,-0.053172929567283894
481.2531069,0.1476740298768707,0.20976204239474827,-0.39016134019143783
481.7531069,-0.034440598666454526,0.24365373297430065,0.5451080313266667
482.2531069,0.07681518471000374,0.3031443833632618,-0.11528276752303021
482.7531069,-0.14900218076584806,0.2910988786031987,-0.34953848149538014
483.2531069,0.14419381468668235,1.091895503371341,-0.1328367366377095
483.7531069,0.05549806680367373,0.8818198732152628,-0.5031337085684209
484.2531069,-0.09825835472995273,0.8359091037068579,0.36074949577476206
484.7531069,0.10069740612956987,0.5541073617849879,-0.35522751277885023
485.2531069,-0.07539997572305385,0.600021452463301,0.23463666804176728
485.7531069,0.09626968981829703,0.27472520508509435,-0.346916165123975
486.2531069,-0.043242424344882124,0.252267505040271,0.016370674807272476
486.7531069,0.0815155505598148,0.24186891902921673,-0.02982704848208554
487.2531069,0.004601794434058479,0.3954102564075195,-0.08581827994808977
487.7531069,0.04565287959925404,0.46922772128454765,0.023068923946271244
488.2531069,0.0541931399662906,0.5573009507318332,-0.1813999290658365
488.7531069,0.0047420996466154,0.5725478779808988,0.08779524846064651
489.2531069,0.015711879343923527,0.3412974514053322,-0.08327465914510844
489.7531069,0.050351725145096345,0.18609659616650995,-0.020294844286902636
490.2531069,-0.044560661380101264,-0.4880443237721628,0.0637386483779569
490.7531069,-0.0006348974318562964,-0.8045881372865833,0.07767556743722275
491.2531069,-0.02175411551193331,-0.37158149242574917,0.042941545535214586
491.7531069,-0.0024550579594376553,-0.137083496798696,0.0193914887677445
492.2531069,-0.008103962977308622,-0.0660898255863784,0.0057033063907343685
492.7531069,0.009757965820712563,-0.021798735922919078,0.005540566504063201
493.2531069,0.0010144192286552513,-0.007425126353592485,-0.006090356098753679
493.7531069,0.0066023216960672615,-0.011462085781915597,0.01652336241165113
494.2531069,-0.00707647937639559,-0.002042158125828344,-0.010913308091558473
494.7531069,0.0021012901363499144,0.005923767612760886,-0.008617276612280893
495.2531069,-0.004734503902297951,-0.011671845244360969,0.008257018104894008
495.7531069,0.013898412965077584,0.00814819918500539,-0.029221450991212875
496.2531069,-0.0027522240918343675,0.013034040007424348,0.1034180570626628
496.7531069,-0.0006039593264637296,-0.023921232998715233,-0.053188074645524136
497.24500275869565,-0.014406895704565888,0.006336098360401603,-0.02957472078334735
497.7609640791666,-0.003346117631023848,0.00337830885235889,-8.858120319421411e-05
498.2531069,0.007833061495783292,-0.007650419275853479,0.026284045512860548
498.7531069,-0.015984476036801337,0.014229351959565041,-0.12073853130669018
499.2531069,0.00950118420201057,-0.006308235752380386,-0.010034392269268713
499.7531069,0.012308924671441677,-0.019355749992832877,0.16813672412059025
500.2531069,0.005741903026048154,-0.015566020497238924,0.014997239634844402
500.7531069,-0.007915070362767966,5.69704921044914e-05,0.01646689578131332
501.2531069,0.0005242977247189823,0.006191743361808399,0.008878670151070557
501.7531069,0.0020270038486813534,-0.004739372112214355,-0.001012618569950118
502.2531069,-0.004808334961993347,-0.0017291422408801881,0.019763297010354123
502.7531069,0.009504642869642053,0.0047281414233853215,-0.05403745505569046
503.2531069,-3.855912618231483e-05,-0.25126520727293095,0.023892941484422295
503.7531069,-0.007101965654021853,-0.04661507811708316,-0.004279536842651049
504.2531069,0.011118913307288045,-0.03816333043668277,-0.026946824110443843
504.75310675599997,-0.011608589312498037,0.020711136605192207,-0.00299716168076621
505.2531067,0.013697961882296623,-0.0006666077071182741,-0.011464596118039414
505.7531067,0.005248389108969217,-0.0017112180077693846,0.005351226578845297
506.2531067,-0.009152313706743609,0.03448151782939726,0.012395431862947885
506.7531067,0.029103480335265674,0.026468930190358293,-0.02121671454834505
507.2531067,-0.055987941902065505,0.1529255970556453,0.0021076387217643777
507.7531067,0.012994480747924314,0.07223150377088766,-0.04532853105590979
508.2531067,0.01691702656397044,-0.0004711347899756324,0.01960006285911663
508.7531067,-0.07289357025389377,-0.014010002816332223,0.07387244956377702
509.2531067,0.07181492991515509,0.012567656401537886,-0.12933957344740057
509.7531067,0.005124838262621822,0.10036390028747022,0.015408972683518712
510.2531067,-0.0023395657429261126,0.034582833258774946,0.020391956861003056
510.7531067,-0.010029531426687393,0.023959049294350367,-0.04498872026134541
511.2531067,0.009063059226434016,-0.018403431789245528,0.021054343967698518
511.7531067,0.005571122012363003,-0.03322804614699776,0.01761291856351667
512.2531067,0.004669511629341052,-0.2920901618319848,0.024103096316025564
512.7531067,0.000991522829481056,-0.08603102020806533,-0.0023071517549781086
513.2531067,-0.0021774240274617675,0.060194195842642344,-0.0009140753870132106
513.7531067,-0.012347879350503849,0.03200713732959771,-0.01023945414606136
514.2531067,0.005542158826920208,0.06907911673165042,-0.0005230810831404241
514.7531067,0.00900624761785374,0.0720251534303795,-0.010750194821450443
515.2531067,-0.16976868780940418,0.041397256940114195,-0.008309897003535677
515.7531067,0.21917228278319992,0.22310545111591082,-0.003831611622956488
516.2531067,-0.10078400153624824,-0.02074233703070663,0.1635696342103644
516.7531067,0.07679002819199815,-0.049446171647965595,0.07749125130875494
517.2531067,0.0016153461664732904,-1.4424834487262654,-0.02225992891746227
517.7531067,-0.6941463064414239,-1.8232802168890823,-0.05397997416678292
518.2531067,0.4017966398419133,-0.35324965886593773,0.09314297443071468
518.7531067,-0.3527915108806087,-0.9360068539385881,0.02979527028782339
519.2531067,0.07697007263353807,-0.6316118934412401,0.22224941484669322
519.7531067,0.05546842786887843,-0.409371755158977,0.11242452044272767
520.2531067,0.011045933231596996,-0.2572789168138058,-0.18952404244454266
520.7531067,0.16239674577677307,-0.1305483557586455,-0.16861300049526853
521.2531067,0.07111141842594866,-0.32976442625760277,0.003880022459677077
521.7531067,-0.23815799539091734,-0.25087421634183715,0.27765975473832893
522.2531067,0.12906985654577507,0.022779469615429183,0.20428426376694805
522.7531067,-0.2109005441308552,-0.042460454377838325,-0.15670356823897694
523.2531067,0.07678334919645802,0.06731657353227942,-0.12376617114291136
523.7531067,-0.044952008902059165,0.034708585681814605,0.051395055749810264
524.2531067,0.061711595171442354,-0.11945575096919722,0.06263218859879961
524.7531067,-0.054823909126965956,0.04449009355311051,-0.2118574913968978
525.2531067,-0.019656049260030263,0.036808453089922685,0.10511295445729246
525.7531067,0.006857178237706362,-0.04254107373422561,-0.5698619658253721
526.2531067,0.04990934660010657,-0.20374155559089327,0.5368359139500254
526.7531067,0.02178528505612787,0.07080980642884983,0.11819594399950833
527.2531067,0.054424393346760025,0.1970028222114537,-0.4167681955903501
527.7531067,0.06966479943612654,0.010145796480748728,-0.4519877097750778
528.2531067,-0.25047189280557813,-0.20012120634078678,0.7183035358855525
528.7531067,0.08898632758690964,-0.10295621335830711,0.07656519531813796
529.2531067,0.00016371803330953672,-0.2058199567416162,-0.8613705028362578
529.7531067,-0.17645494428907837,-0.4366076699905904,0.6778470823039696
530.2531067,-0.0844695630255507,-0.0018156183789942348,-0.8182768123328553
530.7531067,0.15159917171325718,0.1796920864389781,0.7441134698842373
531.2531067,0.12963378632731584,-0.1079743087284611,-0.4904473575739629
531.7531067,-0.13175673275276675,0.05678350446537176,0.012165895037889438
532.2531067,-0.13257295084453238,-0.014676455348915284,0.30098367544819105
532.7531067,0.012105599755369565,0.2094504012293938,-0.40028347094552913
533.2531067,0.049698116942545806,0.12441857768902988,0.012569805849023261
533.7531067,0.0368078758361866,0.06477895926503346,-0.3054976216605161
534.2531067,-0.009885739993661564,-0.029830812369304894,0.2340195597508882
534.7531067,0.0025491235334160777,0.06862808419761658,-0.09529505348098744
535.2531067,-0.05575184981061573,0.05185087920430794,0.03238536115493933
535.7531067,0.008483535673045422,0.04857768460308901,0.14291301749375931
536.2531067,0.07762648285645878,0.06468845268560057,-0.2986195452942151
536.7531067,0.002972100458332616,0.14532311564300918,0.3008913747477109
537.2531067,0.007375997491606687,0.28541764187667046,-0.24367021860666552
537.7531067,0.03705849100115324,0.2997272165611227,0.1652289727016604
538.2531067,0.028804496968402708,0.29338852105609353,-0.26234118443088517
538.7531067,-0.100394794890321,0.3854575404958064,0.05126770705762056
539.2531067,-0.042820222103047215,0.3758512836192684,-0.12616685438768394
539.7531067,0.03257806728320101,0.3115389123668011,0.017273783991946248
540.2531067,-0.046841516596048606,0.3757991102721227,-0.20196509489624478
540.7531067,0.038269534258352424,0.5084969592862337,-0.022570496784022818
541.2531067,0.007381886259488522,0.7083501737265588,-0.3654050342367812
541.7531067,-0.02882196004767331,0.628816332375842,0.02437318077586553
542.2531067,-0.1412647415440847,0.8242881561549301,-0.08406252293258736
542.7531067,-0.3062562744315502,1.0728401430711738,0.22573298618751036
543.2531067,0.08242293135911022,1.0714386014946649,-0.6358117500007736
543.7531067,0.04483265674362803,0.7116314578427456,0.0006168063268405733
544.2531067,0.012761180660445261,0.6220858124793476,0.05001582819551561
544.7531067,-0.022389711989744522,0.5056158176392662,-0.1470983819891525
545.2531067,0.05443437261911723,-0.007050922164830173,0.04652704803004424
545.7531067,-0.0951350778639947,0.19414988291363172,-0.0665977648008984
546.2531067,0.1036260011032088,0.5389998422933677,-0.21380469324750837
546.7531067,-0.11924415514485069,0.8315854339164226,-0.10854964487215005
547.2531067,-0.05468454187090728,0.5116350187762785,-0.06068228901812768
547.7531067,-0.03440919193663549,0.4609033021901932,-0.037984917157105696
548.2531067,-0.03592431585414507,0.225668122651751,-0.04216988592889951
548.7531067,0.04083770075851408,0.2590954718966496,-0.0934727617831371
549.2531067,-0.03848353156241279,-0.04115382493444063,0.03141894340438476
549.7531067,0.006360816441244709,-0.44006905802081614,0.08493011123706867
550.2531067,0.0698957183515332,-0.7061920713309654,0.13886792668129846
550.7531067,0.0026651862082541144,-0.41500748810123533,-0.029745183137881315
551.2531067,0.02300548563050975,-0.23723112562080112,0.02696662825729116
551.7531067,0.016697214392028596,-0.09114900846267579,0.005473109346809715
552.2531067,-0.010861668459925986,-0.04104707182253809,0.015578215963243904
552.7531067,0.004373155673117733,-0.01864845665994531,-0.01704546387297025
553.2531067,0.003260983160193108,-0.008758431278250874,0.022668840529377548
553.7531067,-0.0015832644803867315,0.009817809180703761,-0.012063110586628399
554.2531067,0.03788720674916184,-0.015990817536450815,0.03163187943092096
554.7531067,-0.04632230786472099,0.003397097567342459,-0.059410665518751724
555.2531067,0.0035292557703330363,-0.005276561243202627,0.0357767796838453
555.7531067,0.004075123703106432,0.003573684040171372,-0.012975569942108876
556.2531067,0.00549633664683699,-0.003338627406732666,0.0011875264915722466
556.7531067,-0.007873009781545707,-4.1713570149412015e-05,-0.008847502821854415
557.2531067,0.006399814003369595,0.0001522723570408943,0.012033807472436969
557.7531067,-0.0013887529352667966,0.0026604243867219663,-0.0039791685412146035
558.2531067,0.00021685726968792216,-0.0009564423068362738,-0.0011924140133499081
558.7531067,-0.00212579533751748,0.0007018612550882358,-0.004188326295415412
559.2531067,-0.015277648635106928,-0.009481738992408622,0.019073743315263042
559.7531067,0.024208908388592517,0.0009700461171113954,-0.013726922610546421
560.2531067,-0.0008524505085874769,0.006977665126397613,-0.005586281905008308
560.7531067,-0.0006569929788910786,-0.0025599282850089396,0.007468536108986421
561.2531067,-0.0037188855816736423,0.00042869761419675077,0.006158552009161325
561.7531067,-0.003266496460728687,-0.0009765956958504229,-0.014222043329855234
562.2531067,0.004284919839034347,0.0007196375336261951,0.005103721366181568
562.7531067,-0.002941390889153216,0.0006643938299941193,-0.007198493514881266
563.2531067,0.008389357343064065,-0.00594954232524895,0.04916147158511282
563.7531067,-0.002890103744347914,0.0030188774924677962,-0.044626106659247225
564.2531067,0.007650852858157674,-0.00033434728391093743,0.007220533866789742
564.753106844,-0.015203193099429468,0.007251157084411918,-0.006339827085663892
565.2531069,0.00019334958060429784,-0.007687408093956496,0.007512427182467624
565.7531069,0.008299072122177573,-0.004545041518978694,-0.010618020825001464
566.2531069,-0.00447703137503688,-0.0017566234618433775,-0.0015701387876642236
566.7531069,0.0012305621702231495,0.0026463601100614777,0.0012324853052233093
567.2531069,-0.002674777282790269,-0.00012529649455073885,0.01360120056068634
567.7531069,-0.0014254096186958915,0.004942225492564468,-0.001163380972209198
568.2531069,0.02024778944447148,0.005129909515261813,-0.04043012242763187
568.7531069,-0.013267077694779129,-0.37584942509016017,0.10785892116147087
569.2531069,0.03391380500813123,-0.5691860612306827,-0.020981775077015697
569.7531069,0.008034489884430656,-0.42704704322635406,0.1376671776961568
570.2531069,0.04298257048908825,-0.2522497804519675,-0.09083516396586575
570.7531069,-0.019953914855869424,0.1905482066642878,1.2630912672180194e-05
571.2531069,-0.026079319842087768,0.37320376887415285,-0.033928916388826454
571.7531069,-0.015324825742419168,0.3592475049679674,-0.0726292294614816
572.2531069,-0.028790283650181082,0.3338753123051981,0.0038579550820542928
572.7531069,0.029102559942703003,0.3101539418916532,0.045504952159424746
573.2531069,0.009601051638666752,0.23437387025823292,-0.20454834335628927
573.7531069,0.040774214881054614,0.26730879958984644,-0.012354065389884879
574.2531069,0.034919930398592126,0.47360812797838947,-0.34684650391967686
574.7531069,-0.038230081094773584,0.21255690988343193,0.2333197367513938
575.2531069,-0.031241168684199433,0.30663877413424245,-0.14437434616044778
575.7531069,0.020820605801369452,0.25070888378374456,0.23483057849972358
576.2531069,-0.04280316229475555,0.2521964227169348,-0.16044550485771336
576.7531069,0.00855536978468669,0.19028872494804738,0.015272243131606718
577.2531069,-0.10596233128617516,0.1969040998902587,0.02935669977200945
577.7531069,0.010089787274979395,0.2911058388032016,-0.2023512268348127
578.2531069,-0.1322781221286933,0.02954556901836533,0.1775338240278574
578.7531069,-0.021677499928932187,0.22733039355897589,0.011099913172683495
579.2531069,-0.04510943234650076,0.21498959699535766,0.04153857317071676
579.7531069,0.052653371751787505,0.19321352263704517,-0.4059341828202503
580.2531069,-0.02059854564812727,0.18780146163794145,0.20255097315560835
580.7531069,0.11347116196790961,0.1612477225690244,-0.02969205625540006
581.2531069,0.04746829385507162,0.18350717430103733,0.14486581811637106
581.7531069,0.09430771493910971,0.1809043523307842,-0.12692228591645036
582.2531069,-0.0534234840203892,0.028946139956876074,0.04960672628662019
582.7531069,-0.018881235047248517,0.09238204079067543,0.04686772519647145
583.2531069,-0.09093022370651269,-0.026981595404307064,0.027612670410845353
583.7531069,-0.019955009641639158,0.09614796842478933,0.025403492290212944
584.2531069,-0.04737418906952905,0.12142006550203766,0.14714155083623312
584.7531069,0.05634766624161254,0.12981918675862994,-0.023412896032007007
585.2531069,-0.057121255258308745,0.06665237972029621,0.09405254904825494
585.7531069,-0.014663844394213359,0.12776496610945606,0.032543304607542956
586.2531069,-0.10139324660611793,-0.04355742337743255,0.10690865805900146
586.7531069,0.0183979936870912,0.04115727624161703,0.1479066632638162
587.2531069,0.020000681759436242,0.010015522567364297,0.019155601742915255
587.7531069,0.0702414099954376,0.05758526463587826,-0.046926389327263965
588.2531069,0.12028913825648341,0.05973838558792941,-0.26180765471105283
588.7531069,-0.038271392501886284,0.05389554925321687,0.2698748687684266
589.2531069,-0.051753984619410734,0.0329578870209233,0.046850529172753695
589.7531069,0.00432238954040632,0.4897341810329273,-0.304888987591884
590.2531069,0.05718043247525591,0.4530856286182497,0.22044222382618306
590.7531069,-0.001528146220292973,0.46208803171932056,-0.0108958970999003
591.2531069,-0.10289999374166169,0.46978046005657476,-0.34288379116646067
591.7531069,0.04143521399015311,0.6939987913044449,0.2207797174999839
592.2531069,0.05259417072733239,0.8658253840161259,-0.19725192047555457
592.7531069,0.13841628895115454,0.6599854163761119,-0.34085589397970556
593.2531069,0.154961697896149,0.19547376436657163,0.27510874059430857
593.7531069,0.7693908366654348,0.1665322644751699,-0.10568700769110449
594.2531069,1.0676456169410107,-0.36160803044312945,-0.07753381471768479
594.7531069,1.600115486420421,-0.6195046194929561,0.08832127917926527
595.2531069,1.4459054863208831,-0.6234518371014448,-0.21088053182450273
595.7531069,1.4928968180394417,-0.4692163868985015,0.1781386792005719
596.2531069,1.1818519534104035,-0.13414760890769628,0.09845511437080011
596.7531069,1.1528733933477329,-0.061364215978076994,0.33775612257161197
597.2531069,1.0535608512155097,0.19450195164081774,-0.01691684527370334
597.7531069,1.161497205169516,0.17108536954225095,0.03473668648199085
598.2531069,0.7688109020828305,0.14271766399936164,-0.11343077377384994
598.7531069,0.580618750996117,0.23184206040482086,-0.9544216171975387
599.2531069,0.014634302971104733,0.8998229462238737,-0.026234867758033974
599.7531069,-0.517511477736051,-0.6365740579143373,0.390410433268222
600.2531069,-0.31286924993251924,0.8605507693941697,-0.39593407774989253
600.7531069,-1.412057539711252,-0.19806521472847696,0.37082200092933687
601.2531069,-0.9296653306163778,1.0219798933998023,0.3397271435968371
601.7281069000001,-1.0478941740093344,0.5518185025074911,0.09728450834318093
