Time (s),Accelerometer_X,Accelerometer_Y,Accelerometer_Z
10.25019954755102,0.531149643781402,0.39031566988917865,9.867014502423014
10.746508080000002,0.39035667833986504,0.6529902259327828,9.856738263972092
11.2478312686,0.3172101469724232,1.13726563556307,9.927272756529751
11.749155069999999,-0.17927289010315234,1.1425066591378803,9.994995014364957
12.250479267600001,-0.2639400312566819,1.363347453104479,9.798164872586934
12.7518049202,0.17288282929607393,1.6807528555364102,10.021105150834593
13.253132063999999,0.1994229367985596,1.4256505875017205,9.69160252710087
13.74944648122449,-0.1562275489922236,-0.3692000681101957,10.059365644873994
14.2457616608,-0.013313522545862483,-0.3159151134712363,9.724283645486052
14.74709088,0.5329025946600948,0.5908063802822684,9.704934488663463
15.24842094,0.42767476670043175,0.3636386295649449,9.973958058029867
15.749751920000001,0.35331060033032224,0.3598839091187299,9.969517060526075
16.25108358,0.48274181889734924,0.48755237849468186,9.668076268182235
16.75241572,0.09074076859768106,0.7293052278928147,9.77245195087336
17.2537484736,0.004451813587708888,-0.6425807335244411,9.98765324235183
17.75006839591837,-0.5760657929319138,-0.8688765326938517,9.851894700287597
18.2463907502,-0.8135866982234404,-0.4384762794980371,9.693675874238028
18.74772595,-0.47360553619082396,-0.383329503777054,9.670211214978071
19.249058987999998,0.06755238485932782,-0.6492245861461032,10.053507196857403
19.75039404,0.11541392104435134,-0.7318001524891906,9.748925979291439
20.251730072,0.21945359684157903,-0.7091834414188607,9.804946380877183
20.7530664602,-0.04876506846923982,-0.660542003783732,9.669823323263609
21.24938989040816,-0.22539732467415688,-0.6717980587115931,9.885296792169271
21.745713950200003,0.009496568267132665,-0.7814466968301192,9.876093220024739
22.247052280200002,-0.13522724109995818,-0.9240899557453663,9.761989279458419
22.74839051,0.049076703337623755,-1.1273225937274827,9.783879154225449
23.249728779199998,-0.27024990298870766,-1.3338127068741452,9.560155139983337
23.7510671,-0.1285744669285852,-1.9315936538040779,9.884264321329942
24.2524053588,-0.20158723016681576,-1.9223487222829354,9.794232125134604
24.753744190000003,-0.2686673374680552,-1.7817812977514422,9.601344998559325
25.250070362653062,-0.2528437977261256,-1.748144466109778,9.803492227407043
25.746397189999996,-0.05710202794574119,-1.6803498593426134,9.773101853552754
26.2477384462,-0.06960894913031329,-1.4779232420225588,9.649920094641196
26.749080439999997,-0.27059585141795833,-1.3078862523318955,9.714641207017543
27.2504233242,-0.8809714587274625,-0.6555468141008837,9.877842151537646
27.751766550000003,-2.461875995063975,0.14141087822558357,9.819136799880622
28.253109479,-3.838832747540731,-0.4097284872477352,9.682822555440438
28.749439890408166,-4.012732189048725,-0.7281185805438323,9.872963629959731
29.245771582000003,-3.3668013724900567,-0.41597593449217685,9.645888977559487
29.74711697,-1.5809409704148165,-0.4408308974509967,9.918688381984632
30.248462098,-0.23433909984966636,0.28842513543279785,9.803176073816273
30.74980849,-0.42429597722994816,0.38109329645047474,9.866550928855716
31.251155561199997,-0.019604135589049894,0.3842423097567692,9.901433967042065
31.75250313,-0.015005326165951198,0.31267457637727947,9.729973494325229
32.253851645,0.6676302929679232,0.19623533758063214,9.768457084669002
32.75018686734694,0.8933920334106233,0.1044933893988013,10.048146145318183
33.24652218,0.6159075430582882,0.1105342769960079,9.78333172578074
33.74787175,0.7969032413648853,-0.13607135273200116,9.79463121433463
34.2492219692,0.5030867081846877,-0.3117052427648593,9.71837645234778
34.7505729104,0.4368872060351114,-0.39238442982731736,9.89239451778898
35.2519253012,0.28144524202990545,-0.5398523790429495,9.967436492180752
35.75327791,0.2692551685561872,-0.698925615991256,9.666813846959332
36.24961667489796,0.08387640049643316,-1.1281793149158974,9.715430714246564
36.7459563504,0.2105764327070754,-1.4943415000452023,9.741118887418425
37.2473106524,0.1855882028899405,-1.5158041403946652,9.745701970200479
37.74866502,-0.022575866412074052,-1.0040203822975302,10.530529576284804
38.2500194336,-0.017639865834526203,-0.3271822550974693,8.6633793222473
38.7513744,0.0941942603020848,-0.3407248442497198,10.2369201108022
39.25272976,-0.04462605378959509,0.0818721015026589,9.689154273765494
39.75408579,-0.08288791882667385,-0.07178090731078501,10.0464532959232
40.25042871857143,0.02292643850835784,-0.19002360412644814,9.913876837356062
40.74677242,-0.034233361094570716,-0.39151309542002766,9.61784362479036
41.2481306624,-0.16116571546615352,-0.4278720720788824,9.809495649922827
41.74948944,-0.11250604407825492,-0.6705586778009477,9.990990228548345
42.250848644,-0.2082209795586495,-0.6969609344803057,9.721672560814529
42.7522084902,-0.20271823382290044,-0.81130454809853,9.818969278617574
43.253568526,-0.014495932679677406,-0.7471521323143893,9.777402562746026
43.74991587408164,-0.44809825962334554,-0.7460727410303467,9.646760437668348
44.246264281,-0.2837157971792228,-0.8383949888538402,9.967895748666297
44.747626739999994,-0.3298139756692739,-0.9191619706352079,9.559568207804897
45.248990054,-0.6294693517930348,-1.0748509092180576,9.837885932803722
45.75035364,-0.31737231035826996,-1.311440111916748,9.876054951861558
46.251717356,-0.3843020975778915,-1.461946966996193,9.735730833707377
46.75308112,-0.11871062454339298,-1.867407694023615,9.732764647575742
47.249431185510204,-0.400195039703317,-1.6735556100432445,9.766828600112477
47.7457816202,-2.9300891236727926,-0.8928198427171433,9.789015176139618
48.247146064,-3.966610721153626,-0.11067949012911432,9.649072977094503
48.74851098,-4.140781797035369,-0.08047121507819574,9.814650799256427
49.249876451,-4.202589986997169,0.1397959214445575,9.805037665184908
49.75124219,-3.0536136178531996,0.3645343434411092,9.728498487436429
50.252608656,-1.2384790856212562,0.012758460940301143,10.139353168115006
50.753975090000004,-0.4327977552474666,-0.45066356147377656,9.636611992613481
51.25032756122449,-0.10978526503658297,-0.4963943023451793,9.77268430743735
51.74668074,-0.16867248185002132,-0.48316774120843425,9.776290727047648
52.248047765,-0.14799930162278946,-0.46966205388195126,9.984578373307652
52.749415070000005,-0.2835255045894233,-0.46169360760005435,9.687922180728108
53.250783104,-0.07240666297692817,-0.6557045557461203,9.94404115547872
53.7521508902,-0.1452956041695584,-0.7085132907661014,9.723912489864937
54.253518389999996,-0.12007103795467483,-0.7362116938388428,9.725458465565975
54.74987233326531,0.4781801263943336,-0.5301487479662055,9.756217158784724
55.2462265862,0.45581596734386964,-0.3379384862843494,9.897250487662802
55.7475945702,0.17900226325260463,-0.35520436041691533,9.894290430958765
56.2489622284,-0.025514846793558258,-0.4613051924809865,9.928614683128949
56.750330149999996,-0.09525717605336263,-0.4981128507909909,9.577177851899668
57.251698923000006,-0.09443934295768995,-0.6017064483429595,9.868777280411265
57.75306744,-0.2111770376128975,-0.6465066117320275,9.809752670939773
58.24942194816327,-0.13404151692235186,-0.7265459429852241,9.899391401028135
58.74577684,-0.07973308885166246,-0.7268146393947366,9.67113699391972
59.2471458128,-0.12832575872389904,-0.6953021287540188,9.727701032510305
59.74851506,-0.013291343572262386,-0.914220337972536,9.850952429693473
60.249884679999994,-0.0869234628278131,-1.0124891799624938,9.915190145921828
60.751254499999995,-0.1703119806292996,-1.0824565324307966,9.816865215648617
61.2526244116,-0.015198859018393731,-0.9786238926964813,9.637933923908006
61.7539943702,0.4351835231859818,-1.1241253036854324,9.533698581537077
62.25035066591836,-0.17826186090593965,-2.594576748407574,9.817049973746958
62.7467070102,0.01349026268723828,-2.3931758841358546,9.751870683526093
63.248077365600004,0.025485438801394623,-2.116734788214963,9.744034694029914
63.74944776,0.030511840820207917,-1.5585565201846319,9.72352431793311
64.2508186244,-0.025239040363793458,-1.5943132780419607,10.003529427867475
64.75218953,0.16845059565211137,-0.9624791087086046,9.536872219541923
65.2535607402,-0.1496722726717921,-1.4610887061193338,9.871419398296135
65.74991835489796,-0.47739254545816695,-0.48315152252166205,9.793028747127117
66.246275645,-1.5636508336449513,0.6875505903482092,9.888015488243726
66.74764713020001,-2.4445076347396157,0.28268200251558606,9.860055251082095
67.2490195584,-2.9612654966821306,0.6256260503847949,9.722925948131481
67.750392,-2.4628904995768917,1.3692782982995786,9.864984023703684
68.2517647516,-0.937053795706984,1.6701639216757536,9.284977062954914
68.75313769,-0.9838857771360309,0.2991095511104772,10.562451454805915
69.24949682489796,-0.5103125657946361,-0.2038423662835605,9.848521767346318
69.74585632,-0.10538478715144782,0.32324248255889854,10.063728316864795
70.24722948419999,-0.08735719631028992,0.2651791351221356,9.629338611964993
70.7486030502,-0.011215752361133915,0.07143386062907989,10.053021076962859
71.249977335,0.7652143359568039,0.21561908415639286,9.88695868095318
71.7513521,1.5881061432535268,0.08914261643204949,9.851785796760305
72.25272725079999,1.54095990608708,-0.3667320849376904,9.754069446709044
72.7541025,1.636232608634786,-0.44776567159407926,9.993211323051694
73.25046435653061,1.6549451352528377,-0.2051641744823754,9.808288917121315
73.74682636040001,1.9575419939445076,-0.34008874226468644,9.697628035024144
74.2482019374,1.7133385786954387,-0.7223387824842941,9.825226354910763
74.74957794,1.1387890639897942,-0.6670702449989769,10.00576771381868
75.2509546436,1.3568724489113309,-0.7131283394037226,9.781737845666363
75.75233143999999,1.4293808003839783,-0.777512172760153,9.814331765486898
76.25370794999999,0.9169752028990809,-0.7107149272617133,9.800347901465848
76.75007095918367,1.297876645009349,-0.533205986404829,9.82579414955799
77.2464341294,1.2779841649278798,-0.4442810191167479,9.83586144758186
77.7478115204,1.3775963116854382,-0.6263805437177802,10.172955416997546
78.249190153,1.6740155781900399,-0.7644021770794345,9.602596912569085
78.75056875,1.6271145633410042,-1.0436780173679652,9.89079642938822
79.25194721199999,1.4229375677875644,-2.05832208013924,9.54539291119598
79.75332625,0.9647275444862948,-2.4765003507705883,9.862854662091074
80.24969187204081,-0.2049784999182236,-1.2244638015443383,9.858046179318514
80.74605805,-0.34520086441236847,0.33239083070946784,9.669902979188263
81.2474386782,-0.3468437782534374,1.0124097030067882,9.738118854158836
81.74881975,-0.07954223717744213,1.6590601925874995,10.089578326886361
82.2502012702,-0.12649457769094194,1.8766704849641789,10.027042626894325
82.7515832302,-0.9719899646150516,1.9406706908723153,9.642225059250972
83.25296547800001,-1.9068880668378092,1.5144878084954496,9.655499526884592
83.74933429244898,-1.083267278862746,-0.03924769207565241,10.572219570860216
84.2457037612,-1.6569431074945944,-0.541821192954409,9.625635998783364
84.74708725,-2.3853406517682405,-0.7358720737210898,9.540700540448203
85.2484701988,-2.2880177189464206,-0.9478058788697241,10.681164226209765
85.74985382999999,-2.9065001552671945,-0.9120207197039224,9.400113829539848
86.25123832119999,-2.285176978645927,-0.9038336324706056,9.504961595362694
86.75262319,-0.9004828032545167,-0.9426712115422439,10.251402736887938
87.25400886679999,-0.4627598409131797,-0.890974406574642,9.712307296725315
87.75038085979591,-0.2169848935571468,-0.9410566475538361,9.702560198966722
88.24675311540001,0.9530620949931784,-0.7250736675341628,8.45829658370575
88.74813962,0.6507495639937508,-0.9396803985042174,10.441343978673007
89.24952569999999,0.9107943595592416,-0.934012702580029,10.386241873771773
89.75091248000001,1.1817538583517782,-0.9445641264675391,10.228770775545161
90.2523004744,1.6985318673506467,-1.2303737428489274,9.492539454347193
90.75368871,1.5340975637648189,-2.520634536057199,9.599349191879817
91.25006276979592,0.8390932636417971,-3.2855998713265993,9.9832602858782
91.74643716,0.44706510032731117,-3.1725088948947207,9.57276721040463
92.24782631100001,-0.043506458665395584,-1.0758993177104563,9.64931066900067
92.74921578,-0.11560341124195095,-0.4902907855790542,9.974139209945774
93.2506057952,-0.3171784461619636,-0.15524462088646154,9.802157980586225
93.7519963302,-0.3724564389680514,1.0308497805702928,9.846614343263237
94.2533876732,-0.709063798964585,1.3473531208694611,9.95973459467684
94.74976562755103,-0.9897873190653365,1.4534597594706347,9.823140081856113
95.2461435994,-0.2556801859541107,1.3703948488604747,9.969370930394973
95.7475362802,0.02367785036278209,1.0256084647143076,9.389216366762462
96.248929671,0.4561566890477782,0.7114032923592238,10.292070427727577
96.75032363,-0.5515415881666792,0.2862208073760627,9.7524119787071
97.25171838,-0.7716696950817411,-0.5303077453351125,9.644398649904208
97.75311359,-0.7127832907855427,-0.7124787666906021,10.089262226388193
98.24949505571428,-0.5186563093793258,-0.6950283189832855,9.706764060373448
98.74587707999999,-0.2778722198616672,-0.7117882779536753,9.79183603431083
99.2472738,-0.049791897579007545,-0.7127991400317293,9.63965492674004
99.74867104,-0.1497602327778253,-0.7553271451086147,10.017825778628339
100.250068658,-0.15687078236910912,-0.9436361078221163,9.81423547175472
100.75146682,-0.1959672246822985,-0.9173788707762488,9.560921483823506
101.25286521,-0.2670110829338845,-1.2119294294004737,9.739842246264834
101.75426392,-0.29276328594921086,-1.7698746135396004,9.817279824869726
102.25065006530612,0.01848156253956044,-3.051662589001718,9.724202106531283
102.747035282,-0.1329739472394031,-3.153705449681921,9.595553494634315
103.248435942,-0.15780069200187571,-3.418466256076321,9.605871030215539
103.749836,-0.3927992453071575,-3.145787235508912,10.04276957801796
104.25123732,-0.2671575060077874,-2.5394321267454862,9.900985704435248
104.7526388,-0.17208298740760447,-1.7059175119737886,9.770271335702898
105.25403988599999,-0.21288038402027404,-2.022045954233859,9.753617881877984
105.75042767755102,-0.20639987394052436,-2.2006578266947985,9.801762208455282
106.24681598,-0.24527728001415852,-1.8808214966974828,9.614833796993548
106.74821825999999,-0.1449564010693484,-2.1122281833236993,9.751159604627283
107.24962101999999,-0.1436111342188603,-0.5105607939031443,9.795901475003353
107.75102362,-0.1379712421504024,0.22150561160526877,9.810062550832692
108.252426,-0.1319107562626674,0.2670322004478472,9.814942159541161
108.75382864,-0.13601861176303537,0.275160487627098,9.819587519587795
109.25021757755101,-0.13187484344754685,0.2737973610762325,9.823334437073138
109.7466069,-0.13607376183265973,0.2723686221388193,9.820994384264543
110.248010816,-0.13174347809488943,0.2740219807909761,9.821529603844334
110.74941500000001,-0.1341029107178445,0.27175797972876414,9.821645117721015
111.25081914,-0.1310617409264214,0.27272885429284216,9.81986957258449
111.752223642,-0.1328513078305802,0.2726647495181193,9.821618470446872
112.253628884,-0.1340502733897894,0.27978443047925217,9.822028587236469
112.75002024285715,-0.1178221508544583,0.8700711899567143,9.860450191840433
113.246411818,-0.08648526564642209,1.8842784037578875,9.872001748220127
113.74781764,-0.07636826239103409,2.079434675684339,9.897451160933311
114.24922372,-0.10109297797628106,1.9308273937439882,9.8565889398036
114.75063016,-0.2999760511627644,1.4862525795315265,9.923684597490691
115.25203686,-1.7828407026965731,1.086855317764218,9.860643774073672
115.75344396,-3.7433012345506422,0.6097853547705583,9.668219564916896
116.24983747959183,-3.4545797319885403,0.8332846540481389,9.678081216679368
116.74623122000001,-2.489150188810165,1.1997092630621167,9.800230035345296
117.24763899199999,-3.907813300489305,0.6335414340383314,9.071882834831044
117.74904714,-2.782122168689046,-0.7385892188798848,10.329743295498346
118.250455684,-1.4422624214325095,1.5442842476963967,9.821014592362022
118.75186438200001,-0.5395412226590589,1.7602738772760884,10.03654341737127
119.25327345199999,-0.376661004252134,1.8815305096056256,9.974169201721258
119.74966840612245,-0.3863192351857622,1.9763503320162754,9.853882638366386
120.246063092,-0.21595755987039095,1.9213177730784756,9.934411576650794
120.74747203999999,0.3064027777097569,1.9102079679269284,9.977472805046423
121.248881308,-0.3685936823612013,1.362749995273258,9.833529591213448
121.75029026,-0.19257332741139158,-0.6484071447274942,9.948711394129678
122.25169884,-0.05823968038094793,0.9033362132643862,9.744623625528876
122.7531073,-0.18720693907043068,0.8212862703670225,9.875209039317332
123.24950145510205,-0.37721764182014467,0.7671946947328829,9.848679883882191
123.74589548,-0.4980651204801517,0.5582510791539691,10.087607392522138
124.24730334,-0.05161078308843905,0.4494934456834519,9.64785096123544
124.74871116,-0.22461191972889963,-0.02799911157234538,9.831586485854439
125.2501197,-0.16902292554260245,-0.6415285834090801,9.810934042920422
125.75152804,-0.283119944087507,-0.8592312096175279,9.74309140019849
126.252935736,-0.45635156927826387,-0.9150881793138581,9.820992813098975
126.74932936530611,-0.5440078938255173,-0.9747700706553979,9.907134835190211
127.24572302799999,-1.2345613640717936,-0.9713719621755861,9.653125708471313
127.74713088,-2.1687781527436236,-1.1374729281958595,9.833917194029297
128.248539088,-2.444134756447201,-2.2948535566096604,9.202143697395988
128.749947362,-2.7413067084384415,-2.991387468416566,9.900098790176886
129.25135563199999,-1.9023940979402045,-3.3059652527464607,9.818460818922908
129.7527642,-0.9395185358312628,-3.913737467856113,9.921646264973983
130.25417246,-0.39527529440589637,-3.923370706307895,9.743489728081915
130.75056692040815,0.4170539690028378,-3.143029464210757,9.883281208665036
131.246961894,0.8526320260250035,-2.326665937136067,9.725080929213558
131.74837122,2.155372291006722,-1.0125733534932886,9.760429460732475
132.249780832,3.348242067048594,-1.2304962628476144,9.715994674550755
132.75119078,4.396236485879438,-1.0259622715449097,9.588814353225334
133.252600908,5.92966368052168,-1.66780469097016,9.427749115067295
133.75401158,6.110894566049526,-0.9996990326867635,9.412961282466469
134.25040890816328,5.713470465838574,-0.8807115000568733,9.287763129937128
134.7468067,2.254763682424857,0.49150897997482973,9.882304005986613
135.24821876599998,-0.6549030021197818,1.5099669056533531,9.761907990853596
135.7496314,-2.4014667651424206,1.614445571163588,9.78246602448778
136.25104439999998,-2.305827142485893,1.0089759376899308,9.662273814697008
136.75245768000002,-1.7240895278317063,-0.44172252089862146,9.64754486496058
137.253871362,-1.5635508980341348,-0.6686068315353917,9.746570112919706
137.7502713755102,-1.3023097050946093,-0.9840710482148671,9.509460680288258
138.24667239000001,-0.3706668782128198,-2.0771775505363483,10.114384841333445
138.74808804,0.10215346595672735,-3.1897157155316607,9.67229804640377
139.24950282199998,-0.03787346508091247,-3.3823641932277315,9.436950497586405
139.750918242,-0.17910388877213707,-3.5096792360073823,9.57045859730466
140.252334648,-0.21787685095781284,-3.311011508351169,9.639195364420733
140.75375156,-0.21229578607066352,-2.696958864561257,9.66728486832088
141.25015474081633,-0.19213452765716238,-2.09231075277076,9.708111046627113
141.74655804,-0.1137305982816749,-1.0072472751020258,9.735338225694184
142.24797533999998,-0.10230746105839657,0.07746064552553418,9.875550970604088
142.74939274,0.04312851904238612,2.2589490920581623,9.94786323847473
143.250810938,0.0003881890949601663,1.940055582014486,9.989074580699194
143.75222914,0.44746067490374225,1.8955279782560468,9.930419655206904
144.25364662,0.9835185251065021,2.648557430856832,9.911444685658672
144.75005018979593,1.555227985638471,1.0029895414224568,9.898472183965527
145.24645464,1.7309033692450355,-0.06965358303292588,9.672883052102481
145.74787342,2.028084482656467,1.4625458152626263,9.721665860634726
146.2492921,1.664187755789597,2.0065720387425974,9.985765537924236
146.75071088,2.196154335563242,1.9689605963886438,10.497930105042023
147.252129884,2.3142495057772634,1.0231622233163764,9.584942492306261
147.75354908,2.1529511012104114,-0.6517176137467439,9.93701941161001
148.24995382857142,0.23048405240204362,0.862357718690023,10.021228570015081
148.74635868,-1.0405118879161295,1.3035622689287203,9.838149449676141
149.24777835999998,-3.1788852586232768,1.4439453276122691,9.586530073628994
149.74919814,-3.920620231470734,1.4324199840273448,9.90479496916697
150.25061784,-1.978223728869525,1.389547783152885,9.863385172108947
150.75203778,-0.44357001703047694,1.2271271282231828,9.85831961134505
151.253457644,0.27631009108031235,0.8732571682101877,9.890981697922467
151.74986308979592,0.03122540559677927,0.26712018293915707,9.815506093321
152.2462681,-0.28268438648570354,0.025318411031966113,9.63221362811419
152.74768744000002,-0.29226085859569767,-0.809774960138395,10.433464881469568
153.24910711,-0.3380975890252466,0.24583275715286365,10.565492287551908
153.75052724,-0.23810691965103742,0.6869837939536676,8.687020174921763
154.25194786,-0.12447333010907663,0.6109413067837393,10.67320557708132
154.75336884,0.16920653482740972,0.5919519999625354,9.593251072526066
155.24977599387756,-0.1757015343460767,0.1558583166413015,9.904848905117953
155.74618314,-0.14787100261659467,-0.6212690012693803,9.876797751556621
156.247604622,-0.22455719561882392,-0.8178580117857643,9.781270067648217
156.74902624,-0.15459978030633492,-0.7894178835371384,9.794938142433546
157.25044767,-0.17380909425198315,-0.8325152502198696,9.92313611494731
157.75186918,-0.019708243970005753,-0.8738738112813309,9.618181536569885
158.25329064,-0.11660323610930436,-0.9298768974067836,9.897107237218302
158.7496979163265,-0.03236709348781113,-0.9596243775958871,9.75295971058872
159.24610551199999,-0.14430552768029303,-1.0004176888572633,9.758525227886407
159.74752704,-0.2277825661799344,-0.9871773438175347,9.662123453799259
160.248948362,-0.29590574292586813,-1.003598250083679,9.836386133366247
160.75036962000001,-0.18409794012373384,-0.9938287295927383,9.812255856050696
161.2517909,-0.06849039528236128,-0.991527687784798,9.879915492898958
161.75321254,-0.19339489809881777,-0.9911855462234476,9.97732419903011
162.24962017959183,-0.16484448783388037,-0.9590617340069134,9.574953768386784
162.74602814,-0.10954889098145179,-0.9858549232159697,9.857418882912546
163.247450576,-0.22251927173355845,-0.9564152441294462,9.695208068727966
163.74887312,-0.12846566392379416,-0.9679861480064137,9.744408340163357
164.25029525000002,-0.09728586935882505,-1.1431277715523906,10.778161973408919
164.75171734,-0.12184621734930147,-1.4362069754463798,8.517924738683242
165.25314011999998,-0.11216937022511278,-2.0138588788320977,10.073469212655528
165.7495486979592,-0.057660772461879804,-2.0441174669269278,9.627135516799829
166.245956672,-0.1130092755343765,-1.9583688502683683,9.815120281487372
166.74737864,-0.08051102003071357,-0.9146847778707748,8.8676709450742
167.24880056,-0.18758483981206378,-0.984890595557774,10.182517881813435
167.75022260000003,-0.2756305098186924,-0.8753873808259993,9.790427769470574
168.251645344,-0.2763673685754894,-0.8401286771894845,10.129860821357491
168.75306813999998,-0.10443765482970006,-0.7591069151253342,9.943531080288034
169.24947612857142,-0.17203686951602018,-0.7198357808337335,9.669061746560468
169.74588404,-0.16310563613335957,-0.4190039434905103,9.953470836877097
170.24730643200002,-0.07813528385760012,-0.1710243546510483,9.655253442809627
170.74872896,-0.09091432534213728,-0.3084562612207685,10.011607828382862
171.250151824,-0.20337018865875262,-0.2929626418414927,9.75656424852859
171.75157476,-0.1474694315378118,-0.3159710239522623,9.888273073435416
172.252997708,-0.15182431810168484,-0.258751609751102,9.778243301639073
172.74940644081633,-0.2369532420985857,-0.2265440120837612,9.71781369932721
173.245815082,-0.21578622151663232,-0.2694872896110328,9.907604977701785
173.74723788,-0.2641761245649217,-0.2954885000192932,9.692167650327939
174.248661278,-0.2776918991712024,-0.31903867692098514,9.940179351771212
174.75008480199998,-0.18942420583403577,-0.32082355799923723,9.93290461844079
175.251507618,-0.24017138147504247,-0.2698738225122187,9.720681158283893
175.75293043999997,-0.1975573598048252,-0.28868166991778943,9.843294120020154
176.24933945714284,-0.22617621966257473,-0.3530845642104061,9.894533600105333
176.7457483,-0.28141012257625525,-0.5415026090520044,9.77428652184452
177.247171094,-0.27512385704629366,-0.7343242983869935,9.797571019412684
177.74859383999998,-0.25584036982690295,-0.8463084895687271,9.795008763208592
178.25001676399998,-0.2481095055963037,-0.8502515183064707,9.811060885750871
178.75143984,-0.2228723811277179,-0.886979260049811,9.673884246560654
179.252862938,-0.15104086282438725,-0.9243165399541649,9.810328239225072
179.75428614,-0.13084884981316283,-0.9238309850162268,9.8853074991395
180.25069495102042,-0.03163492155398012,-0.9207668962357848,9.708811046054294
180.74710385999998,0.00615553046537243,-0.9410177232208555,9.851650682194371
181.248527224,-0.037571165123711225,-0.9247833765348524,9.722630272054351
181.7499503,-0.12013218498455805,-0.9312066446815596,9.832064491381205
182.251373428,-0.3743807193632904,-0.9088621246796785,9.756394220690034
182.75279660200002,-0.3324731377350578,-0.946303984472784,9.99811657897692
183.25422038600001,-0.24328609410965513,-0.9046279687953933,9.774104193747213
183.75063018163263,-0.06320811579207973,-0.9561189899687017,9.574245773751391
184.24704019600003,0.00749399457457791,-1.4603493359290323,9.554512378636689
184.7484648,-0.10744174587611434,-2.23483328090043,9.829036815183459
185.249889362,-0.17596058539592088,-2.959056258984166,9.712525534669801
185.75131382,-0.3073651667808665,-3.0459928507751304,9.620342383325994
186.252738884,-0.20366678139910807,-2.6888658892837993,9.796746184588132
186.75416411999998,-0.15917631004259744,-0.9466003700077903,9.67109665057591
187.2505747897959,-0.23767298281433774,-1.0528263819553592,9.843451241316867
187.7469852,-0.2378038899928556,-1.9148063091303071,9.731435057080875
188.24841073,-0.28444833267360725,-2.4889624226020843,9.719738102030453
188.7498364,-0.22378930665532137,-0.8494283332858628,9.61606085017415
189.251261094,-0.10507314898697881,-0.826052713016842,10.072693116700199
189.7526857,0.6882391189108978,-1.1662903062340715,9.867696550810226
190.254111022,2.3739491927819576,-1.5718038289132699,9.702674449569152
190.75052214489796,3.680572275566576,-1.215941196553505,9.621978732613698
191.246932768,4.104100032072667,-1.0163621761173063,9.819912620168003
191.74835760000002,4.323803796948668,-0.5907018611329242,9.578822021840733
192.249782292,4.572529814629082,-0.758044527659045,9.490581782996763
192.75120729999998,4.109540586461191,-0.691838046249067,9.910967876929314
193.25263253199998,2.9514121328991987,-0.315247936096172,9.828489716084018
193.75405792,0.4680802113403644,0.0946363082222633,9.861886434916675
194.25046908367347,0.051143026266861645,-0.21656274909889292,9.780280698846644
194.7468804,0.10779390401771957,-0.5906532459166237,9.794622179805565
195.248305492,0.08296577775950886,0.5857996670740203,9.921455860002206
195.7497306,0.00821103571856422,0.7536760750566828,9.790419758545813
196.251156376,-0.007500861707742648,1.120306317263842,9.9562733096807
196.75258183999998,0.14842851370420213,1.4106938371584052,9.908481678780092
197.25400733200001,0.39757955096037423,1.3815916988094263,9.914941021192218
197.75041860204084,0.5007922499703354,1.4195133376343616,9.929552713446364
198.24682987399999,0.46004588507237876,1.3647424517220441,9.915026074703734
198.74825565999998,0.16740508152193317,1.3191268038396158,9.874932223373419
199.249681782,-0.1906084851720799,0.7471662072405917,9.827675578166579
199.751108184,-0.2881899716358766,-0.7559520064971963,9.850954806325856
200.252534556,-0.2266227923819149,-0.1364494950827131,9.88008436253759
200.75396106,-0.24149726257869805,0.16163828050358778,9.848044687895529
201.2503739,-0.327300203970257,-0.4481207461180045,9.757987962507833
201.74678694,-0.493358329820877,-0.2755940504733641,9.920053207086797
202.248213218,-0.681935407979754,-0.0670808493432012,9.843898818789137
202.7496393,-0.8175632756004941,0.0061523943102646615,9.727731505504199
203.25106606199998,-0.7963915642399064,-0.0008114303700548412,9.92775683216117
203.75249282000001,-0.7802988338465511,-0.017167812779216175,9.778949456034612
204.25391973,-0.3110638765876904,-0.4831271650024245,9.824779444659043
204.75033242040817,-0.23487929185850476,-0.4411170730400982,9.919938149673769
205.24674486,-0.1717800409930617,-0.15108394174893683,9.708761438868164
205.74817162,-0.024653122264510198,-0.2152040656130686,9.899536797534672
206.249598006,-0.11954450787289375,-0.1706814988466967,9.832182059184053
206.75102432,-0.20163863407953272,-0.1443333316356019,9.81681169522387
207.25245145600002,-0.26833825744487394,-0.0893895407734415,9.768846454850758
207.75387881999998,-0.21073832958819477,-0.06753267986310761,9.835430431311078
208.25029149795918,0.17856145967206075,-0.10043407659377385,9.883335167784805
208.74670416,0.3104414739569189,-0.15053821794433403,9.894983686975769
209.24813102,0.4225742880581813,-0.20018165082017725,9.82891057612256
209.7495578,0.29460588585320235,-0.23979797747239787,9.729988956500067
210.2509851,0.4909777886802304,-0.3512203056138904,9.884072336984678
210.75241266,0.16606086388095037,-0.47362240958695717,9.801677562326425
211.253839932,-0.031517251471655794,-0.4142195687230111,9.809460213341929
211.7502528020408,0.04133240183324979,-0.4027606592706664,9.908200436581394
212.24666625999998,-0.05997818540775019,-0.6691132652293257,9.784883154146076
212.74809421999998,0.4227864541734833,-0.9019380608537798,9.848951785016924
213.24952176,0.9541058655367158,-0.9505752659837112,9.880018089071905
213.75094941999998,0.982192482781919,-0.9601206665691369,9.63900648871379
214.2523778,0.9986572608654197,-1.0302958864689777,9.906877310916904
214.753806482,1.0016565004177986,-1.0317569112501128,9.727248829099487
215.2502208897959,0.9490947090405687,-1.0295251732805326,9.796966723895721
215.74663550000002,1.0842146626367763,-1.007025067743318,9.965321529698532
216.24806438,0.9807984139641641,-0.8163080781005951,9.841492040533463
216.74949332,0.9605958624525414,-0.7755604570340515,9.654899201273706
217.25092216000002,1.0014983165334825,-0.749772019295756,9.928600703005094
217.75235093999999,0.9543136607131373,-0.6344602256176808,9.763251160885458
218.25378016,0.9953039064094306,-0.5990316493011656,9.845689895185155
218.75019531632654,1.052753042635561,-0.5938616465734453,9.803901110181771
219.246610048,0.992990907693381,-0.6109148034480879,9.92697681913005
219.7480391,0.8854549220507874,-0.6166595937155404,9.74530602508763
220.249468456,0.49525639785732906,-0.4844709017675624,9.834846608583911
220.750898,0.15126156160080978,-0.06603695564767104,9.835649582996615
221.25232722,0.42380243203083046,0.11202960832244159,9.814001701121171
221.75375649999998,0.3691981716096058,-0.08975492317180164,9.863725774449657
222.25017179183672,0.5083524229578217,-0.5993407855685264,9.77369644885003
222.74658717999998,0.7223674695540739,-0.7815068295261962,9.899082287581257
223.24801665200002,0.5686099368678658,-0.7559957926083407,9.796987273715489
223.74944599999998,-0.0029558429903170304,-0.6942839507505447,9.842261960005377
224.250875714,-0.5962781436161011,-0.6744347278441234,9.827063973103717
224.75230552000002,-0.8953053061278855,-0.64134681725332,9.88009384093369
225.253735352,-1.0056823820068994,-0.6642246048468678,9.853528560396972
225.7501509510204,-0.8813678377340872,-0.7849442837180325,9.749749446067806
226.24656617,-0.5396440649030447,-0.8513373723733147,10.066814967189947
226.74799552000002,-0.42695543717358786,-0.9093753366463551,9.783872031041339
227.249424986,-0.624536521971508,-0.905366207076678,9.67723091530977
227.75085428,-0.9381453244430382,-0.9034090788786823,9.8138629417569
228.252284074,-1.3551881494657478,-0.9720632519710674,9.806013552930777
228.75371404,-1.3637563321669777,-1.1801076666464205,9.81970145173123
229.25012987959184,-1.1235715288001897,-1.304651755415021,9.69850537508158
229.74654588,-1.1663158393669568,-1.255299964165447,9.749623490224865
230.24797651199998,-1.1926301114306583,-0.9663136973185531,9.774459535161037
230.74940728,-1.0540436974920013,-0.8760759928158722,9.656870231299632
231.250837942,-0.9938444431110728,-0.784528190903413,9.8275013785572
231.75226866,-0.8921289274506148,-0.7963647352112685,9.797152059853527
232.253699518,-0.7546367721388181,-0.8887593642097095,9.849990852874605
232.75011605918368,-0.9844287571015775,-1.0854551901679055,9.895472218637416
233.24653253600002,-1.009267801065261,-1.315746038054311,9.803333996976072
233.74796326,-0.9236556103747184,-1.5046210328551846,9.710580439711185
234.249394728,-0.8526110873185356,-1.7336357114059142,9.837797972131733
234.75082652,-0.7669802993839846,-1.9385855622609016,9.727213701055016
235.252257872,-0.5096622641723004,-2.290488097394011,9.689300224693994
235.75368930000002,-0.32543702864535395,-2.144601507870816,9.733244807387402
236.2501067020408,-0.0935815568666858,-2.158279891510821,9.701830088110711
236.74652414,-0.08793113310510992,-2.29430376845839,9.727193076527213
237.2479561,-0.04814669327667548,-1.9748269839332202,9.761620942654972
237.74938817999998,-0.244875858286454,-1.918713936010557,9.690193201568636
238.25082058,-0.24242765711336337,-2.305792176090387,9.718742030306018
238.75225316,-0.24580547194694943,-2.578190831409043,9.625449702456256
239.253685396,-0.297303958738474,-3.0060417463648332,9.682438168418955
239.75010328367344,-0.2126564575329516,-3.1188865476549927,9.72337943407112
240.24652158199999,-0.014150797103867074,-2.750306537047922,9.611940937800627
240.74795454,-0.017729574650478003,-2.7109615124483923,9.70320862757572
241.24938707599998,-7.058060241233122e-05,-2.2209073658295644,9.712125477729234
241.75081932,0.037572616860525855,-1.8274079565847325,9.734861125664143
242.25225189600002,0.029929901826504096,-1.392975387736464,9.761039420977925
242.75368461999997,0.06538786876529282,-0.8613409611466091,9.790129875127285
243.25010339387757,0.04767667918269103,-1.0896984272426384,9.784006023017183
243.74652247999998,0.07348022262075973,-0.6833247139399431,9.811999233476028
244.247956198,0.07863825957478875,-0.612766217215949,9.80998306280987
244.749390322,0.07825117690091112,-0.6129256700334993,9.810427468144821
245.250824182,0.0785645745730297,-0.6163151921768601,9.810122097822756
245.75225798,0.08029888811966757,-0.6137823859327984,9.811263805116573
246.25369234000001,0.07814280703539894,-0.6152561260909354,9.811418516409093
246.75011248979592,0.07730561029976776,-0.6156320880946416,9.81317641847805
247.24653266,0.07722044603594334,-0.61477481642993,9.810788582977272
247.74796716,0.07945024039061656,-0.6154624786255438,9.810150837812152
248.249401706,0.07762838622845276,-0.6148080494218982,9.813495784713854
248.75083616,0.07555046240084981,-0.614172059963646,9.812502105619716
249.252270882,0.07779836703665714,-0.6142614966251919,9.81188042152794
249.753705722,0.07871744801449729,-0.6131694356791456,9.812426540777993
250.25012614489796,0.0782505725012411,-0.6135010050988915,9.811648446502604
250.74654664000002,0.07846852038410647,-0.6135987152175735,9.810520176604145
251.2479812,0.0779167697398928,-0.6161736150376481,9.8115694968592
251.7494156,0.08056845133416252,-0.6146323985757448,9.813427106128714
252.25084985,0.0805200570249567,-0.6164514591771241,9.812025435673188
252.75228402000002,0.07747510215533808,-0.6146434496845654,9.813120973278723
253.25371887,0.0781467951707859,-0.6136919885339095,9.80965115839274
253.7501398489796,0.08012873019432869,-0.6145367446749119,9.813209845038573
254.246560512,0.07954364889496772,-0.6147446998457818,9.810041505742221
254.74799557999998,0.0785317414151151,-0.6136105399963347,9.813680613246497
255.249431124,0.0793601537474517,-0.615280198304662,9.811015465767683
255.75086668,0.07983559268410544,-0.6127111088434632,9.811895755310433
256.25230277,0.080214683002123,-0.6128747892543517,9.813094362996068
256.75373908,0.07697244751992677,-0.612928891290731,9.814880501250775
257.2501603469388,0.0777686750804854,-0.6125534340177854,9.81128112394772
257.74658184,0.07778208006413104,-0.6137709337196492,9.81111940016095
258.248017828,0.07939928382786139,-0.6141128942906467,9.814975142622739
258.74945414,0.07799676721096162,-0.6129651859482174,9.812159992458506
259.250890496,0.07826611719827858,-0.6135578192448368,9.811331219902208
259.75232676,0.07922700854678798,-0.6125950888022785,9.810982255849792
260.253763504,0.07968989462578074,-0.6131890278858123,9.812726226810256
260.7501858653061,0.0758293718189455,-0.6125548007790604,9.812402374829029
261.24660866,0.08129386229123402,-0.6141419384132274,9.811004792308655
261.74804616,0.07704472024907134,-0.6128810884509441,9.81442453058967
262.24948294,0.07765835454147607,-0.6130680943662941,9.812288555390351
262.75091951999997,0.07714041324336315,-0.6120962686956078,9.810908314695844
263.252356712,0.08067349516869093,-0.6135151639122808,9.812397895483672
263.7537942,0.07823376054110799,-0.6140695502124182,9.814125891061478
264.25021680816326,0.0796305560156755,-0.613476714209112,9.811714941623933
264.74663934,0.07794697532896945,-0.6137540984963522,9.810507988132052
265.24807643,0.08020595389254216,-0.615106521881293,9.810600135794052
265.7495135,0.07816685384056533,-0.6143413702390272,9.814315257364512
266.25095067,0.07943083309264048,-0.6129856786443847,9.812474748182053
266.752387942,0.07933986760950311,-0.6131650337179647,9.811727109157108
267.25382497,0.07864062497904466,-0.6139261849822166,9.812586999109099
267.7502475387755,0.07901424144309283,-0.6123792111062124,9.811348240587817
268.24667074,0.08082706087574155,-0.6138755878028284,9.811107640840184
268.748108742,0.07790897585187812,-0.6136681449734539,9.812578317930006
269.2495459,0.08080195109520268,-0.6147347166967849,9.8118962372971
269.75098264,0.07943661514109437,-0.6124023210178506,9.81308372717929
270.25242013999997,0.0806077989539928,-0.614087497437857,9.811483404981054
270.75385758,0.07779412162014798,-0.6139130667630096,9.811953033155245
271.2502807653061,0.08053978603334072,-0.6136236024529175,9.811958178363543
271.74670392,0.07902271663608258,-0.6135527751184496,9.811114006050982
272.248140976,0.07877444165536637,-0.613097717096538,9.811995210609961
272.749577942,0.07776200056347002,-0.6127607934274081,9.81126482046064
273.251015132,0.08038857943096644,-0.614677025157685,9.810161568433815
273.7524524,0.08082166479548686,-0.6134821874807151,9.81233338854176
274.25389053,0.07876616837454092,-0.6128856955429288,9.812446359187895
274.7503148102041,0.07977143338150146,-0.5418433041518628,9.832877515808335
275.24673880800003,0.1950986298289228,1.4502823990728582,9.91652638397739
275.74817736,0.2999799513091057,2.35225773276584,9.974232354251983
276.24961586,0.1962362311545833,1.4589526494178366,9.899877332437525
276.7510543,0.08465772214613133,2.198082582032797,9.935083752680642
277.252493152,-0.14972650177435926,2.926628370695418,9.948339735902895
277.7539321,-0.30772198735643846,3.243188693190863,10.008381548042424
278.25035705918367,-0.6640357103449495,1.9014646445453363,9.843013002954464
278.746782462,-0.6247456545341863,-0.6450107616616036,10.038937558299313
279.24822128200003,-0.5186583776748295,1.2472045209229947,9.7355120212984
279.74965954,-0.5467543105615981,1.7137928787359926,9.863821030835394
280.251098532,-0.4487394797087578,2.301750587052605,10.025694848921326
280.75253774,-0.17888065247905025,2.2863703108229667,10.064578146928673
281.25397674,-0.17860320967691642,2.1516613792526633,9.939861939753477
281.75040138571427,-0.47842478008363065,-0.4532194414941294,10.048826276927505
282.24682623,-0.37888043184976056,0.6146720565486465,9.972790651860661
282.74826576,-0.1724467848131474,1.0438882432970373,10.131473862384045
283.249704888,-0.24294182579170007,1.5121553748740513,8.802908453947154
283.7511439,-0.09970545955147908,1.3280133411820727,10.347187188145826
284.252583096,-0.26105849924225133,1.3370383086321318,9.868023319147174
284.75402228,-0.05837262875597702,1.2821420552692162,10.228671583035272
285.2504473183673,-0.03991232683648994,1.3063656204564662,9.780128966834978
285.7468725,-0.31092233929722946,1.2973924546997906,9.925487963784404
286.24831212000004,-1.3250580361218431,1.2851419113725342,9.754248333423936
286.74975152,-1.889584273460895,1.2663293572795653,9.880981216039439
287.251190874,-2.130094026731966,-0.39432032640742043,9.79282541515137
287.75263029999996,-2.2779099631234354,0.40707685771491325,9.741944727480883
288.254070116,-2.6979520214033914,0.726310632841168,9.92408383565931
288.7504961326531,-2.27111295101758,0.809279415376041,9.729666353604703
289.246922176,-0.8463375384309828,0.7489229010000815,9.76137225101112
289.74836316,0.5076826613518022,0.5726787449009794,10.16522973225338
290.24980361999997,1.0373465706667002,0.5634526792321474,9.598666689297357
290.7512438,0.968690567359351,0.5531344227403326,9.964836899937952
291.252684868,1.2679963946615804,0.5434166968240707,9.8323774936662
291.754126124,2.0860454948427467,0.48751855168132674,10.101583578273239
292.25055304489797,2.2735457622067936,0.4544867494769034,9.866365293755308
292.74698015999996,2.450849517060516,0.39449540677608846,9.844208727739392
293.248421688,2.705839328708947,0.32276704775392256,9.943358736635515
293.74986342,3.398946072385972,0.19839760755606117,9.759529871544785
294.251304944,3.5048473594957956,0.1712983568004447,9.826055604106278
294.75274618,3.5900388951341142,0.10298209012231725,9.934837868813567
295.254187862,3.393371519629219,0.09363174854393141,9.951528945884423
295.75061508979593,3.209810070295577,0.0980097977934437,9.907087298626827
296.247042668,3.4047987037531153,0.061595095859057446,9.720728737214921
296.74848514,3.146424076619994,0.10206146231891734,9.854989038015846
297.249927168,2.6704245771708837,0.15699776181640968,9.863817941932432
297.75136910000003,2.1649334791772614,0.19118602148326577,9.872601708016212
298.252811496,0.7390855852448351,0.3453568631605436,9.8393946777897
298.75425422,-0.3060768100324689,0.41345287788621116,9.908309556305412
299.25068206734693,-0.5455214235145867,-0.7221825416347092,9.744999220952698
299.74710974000004,-0.3638496578654469,-0.6710962066008033,9.813352008850181
300.248552448,-0.24280307750263813,-0.13837810875501041,9.88756152658595
300.74999562,-0.049166920265942264,0.1275675012594083,9.72638061381752
301.251438384,0.05666413642340648,0.18203028347704542,9.900823868013791
301.75288114,-0.08316565652066768,0.1731787831949732,10.035271376367893
302.2493091367347,-0.27918577251357957,0.06890252178450576,9.87487716227034
302.7457369,-0.31893514871989187,-0.0005874223414949742,9.661203350882355
303.24717974,-0.43919264873120845,-0.48738949597403725,9.745513050422135
303.74862268,-0.31330862951340643,-0.3997999714442212,9.686855199242164
304.250065844,-0.2221656789388267,-0.18566184957552534,10.287302407772998
304.75150936,-0.2747791190593864,-0.12840302759243907,9.609919951266669
305.252952336,-0.274831871652688,-0.6923544782139471,9.996240985080071
305.74938069183673,-0.2190657508743486,-0.886638251449475,9.545210019780729
306.245809602,-0.24086360682835092,-0.43973962680067935,9.866294350654133
306.747253,-0.21007437863541473,-0.17049937654993866,9.869919352008242
307.248696506,0.06390941012957117,-0.2239564700064923,9.92834654369913
307.75014018,-0.04347726432265525,-0.20886686067344398,9.63090555228549
308.25158362400003,-0.16610715797793982,-0.26704535516847266,9.999219114697512
308.7530267,-0.257964865334563,-0.25488138997472404,9.869333524878577
309.2494561632653,-0.1813470691493869,-0.3035153920152793,9.613946589843714
309.7458862,-0.22885484139260026,-0.5427124503546069,9.844778593779253
310.247330288,-0.4030773917632701,-0.36406070842802224,10.070463587095647
310.74877472000003,-0.3665893071248597,-0.29544449081237056,9.604631925566485
311.25021872599996,-0.303940492816722,-0.32338871055308505,9.922446410898354
311.75166248,-0.12813783452072036,-0.35013418112846517,9.884802489359181
312.253106826,-0.12162140343024086,-0.4663121424457825,9.735177581684292
312.7495369510204,-0.22417545604886494,-0.6133451648635883,9.705849222511217
313.24596692,-0.30035104592325906,-0.5862148140687498,9.845711089187715
313.74741144,-0.25402509201015633,-0.5523819089740817,9.79871955122507
314.24885582999997,-0.16882467280654587,-0.5809495198213872,9.958838338073534
314.75030002,-0.1861657663492722,-0.5733533048022593,9.779450111179141
315.251744514,-0.3337564596917732,-0.6059598514429421,9.798381205289102
315.753188902,-0.3271869573397147,-0.5851942314459214,9.820469285471715
316.24961921020406,-0.3422260749363683,-0.5690198348981178,9.784558769928259
316.74604968,-0.26646262129401455,-0.6014640599416404,9.842950014390395
317.24749376,-0.20443087986570865,-0.5801498550261311,9.807448688110705
317.74893746000004,-0.24787861301723407,-0.5643002086131164,9.739658820706712
318.250382,-0.33046901736682693,-0.6187488472716661,9.88382567079856
318.75182712000003,-0.30063111831134676,-0.6238098186423691,9.789563274176404
319.253272,-0.3639115422647405,-0.895870615727721,9.820403736916807
319.74970254693875,-0.46734006870061034,-1.15998846086044,9.730565542554588
320.24613318,-0.3860968081067032,-1.2409993513691764,9.929630263568377
320.74757796,-0.3120644300768529,-1.230714362735074,9.799252340834794
321.24902334,-0.37412435945120415,-1.2200233098512099,9.691297533961931
321.75046904,-0.30258684905794003,-1.2150620022970093,9.739094084009917
322.25191434,-0.21921069940368096,-1.1857323670292885,9.686705878458055
322.75335942000004,-0.06432907169324173,-1.1905694384571113,9.939838431183563
323.2497906387755,-0.03432128413673231,-1.169269858619153,9.69543699388924
323.746222422,-0.2040972382130822,-1.181149141650839,9.961221472214563
324.247667982,-0.2852131717436474,-1.1634191989284082,9.681860691441223
324.74911346,-0.30084261647818467,-1.1540064952641418,9.81451376283739
325.25055906,-0.3258456915264258,-1.1286954119566053,9.700025018160957
325.75200438,-0.23880006604456416,-1.1689368002515814,9.799166249999487
326.25345002,-0.23353402963618441,-1.1595813214346677,9.786570142334542
326.7498813367347,-0.2798869919485715,-1.1714881632585776,9.905814756423382
327.24631268,-0.39014293844605985,-1.1416628337329342,9.300873127250343
327.7477585,-0.38695035949992396,-1.1765343961935606,10.087101935717971
328.24920434599994,-0.31923084083782377,-1.1311413948679137,9.715316597239863
328.75065007999996,-0.22276982424911612,-1.156611641927156,10.129014899104625
329.252096274,-0.17580679475677508,-1.108300900624077,9.5987656299694
329.75354278,-0.2767266663516617,-1.1558892411222503,10.018081056474013
330.2499747877551,-0.2833444363947093,-1.3309997925090673,9.61499602186415
330.7464068,-0.2661292773511852,-1.7426792458633953,9.476248380607428
331.247853502,-0.09205299315032626,-1.8563619792313668,9.969548000249869
331.74930004000004,-0.22934606331146543,-1.8332709031382912,9.54596003892696
332.25074636600004,-0.5496100259850167,-2.142889878314413,9.774224780059775
332.75219254,-0.2639578605505384,-2.064684217876815,9.777236934788611
333.253639042,-0.1208787247300001,-2.118853275436061,9.700790305946947
333.7500712673469,-0.34615024424338164,-2.696540498168954,9.782284753058947
334.246503856,-0.45281488485405985,-2.4660637883499272,9.551825227267758
334.74795126,-0.05178626631351934,-2.5847215027273505,9.721817503855098
335.24939879,-0.05276013749851706,-2.534747319010267,9.777786647103758
335.75084688000004,-0.04574753599604595,-2.060883958693027,9.72250047098274
336.25229447600003,0.1436229106233508,-2.3610055513446357,9.700869587145856
336.75374153999996,0.17778527047791828,-2.495408104431447,9.69259423973017
337.250175,0.4015108523930891,-2.503038955526811,9.693892550583955
337.74660861999996,0.5448564393674296,-2.4067063666729918,9.721456801722995
338.24805656999996,0.5794654446789153,-2.3913074625784256,9.746228285262877
338.74950442,0.4977834361504812,-2.0518815272151363,9.722614729272378
339.250952596,0.4217270150369319,-2.21129733032017,9.742617137179543
339.7524009,0.24070789532393325,-2.944619745257108,9.604513533183201
340.25384922800004,0.023274159870116145,-3.2279856829212137,9.668864868995767
340.7502835204082,-0.2359381073318288,-3.1580937655466887,9.643292924063639
341.24671739999997,-0.5318602914444684,-3.4076048767621283,9.666519788534973
341.74816572000003,-0.5296605710676149,-4.173081171058272,9.692367800735456
342.2496143,-0.6726515995992719,-4.652860784645486,9.471745519268968
342.75106242000004,-0.5773007423634141,-4.884355009838353,9.582214609158823
343.252511104,-0.4904704228027977,-3.728364270006083,9.596558992144061
343.75395982000003,-0.44502711991984106,-3.017909801143812,9.660970176139957
344.2503942714286,-0.2916943724266115,-1.0009445905318188,9.779448045306305
344.74682917999996,-0.226582659918463,-0.034744367433909365,9.869724927373055
345.248277932,-0.09635351887580638,1.639429722892268,9.922745128881507
345.74972651999997,0.12827208014896585,2.2825182330501126,9.9526430743328
346.251175332,0.689817346427409,2.1584765603803318,9.909125534913398
346.75262386,1.4375258915062437,1.2388032179999144,9.85690575777152
347.25407242,1.7434903406337778,1.143265317585075,9.910476717100057
347.75050693061223,1.9739323760850718,1.0934492946636627,9.879688348380482
348.24694117599995,1.6760640287786697,0.5210242088762157,9.922156010677552
348.74839018,2.096552278547985,-0.03273795817912193,9.806495504395258
349.249839142,3.2257261802345316,0.8870137042612289,9.699457176857688
349.7512876,3.467678541722806,1.3474429712827944,9.862581354993617
350.252736868,3.2412061363076656,1.7699295330354432,9.996901388683392
350.75418640000004,2.4935602738723577,1.8369912462396627,9.777059026200337
351.25062139591836,1.039610969860269,2.1652747116840407,10.067363368658476
351.7470573,0.560427137817626,2.1894181297468074,10.168097557752027
352.248507202,0.500651137564814,2.1527995639615476,10.015445214287702
352.7499566,0.3378768545823825,2.0278214360979754,9.801192419137886
353.25140658600003,0.031981869151403615,1.5613569565637926,9.993244590092004
353.7528565,-0.025859725840885743,-0.6963276461367349,9.785941868328486
354.2492920734694,-0.0901864409864917,0.8658531019934144,9.91457907578668
354.74572809999995,-0.21337961308093908,1.1250373433336405,9.90366833943167
355.247178566,-0.07670998930987814,1.274132770880157,9.88035205543738
355.748629,-0.045643825425562064,1.2955550967767555,10.0294200270062
356.25007897800003,-0.05281587658659372,1.2149099082113275,9.835757234184376
356.75152970000005,0.0775608645507096,1.1886851928404558,9.976251854475104
357.25298016,0.06425422065641206,1.0993881875116052,9.885240910870566
357.7494164040816,0.010441718530213364,1.1054110564263513,9.85080093277436
358.245852838,-0.16399331162648256,1.1167709751366202,9.887798093642253
358.74730416,-0.1600878492634134,1.0383251518703351,9.914654989971183
359.248755248,-0.2653964065628129,-0.6528665339085918,9.734358180721186
359.75020592,-0.11695907597275663,0.2874713789401757,9.897111015844654
360.25165732,0.048349901595318684,0.49499228058953193,10.014086667715521
360.75310934000004,0.06167561062489777,0.6278285414000996,9.800234356009513
361.249546477551,0.10721960251786238,0.653868097207787,9.84305097438213
361.74598378199994,0.049785661082562854,0.6171554931103457,9.983332906516502
362.24743530599994,-0.1704523091280596,0.6306571057240252,9.77594422915862
362.74888606,-0.10411241437103527,0.5968957248368976,9.88934705384005
363.250337912,-0.1990478824792426,0.5800604520996835,9.895367432770191
363.75179024,-0.15039269179542566,0.5755505776841088,9.851528946235348
364.253242126,-0.12003900800824109,-0.7365035635837561,9.834907442813693
364.7496789877551,-0.29653287501837844,-0.43686684158574324,10.03029543104306
365.246116932,-0.18876141731696972,0.10441980343099962,9.691368977605572
365.74757012000003,-0.11048864179387838,0.22348976838626627,9.710051539239476
366.24902284399997,0.014878887656772527,0.23943227054384864,10.032113952538122
366.75047576,-0.040556459098415265,0.21527926787851073,9.812167978745256
367.25192866799995,-0.05509338246894324,0.09580152621119238,9.660326258341698
367.753381602,-0.06001231428019972,0.06454348276036127,10.105887135948498
368.2498201183674,-0.057524736471176466,0.05884041826247437,9.796300920136028
368.74625871999996,-0.12565302580018758,0.02464111817695729,9.797343232782527
369.24771207,-0.23510369190231536,-1.0019351054681704,9.825128597065252
369.74916512000004,-0.1705525602663867,-0.573511769265864,9.784611352168755
370.25061888,-0.15897570589447851,-0.13387305004651928,9.6824301318817
370.75207298000004,0.03176250798902974,-0.03452478003292651,9.914891930457248
371.253526796,-0.08072758215274892,-0.017564948893201853,9.792915044980372
371.7499659938776,-0.14280056740271563,-0.6043015882434721,9.796904661459866
372.24640541,-0.29693786661135774,-0.9418632253544673,10.555925480661887
372.74785918000003,-0.30865699973090904,-0.8711334726158094,9.726207734765563
373.24931326,-0.2937081344345145,-0.8423864285602278,9.567303047284433
373.75076742,-0.2704076276027935,-0.8631625947881608,9.921624152962218
374.25222162,-0.278821292769751,-0.9244158986209705,11.002743988637594
374.75367588,-0.20777840189829455,-0.798605763327376,9.690227640631917
375.250115832653,-0.14995086662804008,-0.8166729709917233,10.125828060929546
375.74655636000006,-0.14831627596881478,-0.8042673745648531,10.106140556417666
376.24801083,-0.1315823044239297,-0.7603396050243105,9.547299700862997
376.74946448000003,0.1343940512188656,-0.8382509526521075,10.440973482311643
377.25091884,0.6138100101367973,-0.8169051244894903,10.394142408074984
377.75237364000003,0.4104918948376848,-0.6552546651464338,8.998131004854786
378.25382799,-0.1846969501164895,-0.5819737580250863,10.04424440818273
378.7502682510204,-0.9051970807444149,-0.33815232804715784,9.202105970940833
379.246708336,-1.1567430076400091,-0.19596547033465284,9.856329497670128
379.74816246,-0.7391174905567436,-0.27858622966174873,10.815548222675291
380.24961752,-0.5970485941780964,-0.04699923878915184,8.314492811765279
380.75107276,-0.20871224978287042,-0.6636528803444635,9.520040509728153
381.25252811999997,0.106099659709505,-1.0067609144070557,9.21823286849638
381.75398370000005,-0.010885955618485882,-1.0639913077711354,9.418777428158874
382.2504248265306,0.021453711832009573,-1.0606897088806209,9.33792360592787
382.74686624000003,-0.7152125794524654,-0.9965506006288918,9.425737755253074
383.24832227999997,-0.48448729475882013,-1.018039418783878,9.61528228728377
383.749779,-0.5535588869970542,-1.0692041112870705,9.544230031557937
384.25123526000004,-0.5297303661396061,-1.736689430822188,9.588675232985288
384.75269114,-0.4973318582011392,-1.961802947214221,8.282797718731114
385.25414737200003,-0.7443163088447495,-2.044346230690633,10.245648013551415
385.7505888795919,-0.5383051425228713,-1.9695400290613898,9.918913463030094
386.24703056,-0.17224347569748674,-1.95389692843626,9.518742847648289
386.74848732,0.0459919510677253,-1.983955513026354,9.616919609810296
387.249943632,0.15400567731371376,-2.038307940137182,10.003824924964125
387.75139946,0.1561818132235583,-2.0188266018303636,9.683702814595312
388.252856028,-0.016157149288112155,-1.9928211386401748,9.926936204062763
388.74929812448977,-0.14404153381413745,-1.6595217055576201,9.574742877158094
389.245740358,-0.14646380578126053,-1.1584134498552812,9.965328506904742
389.74719748,-0.2016160235183197,-1.33852018516177,10.096127527245834
390.24865443199997,-0.20513125062219706,-1.4436217310448447,9.951960801148914
390.75011168,-0.36310860919788646,-1.5142411909107123,9.89255542408561
391.25156873599997,-0.17418978620391548,-1.0536846491434124,9.889225700463415
391.75302538000005,-0.18070269364878627,-1.0281450399952563,9.807212176988585
392.24946754897957,-0.19710718482566963,-0.9217894712821039,9.84667340688076
392.7459096,-0.43932248744694613,-0.527975982762252,10.045792753926932
393.247366298,-0.4570064354236857,-0.2694053861847753,9.848006981881833
393.74882326,-0.278287844005239,-0.1160170240805014,9.973308663625636
394.25028004,-0.23273123102395327,-0.2617439082723144,9.995074895574458
394.75173692,-0.15685369276006192,-0.6056851652558831,9.81701855758317
395.253193936,-0.13608966850913143,-0.6722291888572686,9.92195734139216
395.74963610204077,-0.15757054521854658,-0.6330605512959141,9.7509605700813
396.246078838,0.005248519307245121,-0.4781822440135432,9.797486653365238
396.74753652,-0.030978375570059304,-0.3420727541895927,9.94516522023118
397.24899410600005,-0.14630841607585102,-0.3719167394062908,9.779435819095395
397.75045182,-0.22053725276209074,-0.4664295272307591,9.883065761481525
398.251909458,-0.29811883929467986,-0.6334840774532808,9.8248744305315
398.75336662,-0.3853170986907161,-0.5750978776288591,9.826898370636126
399.24980990408164,-0.29095789719880727,-0.6590121381721891,9.728429580559833
399.74625372,-0.25966304425885456,-0.6427312531741574,9.787489985881235
400.24771159999995,-0.2611845624941956,-0.6065654647576926,9.74121751877312
400.74916934,-0.2853818528542355,-0.49138746318999454,9.828499805022773
401.25062696000003,-0.2551912508006772,-0.4915061128136239,9.931684734420191
401.752084422,-0.24649575435712073,-0.5008598377168597,9.760824308861972
402.25354186199996,-0.23413434039289793,-0.5687443361292231,9.8355260993456
402.7499843489796,-0.2228402045268929,-0.6324357896433939,9.846334209000672
403.246427132,-0.22694721685020539,-0.5927441382655403,9.73022257497504
403.747884482,-0.21837131972993432,-0.6417204330385852,9.892266209188163
404.249342156,-0.2377461771869632,-0.6534061186564508,9.843667456138578
404.75080034,-0.2158562505270358,-0.6626902060109132,9.706519719224655
405.252258304,-0.22315745447786653,-0.6871871964752867,9.922781461666785
405.753716462,-0.2390584426032792,-0.6297728900399077,9.512118604611134
406.2501601122449,-0.20392123752744207,-0.6893980488439727,9.966490777658578
406.74660334,-0.22223927290171785,-0.7333931935875827,9.899262506797607
407.24806163200003,-0.2779059447624549,-0.7553526135742442,9.86322179090643
407.74952028,-0.3741292768615059,-0.7829630094420382,9.67183548810333
408.250978792,-0.25349318838649193,-0.8361741300742986,9.900244477983001
408.75243724,-0.21452034136045345,-0.8729933382043329,9.811678721131559
409.253896088,-0.2264354268194939,-0.8798099482781584,9.69210652412127
409.7503406510204,-0.24639177079221067,-0.8321920009631004,9.922610642980482
410.24678523,-0.2883624603460543,-0.8079044753554026,9.802250294181919
410.74824508,-0.32299216730327407,-0.8448231845294291,9.850417805196399
411.249704602,-0.2879852472856225,-0.8811308722552503,9.761204255347911
411.7511644,-0.28503401448883225,-0.8969026054112078,9.754749159882515
412.25262426200004,-0.3237805451849838,-0.8893317122630351,9.84172351580134
412.7540833,-0.4227075254587126,-0.8866972702240031,9.781022021189681
413.2505289102041,-0.3617135124147356,-0.8760737210782995,9.731752839410568
413.74697483999995,-0.2814513589272021,-0.8813551838753675,9.772125995707324
414.24843526999996,-0.2618269376271523,-0.8869356470307502,9.901808048219374
414.74989628000003,-0.2817622385355268,-0.8826647388632228,9.83573953954771
415.25135689,-0.4570080937989779,-0.8617449251957235,9.7558261280051
415.75281714,-0.2927209999323555,-0.7183281063126304,9.643579122431392
416.254278018,-0.21236564855117354,-0.48028762856914503,10.027089225291919
416.7507243489796,-0.27183651853753193,-0.2668057955259535,9.79158779930192
417.247170846,-0.20617792756499928,-0.20531271525721956,9.916896464607433
417.74863230000005,-0.10690313179887852,-0.2970109092093425,9.785174403597765
418.250093528,-0.2257920592207796,-0.537913206799156,9.785806184403373
418.75155508000006,-0.22553662086728962,-0.7040241058890396,9.658928187059537
419.25301638999997,-0.21069945721868222,-0.7742523480805257,9.890150670075165
419.7494626530612,-0.27133022816025815,-0.801338180661659,9.99482154060651
420.24590945999995,-0.24565769990376707,-0.791268689831649,9.648964584726455
420.74737176,-0.24898166070955813,-0.7784449566978722,9.789999603987226
421.24883342,-0.2532570625039454,-0.7295895457871288,9.836219447786029
421.75029454,-0.24180880504473415,-0.7255111549553768,9.81193627528118
422.251756144,-0.4573085187359584,-0.71018239219176,9.63641027544854
422.75321798,-0.39415018413738645,-0.7699434342249887,10.084045127368174
423.24966486938774,-0.3218613224021243,-0.7450887860309848,9.68724172403402
423.74611178,-0.22720106643633542,-0.7611607285616312,9.74001448480518
424.24757347999997,-0.24843743738927987,-0.8020513338111925,9.789208893731935
424.74903498,-0.20425829382160748,-0.8336125842303252,9.738216005979302
425.25049696,-0.3892099338134472,-1.1561711987474255,9.9184461462096
425.75195959999996,-0.7016217899058202,-2.2086846489772127,9.692477479829648
426.25342195999997,-0.44468106480007336,-2.6052998391195374,9.673266844740871
426.74986936530615,-0.3021601818081566,-2.6062821585239213,9.801287713952242
427.246317422,-0.37643384137475056,-2.5920703340208706,9.660239654648983
427.74778008,-0.3114709761392564,-1.8803050701923336,9.877834037902794
428.249242962,-0.2845032624032269,-2.1385719294607877,9.402590258290381
428.75070594199997,-0.7760636204546443,-1.8592494558403068,9.996280796593307
429.252169064,-1.0576853673528086,-0.8851745474372598,9.59613262292178
429.75363169999997,-1.0213424878150856,-1.3146558238245376,9.794014228251903
430.2500803959184,-0.9623009871944782,-1.1377918406632486,9.585727106068608
430.74653018,-0.815816932985214,-1.5139858514122657,9.77520113936544
431.24799378000006,-0.6179155331277266,-1.6811554703578406,9.786618420667521
431.749457186,-0.4408196053754769,-1.9288902374427992,9.811275037864517
432.25092096000003,-0.18660301819963704,-0.9136578864144548,9.842125095867184
432.75238546,0.07769600884848897,-0.8399746939996808,9.842597221919965
433.25384940000004,1.7508171645268578,-1.4493357088116356,9.790306976768134
433.7502978387755,3.2220678258364654,-1.100763557848268,9.594363801410518
434.24674732,2.836886264173273,-1.1514859219809646,10.016272156052288
434.748211696,0.9577968109942298,-0.7490598642683333,9.79043265027929
435.24967592,-1.740513795223124,-0.4587263005936745,9.726841047180201
435.75114018,-3.7362174585877854,-0.41778646705918215,9.692113570133982
436.25260457999997,-3.8731885043792653,-0.13376822583091746,9.664502333055166
436.75406880199995,-3.175703262388701,0.5769597435208097,9.790762143789292
437.25051857142853,-0.18709891351723687,0.9925672541250459,9.655581169924776
437.74696880999994,2.8713745680787195,0.587059833187756,9.961181075420765
438.24843314,4.051616009156249,0.3741425168714354,10.020251845615677
438.74989701,3.6303733483251484,1.23472066817563,9.946795508145554
439.2513615,0.3291633180171422,1.9161072011170217,9.714596577560815
439.752825726,-0.6207226534315847,2.20441050534198,10.075042896517514
440.2492757,-1.1775447621925894,2.2496479017918354,10.03402338921928
440.745726892,-1.4735584755234599,2.169331695512776,9.916181132859517
441.24719162,-1.2056482586025148,2.0404202554295883,9.79417424809707
441.748655536,-1.0709830420100586,0.052870198476020515,9.809109447310048
442.25012038,-0.9355324829935667,0.21196647320352724,9.900843997685088
442.751585692,-0.3733210235681003,1.2111558359653074,9.868926013878683
443.25305072000003,-0.3512200621638272,1.2570438991081558,10.030951121653558
443.74950119591836,-0.34139282136653687,1.3106430155303606,9.963324624400242
444.24595176,0.12819009852511098,1.2651879385086588,9.885845027629511
444.74741721600003,0.04748275499682162,1.2315649257908188,9.688361483407276
445.2488827,-0.22219479105303805,1.1678267439120558,9.93738463973104
445.75034851199996,-0.13760027591320145,1.1429956980361826,10.043212537211017
446.25181428,-0.16514725170231884,1.122547617386203,9.849495970851457
446.753279988,-0.11029664850786298,1.0046200424529808,9.882952018885355
447.24973145918364,-0.2844033500502593,-0.31892800180194625,9.949822273955709
447.746182424,-0.14597799135285994,-0.12740486255624817,9.863136099382228
448.24764868,-0.012275552850549225,0.5131920370616266,9.841882493945196
448.749116296,-0.10085508375201462,0.6412733346332835,9.811509871140352
449.25058299999995,-0.31516657414836974,0.7185181817610009,9.833805075644467
449.75204918000003,-0.16892933002985852,0.687022889756424,9.802520421877958
450.25351598000003,-0.00694972146745821,0.6418471473284919,9.841042260587157
450.74996781632655,-0.10870511884554462,0.5773114552805977,10.298915022292706
451.24642015999996,-0.26053053825240835,0.6134111869732358,9.798177640547193
451.74788696,-0.1241094247865817,-0.22845526484795944,9.700570948636257
452.249354126,-0.26472848092455464,-0.8435913382314417,9.621413298146228
452.750821972,-0.2205538277951504,-0.14845346911207866,9.880094455117648
453.25228904000005,-0.18378728944984613,0.20583976444286517,10.031275973232123
453.753755792,-0.08730867832504564,0.24606539555146523,10.05537978701555
454.2502082816327,-0.04654654383303117,0.27676835818048184,9.705640275932153
454.746661102,-0.15344160828841505,0.28621747358052735,9.647019200562617
455.24812844,-0.20457806164738987,0.2593965301282484,9.973073566716643
455.749595518,-0.23541564391921227,0.26784888960975195,9.554875232365742
456.25106302200004,-0.3957565621276956,0.20689179489930912,10.15981567062289
456.75253086199996,-0.2634438981743738,0.22792160253525878,10.000221926874083
457.2539986,0.054339680525146115,0.19754890824696844,9.538233763529965
457.7504515877551,-0.006991038804546435,0.11825821442747038,10.015252771350104
458.2469048,-0.09040361599006752,0.14661844229291354,9.91964543918603
458.748372914,-0.2259030768367078,0.09931879026932572,9.934915969177602
459.24984098,-0.31315979335857363,0.08207380962278749,9.838810021308694
459.751308912,-0.2646672060018704,0.04777897307021161,9.566796338785261
460.25277697999996,-0.38007721611927126,-0.17910454981183618,10.10263095358709
460.754244784,-0.36639015731676877,-0.7578491048615141,9.633241479339349
461.25069832857145,-0.37749889545542537,-0.9541457383561073,9.931359466984636
461.74715205200005,-0.32773023746534063,-0.9943294221889717,9.826882973228836
462.24862044,-0.10911476751085092,-1.0355088169632338,9.614826194460816
462.75008925599997,0.2556318241437443,-1.1254938700612833,9.958304959164199
463.2515578,-0.3168850850038887,-1.0679609141671251,9.556936845362067
463.75302632,-0.29766652484867245,-1.1928818434998498,9.887305452901261
464.24948021632656,-0.39004251178592286,-1.8316677609386347,9.705137734148883
464.74593350000004,-0.33984890051616334,-2.79282272298127,9.62928231028028
465.24740226,-0.5188851785023497,-3.4939426095468336,9.631317884776054
465.748871908,-0.502515928393764,-4.076634315628629,9.70086423509255
466.25034086,-0.17092064575222438,-4.596910271425411,9.439956893424403
466.751809934,-0.3890143980605953,-4.780204563708685,9.701808324411267
467.253278982,-0.37572692054312684,-4.988901755777658,9.43401452485093
467.7497326346939,-0.13525349914520968,-5.187049669973238,9.66275071892953
468.24618686,-0.6207151886777432,-4.5999769726767425,9.525771205507127
468.74765591199997,-0.33856181065635726,-3.970643345551871,9.41529924521113
469.249125,-0.289555414896588,-3.699051409884206,9.734501349564319
469.75059460800003,-0.0804913889084568,-3.7219098892775007,9.651400786981572
470.25206404,-0.35795824306119856,-3.890719612425093,9.496682766977184
470.753532996,-0.22549975900097938,-3.2919840390635597,9.945233610024054
471.24998798367346,-0.2844726411603392,-2.3064381048148084,9.638848812132553
471.74644373,0.4853258410502867,-1.8995225042469612,9.692442257441527
472.2479136,2.439133282770175,-1.096950404045763,9.76844105200874
472.7493836,3.3482628551184304,-1.5765129062601166,9.824194618813738
473.25085359999997,2.4531509322215737,-1.7362315992529351,9.617448178340343
473.75232350799996,0.10674647551351338,-0.5259652944437027,9.868887213333535
474.25379352,-2.494645758534732,-0.4161967457575741,9.80390689601216
474.7502490632653,-4.35515564283877,-0.5489211260694143,9.912511228555108
475.24670449999996,-4.202031916466578,-0.27519445869163195,9.509259674183692
475.74817391,-4.512549167350188,-0.32818612511459255,9.349944769946557
476.24964412,-5.387185074601996,-0.8186519890878793,9.962012790830888
476.75111470999997,-5.385035355277738,-0.8299792506252666,9.44175914137711
477.25258516,-6.011463983194224,-0.9264026595159737,9.382241010858888
477.75405586399995,-5.6551690731897075,-0.5007611577856076,9.481959822872064
478.25051171224493,-5.47212557789906,-0.3602362199514741,9.445885908991919
478.746967732,-5.109062919004181,-0.12861284031664963,9.608903603258952
479.24843846000005,-3.401082744725646,0.31394167630074105,9.657998528257442
479.74990965999996,-1.257006447190076,0.3477781103089291,9.532703751774507
480.25138066,2.1352113399345334,-0.30424229521600393,10.028124923993849
480.75285154,4.224379119301893,-0.4111191067988959,9.90479706383534
481.2493079102041,3.979479214170501,0.3884657003486142,10.04558177035904
481.74576443,1.7023301474414236,1.5988742165315712,9.874258315805745
482.24723550000004,0.8364421202280724,1.7759323202103576,9.922227088087686
482.74870583999996,-0.019831337468604646,1.2562063525737295,9.896534751297164
483.250176902,0.018373995844852088,-0.5885975926298578,9.936458680250096
483.75164855,0.035387874052618735,-0.7108001002137913,9.756058853562427
484.25312016000004,-0.09511154068144308,-0.5448427998349817,9.823405433288805
484.74957707346937,-0.09836928772707616,-0.3713907292951364,9.818449062075695
485.24603424000003,-0.12666441561715946,-0.4057749680104944,9.707188697897331
485.747506666,-0.17107696189228214,-0.38093661358673264,9.915481649353143
486.248979042,0.05370949558574638,-0.41637986506389685,9.773437756391333
486.7504517,-0.21912870016025693,-0.45828583202503426,9.806431880224514
487.25192458,-0.07416433204111174,-0.3887646558345845,9.848188540397082
487.75339747,-0.15182241964470122,0.2748540610477838,9.810182306889585
488.2498560020408,-0.13962423627704726,0.11484434804335864,9.812952493022493
488.746314712,-0.21700308657299164,-0.05100747248423467,10.5680978751028
489.24778842,0.1742722939759979,0.14246584501847237,8.92451394137921
489.7492628,-0.14350749857042314,-0.0007156560022170313,10.001015859116393
490.25073688,0.030227590044714706,-0.1738778420630115,10.155656397786558
490.752211216,0.006457943402833588,-0.5778259755463072,9.670202235172566
491.25368560000004,-0.520753272139069,-0.7886933778021059,9.854117026523951
491.7501445591837,-0.24258841773881287,-0.7651229011192948,9.787827232750109
492.24660446200005,-0.06807613029497285,-0.6917879782954717,9.692765516724837
492.74807943599995,-0.18383552381602436,-0.6862869258045514,9.90247985955475
493.2495549,0.050961649145305606,-0.6550162443444849,9.786493557537984
493.75103068,-0.036700148571162806,-0.6500066368417329,9.742959845538254
494.25250646,-0.06811159707452605,-0.6942153914820143,9.863859563411484
494.753982516,-0.32452505787712516,-0.7954604621909316,9.8541943446831
495.25044382448976,-0.17667407947011166,-0.8186573989530559,9.665955205361113
495.746905062,-0.057960560857328536,-0.9253726599861466,9.87896252805782
496.24838146,-0.012208457156107582,-1.3917606003195604,9.700966534279754
496.749857756,-0.19667018580261378,-2.2508679348254566,9.71771870994848
497.25133436000004,-0.24987784665518195,-2.5170295134715963,9.763173720250023
497.752811296,-0.3844150519798212,-2.553292386178887,9.789191963770644
498.24927344489794,-0.023355789108565554,-1.7058675854802576,9.602726684789353
498.74573590200004,-0.03439104994756963,-0.9523183912602126,9.894927264642432
499.24721342199996,-0.09692909382706637,-0.8444611386990851,9.842673884605203
499.74869167800006,-0.06316510939232256,-0.676773218209374,9.734600778912029
500.25016998,-0.1633255529202021,-0.7075012004641912,10.263173523384229
500.75164852800003,-0.3195933228965587,-0.2242976684581353,9.293158959743925
501.2531271,-0.0572356608682005,-0.07927323130023009,9.548978289210956
501.7495902714286,-0.08894792577851453,-0.07590648707983091,10.298785881413185
502.24605415999997,0.003983045017952211,-0.2912042885122912,9.78187492694866
502.747533166,-0.16162707090374326,-0.5787167372250275,9.764929414584296
503.2490123,-0.14884515718021224,-0.4010234002543357,9.881778412995807
503.75049183199997,-0.14350502614537766,-0.2473341467560212,9.856620041358823
504.25197148,-0.18991659107190417,-0.13648886921788406,9.81801957288253
504.753451374,0.014986778414543293,0.057689129223632056,9.841943982825864
505.24991683469386,0.07676029740519079,0.2825875013417987,9.782489923029178
505.746382924,-0.020969204310700203,0.5587603311161738,9.876914612540038
506.24786368,-0.0073316435665329695,0.40803216047531193,9.870810130325788
506.74934465999996,-0.04071548267493866,-0.24483649479089195,9.969662958003545
507.25082574,-0.23189961022113534,-0.7677298132875516,9.713917759231274
507.752306434,-0.22923593193321842,-0.7799153664211451,9.784332916249065
508.25378788200004,-0.13015975776691216,-0.6250375829651413,9.827545732442061
508.7502555448979,-0.2008001163476125,-0.6154260994622401,9.812893217705486
509.24672282,-0.23882504239295715,-0.6165945302930425,9.804924081523003
509.74820470400005,-0.1416129846811075,-0.5810964056006342,9.770996021652634
510.249687,-0.17759804503862386,-0.5152798029099565,9.858033981344862
510.75116969199996,-0.23412376672156643,-0.5148164543117066,9.980436053012246
511.2526524,-0.1367624230316213,-0.48454559017647947,9.747611701517803
511.754135458,-0.1615270369033275,-0.6362026956956024,9.798543881408293
512.2506035612245,-0.15265909526282415,-0.6015383053638981,9.654220799763488
512.747071428,0.12407165129190119,-0.6324528530106966,9.929999483445378
513.24855426,0.12965600744582859,-0.5031827229495408,9.674319436341666
513.750036968,0.01644659917447988,-0.4793141768123476,10.126456532283244
514.25151998,-0.27239881705090385,-0.44925725239182135,9.731838115342441
514.753003144,-0.15911912451149413,-0.3727752451811319,9.055568515666947
515.2494716734694,-0.24889379847799786,-0.48752191894077435,10.72187203566055
515.745940808,0.09374425685021491,-0.3548441531133772,9.620050846262968
516.24742456,-0.30248886994176166,-0.5404913844849711,9.747884083874915
516.748908028,-0.24465591564674283,-0.6369272883416567,9.856324433346416
517.25039176,-0.32630284061233406,-0.6349342228177508,9.730314150133497
517.75187572,-0.294270077188845,-0.6746495207554409,9.834842898094493
518.2533597400001,-0.13605282539854907,-0.6520266204462638,9.801086807189808
518.7498291836735,-0.36726037245081117,-0.7660198072578657,9.725391965105187
519.24629852,-0.24123764897733121,-0.8141537171517678,9.931425264603691
519.747782046,-0.32967356563934513,-1.1135887122955288,9.831288444138215
520.2492661599999,-0.21779235562378407,-1.7539804906464385,9.75327285325665
520.750751024,-0.21832539693382458,-2.0356961337372423,9.686721403303313
521.2522355799999,-0.31694630319170713,-0.9772723673597373,9.838682512887994
521.75371939,-0.26919739616383487,-0.7173454957138858,9.681288232183876
522.2501890061225,-0.39604078697862005,-0.7163024491884964,9.818210992064225
522.746659906,-0.24348590529753047,-0.41987797139804456,9.946083285398274
523.24814484,-0.21824476917237992,-0.17592065455502973,9.989333944477831
523.74962923,-0.2429172424063612,-0.05618581982040486,9.103723487081906
524.25111402,-0.2568646952752695,-0.339539725109612,10.659949253672467
524.752598896,-0.283825828240515,0.03140932478839053,9.421845086207107
525.25408386,-0.14735025767564353,-0.15532652574878536,9.859598592310496
525.7505538632653,-0.20576703144699088,-0.16845727778360398,9.920361788421278
526.24702408,-0.05321340813765704,-0.26402233725631324,9.887227344973223
526.748509546,-0.24941435352467003,-0.45262957526677455,9.873693437006068
527.2499949,-0.25675521833024667,-0.6498481879668223,9.655425576002495
527.751480078,-0.22188813661394757,-0.7546433730871652,9.820497505838405
528.2529654,-0.2348842648943827,-0.8795505795954698,9.844518935117744
528.7494362,-0.30445688418275696,-1.6132679335297002,9.698456982709635
529.2459069,-0.3653111524506078,-2.250023102772231,9.739749747346826
529.7473917880001,-0.2571669067827399,-1.1944330403482288,9.82067401286001
530.2488773,-0.2644760739847294,-0.8440610681159018,9.813245060323483
530.750363452,-0.2636552703140353,-0.6198200309363567,10.432773071633681
531.25184944,-0.34372386311923925,-0.05356120826490729,8.37164072677588
531.7533355840001,-0.2935014198601706,-0.046733988658107045,10.778928162970908
532.2498068285714,-0.2285583301768958,0.2577515729729648,9.646921502269358
532.746278302,-0.21249100447907956,0.19296953949131435,9.964002577847872
533.247764644,-0.21023180214858045,0.33448734666370056,9.85763190314376
533.7492508,-0.13952818721831375,0.6383297974662974,9.86949142543852
534.25073726,-0.059863241489510555,0.8825682684892384,9.92257647008264
534.752223652,-0.1949278210554926,0.8182105333968949,9.870446826866228
535.25371046,-0.18120576781978404,0.7075826651877172,9.86926919135933
535.7501829591837,-0.1403773728171498,0.5195662314422601,9.866021138316002
536.24665534,-0.2821678714840138,0.03408788961936842,9.868601204234029
536.7481432,-0.30296232770761145,-0.5482924275338884,9.815771042332727
537.2496308,-0.2995214916313762,-0.4494746346023842,9.776326940402638
537.75111854,-0.3309781610783367,-0.5020862405798042,9.852721789377606
538.2526063199999,-0.3435107638256171,-0.5978613587137116,9.806762135280847
538.75409302,-0.35006899357493787,-0.7002417885733458,9.765992444539876
539.2505657428571,-0.2777871669782577,-0.6897229385651035,9.81995512233587
539.74703912,-0.19948903849159386,-0.6767528749656193,9.830625134604233
540.24852722,0.03548691276396289,-0.5888367270033953,9.906470662708406
540.75001526,-0.40238269692098444,-0.6203179630997759,10.938673057020212
541.25150344,-0.2909718176912099,-0.2669184408188929,8.512298736911482
541.7529916799999,-0.2947171650722552,-0.32958346445737463,9.841582810545228
542.2494648734694,-0.22946856219359474,-0.4831514196978643,9.915377347133681
542.745937784,-0.3066865584178611,-0.6361798531017184,9.775792957492161
543.24742564,-0.35166500497852565,-0.6910839983487002,9.916587914816283
543.748913166,-0.31168347967426885,-0.6478815775674194,9.715034439479888
544.25040086,-0.2627329918794541,-0.6482053500891903,9.02019882094981
544.7518887,-0.16503671791904728,-0.7630498789008361,10.627529128824577
545.25337648,-0.14221963997410458,-0.6991413379717498,9.890645262288231
545.7498500265306,-0.16244468861401673,-0.6612246427975829,9.77345159183073
546.246323182,-0.36956356282127506,-0.5802660435844761,9.807975037925308
546.747810964,-0.24483493605793455,-0.4827989030742615,9.731348851348871
547.2492989,-0.29011054822931776,-0.4247457693921237,9.726189026610015
547.750786902,-0.42586953832951535,-0.4077860439703169,10.055666485086705
548.252275,-0.3155754470400077,-0.377698101817991,9.724064426509806
548.753763064,-0.1818787369618681,-0.3977698895556873,9.817438124913544
549.2502364653061,-0.3520920770019411,-0.4697966593230172,10.012162712017062
549.746710272,-0.19439908000612205,-0.43995219364148186,9.755374089620966
550.2481988200001,-0.17139300045492345,-0.4631626990992866,9.734684803072806
550.749687574,-0.2861123140487378,-0.5071092761162234,9.84008423969696
551.2511762199999,-0.16601437514741804,-0.4984754564922895,9.827294396963055
551.752664392,-0.20914126320847873,-0.5298079968478402,9.784537550601582
552.25415286,-0.09218618027545325,-0.6631025372808262,10.829614517973093
552.7506268959183,-0.23626529940722932,-0.36631710562879677,8.46190184330908
553.2471007400001,-0.21710342600739554,-0.4266757890651883,10.096643512887223
553.748589552,-0.045702477418024495,-0.40951657367933036,9.940837135127055
554.25007836,-0.13395558191750534,-0.41561530682623116,9.735337956345731
554.751566552,-0.09159680024956557,-0.44728665719258864,9.826453006672516
555.25305534,-0.14357390070359835,-0.5379992577081588,9.904367746569271
555.7495297979592,-0.15750512313527043,-0.5058690218915975,8.59523578480009
556.24600416,-0.16442181101702125,-0.7808085818336502,11.075628449821496
556.7474934,-0.09726316476919361,-0.608079528864831,9.679467187220736
557.2489826,-0.1359246399537029,-0.6070218920128648,9.83862618087311
557.750471804,-0.24167342280475387,-0.6054840640423793,9.925494526876948
558.25196116,-0.23943424649978742,-0.5846730462817389,9.680573551380684
558.753450484,-0.19910968898597062,-0.5979285198120328,9.81650232164203
559.2499250755102,-0.5108230076768356,-0.5809469566997184,9.794078705080542
559.7464000240001,-0.9523716620236743,-0.5734497983856918,9.920237939036863
560.24788972,-0.40980801823697705,-0.5760154877857717,9.794164625991728
560.749379084,-0.2678994998951714,-0.6042282900203486,9.856493718951082
561.250868764,-0.2497199353656392,-0.6671134344789155,10.408604025974185
561.752359004,-0.07682424536365577,-0.6129644981264913,9.459200695163531
562.2538491600001,0.17816104374529015,-0.6355523834550536,9.226673569545525
562.7503243877551,0.1758834340040701,-0.8021350309492956,9.537113923109485
563.24679984,0.119654601364193,-0.8233151482092415,10.232411628983497
563.748290434,-0.0803111667415378,-0.9022525754130737,10.075886608049025
564.24978104,-0.08344063525356686,-1.2009459027132623,9.659400114025603
564.75127174,-0.2964861787015904,-1.6650249076442636,9.73079075112755
565.2527626,-0.21703977270854857,-1.6767321020152572,9.772572053678466
565.75425376,-0.12200775514808114,-1.6708290323564674,9.77029084306308
566.2507300714286,-0.058963594659163385,-1.6766730085613808,9.794748277193138
566.747206238,0.26830998290553426,-1.7346222574041263,9.809204160551875
567.24869756,0.15800393294311393,-2.5779668658332513,9.656988167915742
567.750189018,-0.16607050328407705,-3.2954853793678573,9.655463132632438
568.2516806,-0.17801500349631869,-2.8674363249194585,9.62951659586745
568.753172454,-0.2681113929768757,-2.661220150157733,9.714325810519542
569.2496494857143,-0.2214361390004224,-1.185805755575044,9.851929368024557
569.746126648,-0.399460077330563,-0.521738119071076,9.76719158086954
570.24761874,-0.36604925879731404,-0.05279557721956211,9.833906721857433
570.749110598,-0.4114382162858877,0.013507901847770579,9.830962510347456
571.25060274,-0.4425732112004897,-0.09135530161399837,9.797520661512536
571.752095396,-0.35847733691392997,0.006335348664741315,9.847812414486318
572.25358794,-0.058374700057101395,-0.021084467549221622,9.88306145594345
572.7500654061224,1.0581758962885832,0.07999943597785016,9.909255647987393
573.24654302,1.7608453937186863,0.05994439851999418,10.041437448334516
573.74803604,1.8700315891518742,-0.11146513072595232,9.968203265915994
574.2495288,2.086640977035058,-0.9345938525126165,9.7307062403139
574.751020962,2.179641470757502,-1.1220111342422507,9.643790679592918
575.25251356,2.503733323218945,-0.36553588994904346,9.72605423506095
575.754006716,2.1860718517921156,0.38696069732294913,9.845988653253642
576.2504847428571,2.2381196439919626,1.0501009962360763,10.038597075796892
576.746962114,0.6395639382499871,2.041444975264243,9.882068925443717
577.24845478,0.13923124526334946,2.3007024277529364,10.043271023876033
577.74994798,1.1556592883137253,2.3158326353610783,9.91146764958651
578.251440982,1.2054034972771206,1.3855283778947243,10.220504926857991
578.752934344,0.3753521529821519,-0.664037936345669,9.614672512725262
579.2494126204082,0.2501993134527998,0.9200214976765531,9.803831451378878
579.74589254,-0.17053649879398425,1.168333845185004,9.9841456879275
580.2473864,-0.15211379750153203,1.32310134099004,9.974206108845715
580.748877656,0.03608437555289836,1.400570839701421,10.006181770816873
581.25037018,0.24788508536549958,1.3778198798213999,9.919808823505107
581.751863552,-0.0927068589194417,1.3678569136946934,9.809446180389802
582.25335704,-0.25842853733157023,1.2776442975566955,10.07997572301499
582.7498356714286,0.09983782000079415,1.1449478037097898,9.588289460403647
583.24631438,-0.1649401716336635,0.3580652724352411,10.028135547036944
583.747807824,-0.23609658400299668,-0.7933705224488301,10.053795785580501
584.24930144,-0.08937995564016327,0.332367250123565,9.84037809632571
584.750795488,-0.28235671502707216,0.5434980851392452,9.799655417317682
585.25228942,-0.31914471964412205,-0.22925625226400342,9.55092421838258
585.753783104,-0.3419985658955993,-0.7180168097949385,10.787806876313358
586.250261989796,-0.30620885600744235,-0.1988260511239293,9.625676453224738
586.7467407600001,-0.305858846350222,0.12154755717051886,9.336639138292332
587.24823472,-0.25403599009271804,0.13755719790868257,9.914814703282131
587.7497290800001,-0.2966587785605028,-0.02459454142038444,9.677288492480757
588.25122334,-0.2718573999786937,-0.16567676043851418,9.943485091209801
588.75271754,-0.22467548191278378,-0.22861506331276413,9.576732614086277
589.2542117600001,-0.21203286638170774,-0.3331332687242982,9.656972202313126
589.7506909081633,-0.3194941457476869,-0.3355266455715489,10.035098317430933
590.2471701999999,-0.5978811588867213,-0.36376591728505964,9.950945926295539
590.7486643,-0.470757603023781,-0.34815753592478615,9.876343445618279
591.25015854,-0.24461631288256513,-0.3435950599171057,9.922592472063961
591.75165352,-0.11905555173914227,-0.6183429058236929,9.41937736148886
592.25314824,-0.5373030607598333,-0.6478538620542034,10.283267070360296
592.749627467347,-0.2533289866164882,-0.5651323027192287,9.474529264143461
593.2461069999999,-0.2508734309426914,-0.6492327365948388,11.070630273406309
593.7476040500001,-0.12668536130504474,-0.13720445811004411,8.236423495705042
594.24909984,-0.41664637382306535,-0.10139615189863932,10.189664206001446
594.7505925,-0.4194245003875735,-0.16522291305942452,9.99580984145981
595.25208648,-0.09379242138600247,-0.18028353441521086,9.69280748179988
595.753583562,-0.35374858306426177,-0.1877329247664184,9.906307609585214
596.2500645489796,-0.8198507102569441,-0.18240747045498404,9.874541095680582
596.74654298,-0.3978513863275529,-0.2139969605996127,9.795646708317342
597.248037282,-0.3216771304410444,-0.5532471259084072,9.79203801378026
597.749531702,-0.2482232989550694,-0.5556361858087652,9.973476584606235
598.25102648,-0.17859723036694308,-0.5750368507119703,9.650822414606365
598.752521992,-0.2622080222308197,-0.6417130577927387,10.231063646318427
599.25401724,-0.3441576495800024,-0.6064847000140103,9.470859123010893
599.7504979510204,-0.3719356453806323,-0.6043865405532156,9.822477018008664
600.2469784,-0.24645567710746544,-0.5848283814983656,9.332266339259435
600.748474824,-0.2522242429760215,-0.669199198708844,10.047422831639873
601.2499705820001,-0.21446699556307108,-0.628825545982692,9.841160668352225
601.751463768,-0.16955786068206916,-0.6207141439967405,9.776282830425314
602.25295798,-0.20276337628521027,-0.6151229357356098,10.080292234992404
602.7494384367347,-0.3906221026042004,-0.6588405710891646,11.043870767130443
603.24591872,-0.33517184765789027,-0.41622169031528217,8.040713199737283
603.747413876,-0.3046017498524144,-0.2188364117000783,9.973174240761566
604.2489089000001,-0.2535710443782175,-0.10676569433365268,10.352875090834198
604.7504035960001,-0.40050297255293765,-0.17798925261944223,9.6285166320684
605.25189832,-0.41583622435468715,-0.5034408531936608,10.166587918819424
605.7533929360001,-0.5255286689113668,-0.638020719684648,9.941518326372215
606.2498726367347,-0.4165403844817128,-0.5734043743038675,9.382398125263393
606.7463537660001,-0.3495676103270757,-0.6538288333265971,10.038782786840384
607.24784916,-0.3870900693482397,-0.6010640568137117,9.774470355674213
607.749342536,-0.34255758961918714,-0.6557131847363649,9.984799847664567
608.2508365,-0.5540545421065152,-0.6814588646403302,9.68263883488418
608.7523313300001,-0.31964389721688946,-0.754422140189724,9.6870445079113
609.253826002,-0.2352914067769716,-0.7555668452934831,9.70036684734299
609.7503049836735,-0.2682833818658611,-0.8021566707041189,9.902665779660225
610.2467842,-0.6396371281178808,-0.7879736068019402,9.934395925324127
610.7482786659999,-0.5174274335256364,-0.6915514358686824,9.064819015299259
611.24977302,-0.6717639661131863,-0.8665597704319004,11.127120580132758
611.751267664,-0.5713106802954455,-0.7127728957172604,9.937593853237745
612.25276208,-0.09312897351343129,-0.6208512565112592,8.852929105174587
612.754256128,-0.3323828073425919,-0.6882016305621961,9.6724478648019
613.2507353244898,-0.29638828713133997,-0.6286793574362427,8.287713544382074
613.747214864,-0.3542666396373613,-0.7462992857538593,10.659247255988555
614.24870924,0.002914286075946103,-0.6852550739150658,9.737674321923292
614.7502030640001,-0.14189695824157897,-0.6476837383817866,9.712920802860129
615.2516971,-0.10674113421145964,-0.7625451981022714,10.572378883428971
615.7531914919999,-0.05533007035729251,-0.8316517494676448,10.146471072680562
616.2496708959184,-0.1298219292077121,-0.8543299096541436,10.029856807824004
616.746150368,0.004590753814425128,-0.8456093852930121,9.57417514170566
617.2476447,0.03724850544975125,-0.932897947225027,10.009453485550948
617.749139072,0.30716130846539624,-1.108795287689765,10.410584248844586
618.25063332,0.7186413605445554,-1.821156505052656,10.261915422380516
618.75212711,0.1593634958166206,-1.2879975779959458,9.808929025991908
619.253621,-3.021492664228411,-0.3204773244472471,10.061562252375335
619.7501003877551,-1.6223889936864273,0.2306807905258284,8.727214509523535
620.24657956,-0.565081420361745,0.02247731859299135,10.214268729351929
620.748073248,0.014155305555994082,-0.33715528819831986,9.107307001567818
621.249566962,0.25663153734271316,-0.652006487179048,9.56154905808122
621.751060892,0.03777823570422691,-0.7061065216648308,9.930721307763326
622.2525547399999,-0.5560357611285712,-0.7239573681089446,9.401803709865263
622.754048282,-0.38443799781637766,-0.8869999060246546,10.402416457623831
623.2505268959184,-0.41844078387822203,-0.8832485041855924,9.791653777361281
623.74700526,-0.030130855278217558,-1.4004387255961346,9.757156409338853
624.24849868,0.28595570094609046,-2.2478449825064626,9.843745485084568
624.749992582,0.39390636843682203,-2.3205255181938274,9.718506917147279
625.251486224,0.8377058335247709,-2.2531909959534775,9.789196457400504
625.752980552,0.43684108634853386,-1.9264398538269996,9.644766679623332
626.2494594387755,-0.2171813832447577,-2.0035162270291904,9.614012158027142
626.74593724,-0.7874879801154819,-2.0515234137173333,9.703073099919363
627.24743014,-0.8478522600731049,-0.802382294112667,9.83536214423406
627.74892436,-0.7902300256940822,-0.08858936006038995,9.790755555248316
628.25041802,-0.573462375773049,0.12212405501301005,9.868304438208321
628.75190982,-0.0369325752669178,0.3368406170497431,9.786461356242413
629.25340208,0.021616582423413674,0.3268388028018549,9.889793187496327
629.7498803795918,-0.10535963801822011,-0.7601431541226807,9.85102445541955
630.2463585,-0.15333640243192076,-0.9482543960629003,9.90103887481478
630.747850786,-0.04660053195790909,-2.1967465729805316,9.747822191930545
631.2493432,-0.3408914068582904,-2.8295204253058035,9.641530143061187
631.750836236,-0.42274322499628353,-2.2251083339399527,9.627832394368266
632.25232906,-0.2525402235514125,-1.940478086268692,9.80372200942137
632.753821356,-0.2459597109792856,-1.8375161841678658,9.619347870124876
633.2502986408164,-0.054318888004707015,-2.109738163736497,9.731912241139907
633.746776006,-0.5161402289261765,-2.261974260099902,9.754383063033472
634.24826812,-0.5865114984710713,-2.426413014511593,9.70729561294018
634.749760044,-0.42755745530570577,-2.4002575669028654,9.733079920747132
635.2512518999999,-0.35496149897040497,-1.9918902484431387,9.764733561799622
635.752742802,-0.3095497322865185,-1.203868899710618,9.817702246292036
636.2542338999999,-0.21592196001765615,-0.8738563422975385,9.789894181414967
636.7507106897959,-0.0256735158991749,-0.8039803058242123,9.764744593946645
637.24718726,0.07489283328279013,-0.7749905620737961,9.7995751255823
637.74867782,-0.550184441860122,0.0811306469380073,9.906595445515618
638.2501684399999,-1.5257705348719568,1.2004541852991164,9.929309478177025
638.751659938,-2.0115029038040793,1.7899083717638005,9.877788808016188
639.25315114,0.21214255827167583,1.1340876955055637,9.837191964417016
639.7496265755102,2.6171624814385765,0.7768921326114637,9.844905256733245
640.2461021,3.2797039370556376,0.29675022427238074,9.794521189934791
640.7475926,2.134281936288362,0.1997830318048124,9.753023336498535
641.24908312,-0.7253644868342944,0.2198335011652193,9.876140182133593
641.750573822,-1.7600876235317204,-0.4500022082272579,9.743395172430246
642.2520645,-1.90821112753714,-0.46881083931442086,9.802213764625506
642.7535554479999,-1.8027390021849692,-0.3869066035677705,9.882704996431833
643.2500313591837,-0.6709254871038255,-0.34080474740245487,9.716772048660133
643.7465082399999,-0.26606602091317416,-0.47243091748182126,9.845983855301562
644.2479997,-0.025269695126915744,-0.6928473889938845,9.898828031037745
644.74948916,0.19784288212042042,-0.38618067941498374,9.844167266794173
645.2509790600001,0.30063568173413424,0.0036546722176495692,9.881959286642347
645.7524702000001,0.3150244189002366,0.3711819889402838,9.922743662051333
646.2539611799999,0.20072668609988198,0.6924023186522866,9.86512593174689
646.7504369877552,0.0820226988238675,0.4690089987508379,9.944239780890864
647.24691282,-0.16604679636495956,-0.12103432748900976,9.871025140718285
647.7484036999999,-0.3147510310248957,-0.4462918440646287,9.83400388128562
648.2498945,-0.21946761419432995,-0.6373951275322823,9.876539128254509
648.75138502,-0.26316952034405555,-0.5935706324301886,9.739135364047536
649.2528755999999,-0.20809280180530043,-0.5912943960081353,9.846515132415526
649.7493515632653,-0.036051518362892054,-0.5587256871280373,9.770888869703
650.24582748,-0.20509670494237348,-0.5416120158508151,9.867160906314371
650.74731824,-0.23413484063120435,-0.4788505682923871,9.79952561398707
651.24880896,0.01267479486413098,-0.4942429565708094,9.861308058975412
651.7503001,0.19388469563214364,-0.4822046135422034,9.805273642431013
652.251791,0.21475480486724116,-0.4389593523668702,9.781090099976943
652.7532810600001,0.24236083325965818,-0.4754284961207077,9.91675092386755
653.2497563632653,0.23433781918228236,-0.4744020305679963,9.78404888131723
653.746232118,0.30022709622905175,-0.4834060704563797,9.896360011090572
654.24772274,0.34191049339998997,-0.46470172566465456,9.732319007205009
654.74921297,0.34882053503031246,-0.49977115413710016,9.924007189885469
655.25070328,0.2329931652229862,-0.4886130542412455,9.79723307066433
655.7521941,0.24561442541974707,-0.5352849560601443,9.820417884015052
656.2536847800001,0.19975210414091416,-0.5706909384193622,9.83763487284502
656.7501603959183,0.29444181017054666,-0.5714726570040426,9.748913085783903
657.2466359599999,0.2389309515036964,-0.5759621362993453,9.841670360200572
657.748126182,0.2588751689695075,-0.5595885350504429,9.769260881619203
658.24961648,0.30902101130458776,-0.563244185004085,9.796000499522025
658.751106972,0.37880107763622495,-0.5677271568311666,9.778023088347496
659.2525973600001,0.4117603346471245,-0.5756313686640561,9.86970257213595
659.7540869979999,0.46646893490712293,-0.6505081382821116,9.739091749898696
660.2505617959183,0.4141880033602576,-0.6494130176713689,9.848141304745761
660.747037386,0.2590680619127459,-0.6211903309038074,9.776798557530118
661.2485276799999,0.08942417124918617,-0.6242755158542634,9.849498155723499
661.75001702,-0.02265830503591954,-0.5968626843392825,9.820836540073074
662.2515065399999,-0.10370849124657176,-0.6064141833402822,9.817747284487034
662.7529964959999,-0.2531583569609566,-0.6059311683009607,9.904780047432304
663.2494714306123,-0.30132937376197977,-0.5391303544284233,9.732959546450248
663.745946972,-0.33013168748406996,-0.5288033044785132,9.9150910471751
664.24743718,-0.5140294756384898,-0.2708855763903022,9.88240941686539
664.748926712,-0.6419279545594838,0.05949924603678603,9.913224180090609
665.25041612,-0.40695863826852163,0.110116793834168,10.038761868187075
665.7519052160001,-0.08927986839850886,0.1574460172303485,10.037617177326746
666.2533943,0.29398022975212057,0.23755823539536358,9.917053594244178
666.7498711061224,0.4250354973780275,0.26074286422043924,9.941236545073743
667.24634718,0.3827576563870983,0.21692664581682197,10.119531541140473
667.747834688,0.2823367286153103,0.16177391940420677,9.881286704002461
668.2493224799999,-0.1797553299673433,-0.05747903587818692,9.868808261116556
668.7508115280001,-0.2669711571622646,-0.5343409790215452,9.802840704765305
669.2523006,-0.26530349110359724,-0.6765886707036363,9.818109125769045
669.7537895080001,-0.199366154685867,-1.0919898056633617,9.60844306539744
670.2502635897958,-0.3753804620494949,-1.8898008156969721,9.768742617240205
670.7467378880001,0.03530696545061761,-2.895048453292449,9.631766632232347
671.2482270400001,1.0613552135531632,-2.2297201806241795,9.780345259946483
671.749715608,3.176413704235342,-1.2121592873545988,10.262573891960903
672.2512042599999,4.484672457965455,-0.4470726921190918,9.111831623115902
672.75269342,4.383342527714515,-0.20374471071242092,9.933474341205475
673.25418254,4.5494136579057285,0.1379576547630519,9.717052973644776
673.7506589306122,5.193284483790579,0.12357614847453419,9.59023336525193
674.24713482,5.610463715783223,0.07432866610022792,9.03240905067224
674.7486228040001,4.542624003834798,0.4085180975466831,9.978761836015353
675.2501108399999,1.0605737527803099,1.1713101200312104,10.012316759047692
675.7515980320001,-0.013729089742050195,1.3444841374180094,9.795277518769735
676.25308548,0.05431138370109057,0.16479463808265288,9.816908084550079
676.7495594816327,0.15361376074492983,-0.8459028125030152,9.95555417084886
677.24603338,0.29106246750905085,-1.0226454647952985,9.827471405008922
677.747522142,0.20134211969231297,-2.286725663494389,9.796522551385783
678.24901084,0.06354256542632755,-3.080074942952753,9.630007250161588
678.75049906,-0.09806807069347884,-3.1228320835514283,9.625079463039924
679.25198732,-0.10873338944520544,-3.021779375897247,9.717574445754265
679.753475516,-0.028455012572610155,-2.303110580175418,9.695032978532701
680.2499487142858,0.05840111476941407,-2.412804063677778,9.760843494849256
680.746422202,-0.03953465331799998,-2.808933576845955,9.667410242872755
681.2479104199999,-0.007522657137245029,-3.296948993340069,9.692858806770875
681.749399724,0.027534188930688767,-2.570337603217055,9.71850402529324
682.2508886600001,0.13854617071166972,-1.8909563240108718,9.72717367920354
682.75237576,0.18445848864515046,-1.3137507952004615,9.718180954423143
683.25386268,0.1470429009538546,-1.6479477345571252,9.73811120840958
683.7503343938776,0.09993032927555041,-2.12467649237883,9.74850550203047
684.2468060799999,0.09203905032493705,-1.8569399451438562,9.768828612760176
684.748292918,0.1946359481545043,-1.42365597840511,9.766692120959357
685.249779606,0.3030766398914198,-1.242642883513923,9.769790215968138
685.751266206,0.22318692316674266,-1.2872859664865726,9.768179336643296
686.2527525999999,0.13300812434572806,-1.283479238895484,9.790363267959531
686.754238954,0.12295042097948915,-1.6711494425440996,9.774864464190555
687.2507102204081,0.15191791645016958,-1.576687841035791,9.775253595891765
687.747181254,0.22249444615312877,-0.9447213781723177,9.7923075691854
688.24866702,0.24914046894149766,-0.7850682406140612,9.80929857988596
688.7501525739999,0.2488522316801815,-0.7859602069970357,9.810533296995132
689.251638,0.26003283679840905,-0.6943846524264866,9.82136495712018
689.753123214,0.25688789502026016,-0.7033767687799584,9.816549497859535
690.2495934591836,0.22257866735008908,-0.9638381869444784,9.797621676314463
690.74606478,0.2801850022794579,-0.4973154808261284,9.829299789039032
691.24755068,0.2716808747553687,-0.5625701146108196,9.826864894079069
691.7490339199999,0.27341399485316936,-0.5528998673233586,9.827035409331222
692.25051704,0.27620271045343525,-0.5505379616534823,9.824428430071698
692.7520009899999,0.27526518031110264,-0.5506508151935399,9.826793724709102
693.25348478,0.27420355366138693,-0.5507242574548022,9.823450516203595
693.7499540285713,0.27493220123111073,-0.5519743743203905,9.826259687713376
694.24642308,0.27660968842585826,-0.5512975375190243,9.825020576943082
694.74790682,0.2764467177832561,-0.5513068650631624,9.82561508088653
695.2493903999999,0.27279520873858326,-0.5516248188934229,9.826125172307698
695.750873376,0.2751628094237888,-0.5514374403839406,9.82818737514841
696.252356122,0.27688806582015013,-0.5509147818648716,9.827065939045475
696.753838938,0.27550989829576006,-0.5514244683724899,9.826758040310471
697.2503067551021,0.27315780199031003,-0.5505985016363258,9.826421533072693
697.7467744679999,0.2743431409531195,-0.5514067650539265,9.825508792492279
698.24825686,0.2741227488646181,-0.5499401250676957,9.825766070332172
698.7497393799999,0.273834352712361,-0.5519855895009461,9.827213904966774
699.25122172,0.2748537775389973,-0.5516392569374879,9.827548644640707
699.752703592,0.27483195595792986,-0.5499797438295798,9.825997362909057
700.25418528,0.2763421970298945,-0.5511090835055092,9.825670712554963
700.7506517571428,0.2751671084465129,-0.5505657912411356,9.825607282684706
701.24711804,0.27559386478526315,-0.5514085471071533,9.828664414880002
701.7485993399999,0.27465729292278634,-0.5511446706299181,9.82842572367719
702.2500805200001,0.2763935669749515,-0.5511578590470616,9.826637332716452
702.7515624680001,0.27560107146702584,-0.5515224462398568,9.82791692296392
703.253043962,0.27488539625590086,-0.5498358962339672,9.829245199118489
703.7495078734694,0.2738726788003478,-0.5529429385528788,9.829060228943298
704.2459716000001,0.2754332958826048,-0.5510047843378443,9.82312968657825
704.74745148,0.2851700435192275,-0.5014894056876277,9.826698410538551
705.2489311999999,0.4053350931148356,0.5057960162145806,9.908404289784063
705.75041056,0.5238762089017395,1.4009624337141973,9.90883124748332
706.2518897,0.57526034922555,1.7818445340537763,9.935814746753877
706.7533689960001,0.5103500408842901,1.6066452787405217,9.921416295610058
707.2498333571428,0.3087905235001226,0.6463197928854156,9.884495723716556
707.74629764,0.21470935220829918,0.022712318351906284,9.861820881293696
708.24777656,0.2176814627337423,0.4969836313001921,9.909403967394155
708.749254852,0.2915442835234971,0.7036103367582172,9.940421331873807
709.250732922,0.34541143914237443,0.7630682195885999,9.854718039173738
709.75221147,0.33680721284506454,0.673720725772675,9.86703402539464
710.253689802,0.4685263378109491,0.5930045776244699,9.879190502775652
710.7501529244898,0.5525654775161124,0.48985772001835387,9.903483854951558
711.24661584,0.47972938192400005,0.5195034476146336,9.878229078482805
711.74809485,0.4834784074310734,0.10641057171457843,9.794495118729419
712.2495737,0.5039261041865583,-0.7212201936149094,9.859300320689233
712.751049222,0.3270617686282145,-1.012846872596144,9.847947563207889
713.25252462,0.2739460527855745,-1.808474182202006,9.67824208708948
713.754001682,0.3424896522859938,-0.7829259687706837,9.843409926933967
714.2504638489796,0.34829780516761866,-0.7996941755501046,9.942288126067755
714.746925886,-0.3232027834319752,-0.7529023758405381,9.80155695041496
715.24840262,-2.1565726101593126,-0.7772893993167418,9.813924785833011
715.749878712,-3.473379843030297,-0.16853248241966437,9.980481959956556
716.2513546600001,-3.909096120127799,-0.39236547005876327,9.882086604477424
716.75283089,-4.232375574968127,-0.6775509869584418,9.825348215480322
717.2492922632654,-3.822561189458778,-0.7183053578500118,9.991630023492059
717.7457535359999,-3.569332512361937,0.06393637602563534,9.505585325280617
718.24722946,-3.1592146151293097,0.09858134695489891,9.68091136792186
718.748704804,-1.2633405537931022,0.22459161252418958,9.711371862281089
719.25017998,-0.2734808247433947,-0.22247120949199675,9.688004809843923
719.7516559800001,-0.20350268022061432,-0.04705363023895021,9.83869389568227
720.2531318,0.09591124028135026,0.15809166260203147,9.648599053824437
720.7495925020407,-0.01618152364845805,-0.04111241983003428,9.60298614451552
721.24605282,-0.07993147792152301,-0.14359558637200365,9.605603200806224
721.747527992,0.17321745923350398,-0.38917757927065827,9.639204655913865
722.2490027,0.09696074383610737,-0.444579950169608,9.611893746597094
722.750477844,0.2076287187283683,-0.48558475034450793,9.84047072114227
723.2519530000001,0.0034611427215890827,-0.5071956855254909,9.959247773079513
723.753427712,-0.17011176729022126,-0.48090884023161096,10.023827794518372
724.249887655102,-0.1968290078575449,-0.41252583415204436,9.95406309187115
724.7463481760001,-0.345501313474351,-0.3885025792586106,10.001956971301889
725.2478235,-0.2714323480402115,-0.3609583215751083,9.88588896469711
725.74929822,-0.12025077676690313,-0.4834068309969433,9.901980895915019
726.2507730000001,-0.02231152416650178,-0.5249387581093596,9.998482208428038
726.7522479520001,-0.07635275275534793,-0.42376577123338327,9.874405257153011
727.2537229,-0.3983740864406057,-0.40237778062932156,9.84150712582507
727.750182522449,-0.6248444383784464,-0.43145531550495664,9.960362114330907
728.246642204,-0.17021808225754198,-0.3872747140492407,9.833935494047866
728.748117616,0.001650416194174531,-0.47488479245259185,9.840954029934004
729.2495931000001,-0.11271148025351231,-0.47903182906980146,9.832504830001133
729.751067378,-0.1452421570732494,-0.5315697851766962,9.860595023353037
730.2525419000001,-0.23478429489073807,-0.5497685681251242,9.816758683976326
730.754017284,-0.21174041959087053,-0.5317231773417572,9.789336263493588
731.250477944898,-0.25996729174272626,-0.5530036419252637,9.800104472874615
731.7469382,-0.2541427218309186,-0.5456825259981547,9.861480672262942
732.2484132000001,-0.24808609335639237,-0.5489910018037212,9.851252044247989
732.749887878,-0.29502101654908525,-0.5551873883362003,9.831199253090267
733.2513624999999,-0.290985130159091,-0.5696203898527917,9.816701411871575
733.75283819,-0.34626704987331486,-0.5888593161916051,9.806941793521156
734.2492994795919,-0.27539696815232895,-0.587746860737032,9.87142049703667
734.74575978,-0.28057408070550005,-0.5686173745261026,9.774667468038867
735.2472347199999,-0.23165863643058085,-0.5820127210219289,9.826921433987557
735.7487095399999,-0.2316486195833603,-0.5817242518250526,9.802129794164307
736.25018448,-0.28598693621014654,-0.5824731143961838,9.876213793735968
736.751659886,-0.29599389453230296,-0.5608134574802766,9.793101596709391
737.25313536,-0.3159957247015429,-0.6342486588881523,9.785367398934333
737.749596410204,-0.3020044599758213,-0.8331540276127182,9.87952479463558
738.2460576000001,-0.19752218169860594,-0.8846973529267125,9.80176227304099
738.747534416,-0.18973494339607008,-0.9328894405936548,9.77808865447809
739.2490114,-0.2604803705861972,-0.9356940020415568,9.814083954845653
739.7504859200001,-0.3214249380140169,-0.7469170835590946,9.82960005429868
740.25195992,-0.35301445540892695,-0.6494708944481506,9.798052797669946
740.753435708,-0.3816054007937089,-0.5926467117902328,9.832018981773736
741.249896634694,-0.33674519901349814,-0.4283186198241493,9.842366088933368
741.746358172,-0.3184758747307522,-0.12174304169967666,9.867668949395755
742.2478345200001,-0.30641568167604594,-0.07954715666257993,9.841703419358923
742.7493099799999,-0.24972605034459983,-0.07466794006399999,9.82642218452938
743.25078522,-0.2290956559553919,0.6292044286249694,9.915091043434058
743.752261416,-0.25408081061737564,0.2580126926336746,9.850692744951123
744.25373786,-0.25724037692730695,-0.7600612806365197,9.810475154143582
744.7501989183675,-0.23999131554979825,-0.7058997777176755,9.84999595017328
745.24665994,-0.21357859356296327,-0.10565970273475728,9.857864970677213
745.74813608,-0.1601655007012476,0.13907930465334947,9.815033074709847
746.24961228,-0.1917029181281603,-0.6964594056145147,9.77167954199196
746.751088728,-0.2647743638104352,-0.8056030710668174,9.86054371667816
747.25256528,-0.3007354193812696,-0.9297407323952223,9.793320374670866
747.754041512,-0.24039358770947486,-1.0818880636678057,9.787084684889019
748.2505031081633,-0.16305903404888736,-1.7054435150725622,9.768312706285213
748.7469656019999,-0.18155422939524565,-2.3582615980141073,9.769158780239888
749.2484432800001,-0.333880866233592,-2.7487516393036127,9.716532073770942
749.74992018,-0.2894008027261982,-2.1752015167619803,9.683010583463222
750.25139722,-0.2239098753214646,-1.6936120260620606,9.829964484131155
750.752874884,-0.2168177638023671,-1.028783021551927,9.718423279761044
751.2493380020408,-0.28422270898957547,-2.4017984575356217,9.666982190700361
751.745800726,-0.34571766503586765,-2.3427416540667663,9.724878119856395
752.247278202,-0.29892519166459974,-1.4740171365623098,9.766777265292621
752.748756114,-0.2796245994913177,-0.8516995210075087,9.802058900912654
753.25023414,-0.2182636179241111,-0.6892159484638062,9.821143935908806
753.75171366,-0.21984752971475094,-0.7219482031440405,9.794633905816127
754.25319382,-0.22682386596155746,-0.42836631384232726,9.83167503256474
754.7496563081631,-0.12013903509441787,0.0223220497046999,9.870360795908743
755.24611838,-0.12400153838820392,0.2039936790172928,9.896191635926838
755.74759714,-0.08956805403354949,0.23515012065542243,9.814802345184559
756.24907598,-0.0001100979165906335,0.5704232851854449,9.919729834232312
756.7505549800001,0.8697912447737518,0.6068876364044504,9.846165825888846
757.25203416,2.112249942003598,0.14917739927318208,9.875099724332658
757.753513442,2.320137027782759,-0.10140697185214276,10.023753189486106
758.2499780816327,2.8367814439719243,0.005612395202271297,9.858238098755733
758.7464429199999,2.8590385107068372,0.3197644483471496,9.598771844266183
759.2479226800001,3.7396776137390133,0.5382038192944845,9.958343857434723
759.749402668,4.0841924799260765,0.8932690749229525,9.939192050012178
760.2508829,3.55603064463299,1.0066458949026715,10.033559215535927
760.7523630800001,2.688183768016978,1.1505616977507258,9.829939061770778
761.25384338,0.9389138452638374,0.1229732902148453,9.765946809843923
761.7503099897959,-0.30969463250437956,-0.7948219299828527,9.854073480809644
762.2467771800001,-0.6562568933727636,-0.8076120050576159,9.926818114743014
762.74825692,-0.7429394549053312,-0.5550749323479865,9.681175645504068
763.2497363199999,-0.7667205049282224,-0.6442235790745314,9.880461862982475
763.751216882,-0.7466413064113704,0.5012407149516509,9.796118067738554
764.25269742,-0.5170184287469403,0.520057857171032,9.88822536923231
764.75417902,-0.48316396749206136,0.14698641336647902,9.733374151844561
765.2506461714285,-0.6131505917303662,-0.49564394300102343,9.955925113781447
765.74711286,-0.5924098619887944,-0.593817068422203,9.738463033978656
766.2485945000001,-0.5187529910423303,-0.6086093119373521,9.828539807135993
766.75007624,-1.017579309136682,-0.42614209798724767,9.737235521567687
767.25155804,-1.0749141097066939,-0.4055425176122111,9.816542849439267
767.7530404,-0.9974488459069086,-0.5545346768648385,9.732219041416714
768.2495081387756,-0.7038222530664812,-0.6586410737911947,9.944955306407422
768.74597606,-0.6088084042684954,-0.6874713363871409,9.703127186259533
769.2474591,-0.39140765499766483,-0.7233649476761407,9.716854698054629
769.74894166,-0.473263602710748,-0.660175298773376,10.02147270955584
770.2504242,-0.6857447230085737,-0.5739719175587024,9.766053900257322
770.7519074400001,-0.6319873789067489,-0.3900726215360483,9.841004032946763
771.25339078,-0.49405894508923026,-0.36438395296589426,9.776537494548302
771.7498593265307,-0.3153596341391197,-0.3633957729835285,9.758866254379257
772.2463278800001,-0.27739019448067453,-0.39683794660606714,9.951327614516366
772.747811826,0.03993067256418987,-0.4029883461970265,9.761008120587299
773.249296002,0.35954335047678704,-0.4365921610972457,9.909518751736114
773.75077982,0.8744086961276533,-0.4548303847897019,9.673555142949066
774.25226366,0.738338850895927,-0.4800812680639549,9.924505025909642
774.75374788,0.3421290606936471,-0.447556883193719,9.767129856006168
775.2502173979592,0.15501129602859928,-0.44681571354526717,9.88715484994445
775.746687192,0.4010257815754564,-0.4211387301854527,9.799297341640441
776.2481720000001,0.32909194149710475,-0.4178741939965496,9.86811634623999
776.749656246,0.2565012404917659,-0.28140053032310247,9.729066386571604
777.251140342,-0.27295703594156595,-0.2668231270881305,9.904644142420587
777.75262564,-0.9259716510782474,-0.2331185666061146,9.775063505055034
778.2541113039999,-1.3574276708108113,-0.4465364794399322,9.738564645211932
778.7505822775511,-1.1050957220570408,-0.6837216309779987,10.053177322289217
779.24705374,-0.5740086720837082,-0.7169076138687775,9.659016938111126
779.74853861,-0.3234605222052074,-0.8563898197156283,9.779607896053529
780.2500231199999,-0.1327031649106933,-0.8964106012595155,9.87740902859903
780.751508224,-0.2620808336934053,-0.9401203414553315,9.670554106631437
781.2529931240001,-0.21720156893271766,-0.8373830465597734,9.867462903355484
781.7494642061224,-0.06729180665428344,-0.47324486980851405,9.92279021994644
782.2459354800001,-0.022672404391371713,0.18890622390986142,9.888145604310209
782.7474211960001,-0.12912228614707397,0.41162509259124364,9.747981243358359
783.24890686,-0.32857451357073897,0.4308559271482707,9.921991778800688
783.75039404,-0.2968687201642361,0.19813079383908383,9.843951360373739
784.25188202,-0.22865544644070546,-0.4328324234273918,10.004080825615516
784.753367156,-0.2576698222200534,-0.6770837595658777,9.564916646302727
785.2498368142857,-0.4285914781110065,-0.7180187309127793,9.902930106652228
785.746308448,-0.3657013084138658,-0.6460130559894557,9.624320008432056
786.24779504,-0.6563929711388384,-0.660569715288281,10.03273570481045
786.74928152,-0.6049813287580528,-0.5133609254539481,10.10102283976837
787.25076812,-0.399224275556739,-0.45356371809453216,9.700852906515568
787.752254568,-0.16593975765549376,-0.3568282365145382,9.47910288942546
788.2537409,-0.1682217212707765,-0.4115250375667275,10.120861364219632
788.7502131265306,-0.021135008140004515,-0.38600746763784105,9.738001706858665
789.24668574,0.034464365270758364,-0.3427419595683023,9.648113680655896
789.7481729000001,-0.17004232160078428,-0.3233884893660201,10.07110624578285
790.2496601600001,-0.11736311606396338,-0.26573307077369696,9.860048144767227
790.75114764,-0.20109415023785857,-0.30675407010835753,9.697488919539424
791.2526351600001,-0.18235305803557125,-0.4879480376171357,9.973434190072934
791.754123016,-0.21015143369285375,-0.6605753773135663,9.69454888342711
792.2505962857143,-0.08125799808039348,-0.7184892383183653,9.819704688345718
792.747069242,-0.0826039855763184,-0.7911023796258405,9.93375690998566
793.248557022,-0.12783079579743775,-0.8720662978472501,9.810031750448283
793.750045008,-0.10864499483513335,-1.7206836703534032,9.543487752285348
794.2515329600001,-0.3373969444265962,-2.667762357283383,9.785244617596728
794.75302098,-0.32062045911369,-3.263901896160837,9.647377379624752
795.2494940612244,-0.3200212563105555,-3.105687165818358,9.760582554042351
795.7459676899999,-0.18618919818845783,-1.9378472620581226,9.609013901346051
796.2474563799999,-0.1327155730791846,-1.1178411194095943,9.87207666136984
796.7489446300001,-0.18289648309504647,-1.535993829274066,9.747778303496986
797.25043278,-0.12359635049168183,-1.4373583825566283,9.76446386125963
797.75192132,-0.10096671625915389,-0.7056905265380645,9.773006772227655
798.2534098399999,-0.12303565216398876,-0.8929296590187425,9.871395012073819
798.7498838551021,0.05144608377096656,-0.240418496120137,9.798073730073202
799.2463581000001,1.6845118206432599,-0.4244571601978548,9.698191641185497
799.7478466360001,2.5611813060424646,-0.8963644844391326,9.760696968666387
800.249335,2.6557990089206327,-1.0863046821082745,10.142489110381455
800.7508237259999,1.4427080681620115,-0.8457285493000356,9.831194897649107
801.25231246,-3.165876512063512,-0.4293342438891938,9.739006377173531
801.7538015120001,-4.6485138420026235,0.033381478502560936,9.650835067010362
802.2502760244897,-5.093487824896792,0.06935945639147609,9.733885909056053
802.7467503319999,-5.1460017017433755,0.12330751192094454,9.54231932632441
803.24823982,-3.1305797596489358,0.432144917127162,9.781433837768603
803.749728742,1.4065927308241997,0.47201266103147693,9.97784867818367
804.25121756,3.1802570833461523,0.41555313635388563,10.119559132912515
804.7527067440001,2.8563315718592714,0.963016580543446,9.84941350132262
805.25419598,0.5712684469250184,1.5851174167968147,9.919919024984765
805.7506704734693,-0.0038390337257138496,0.9990766868402201,10.041061621335524
806.2471448399999,0.4797081207219211,-0.639538648511612,9.734354963456992
806.748635468,0.720105832428409,-0.7019456683938573,9.784191647794719
807.2501271799999,0.3839034182311316,0.12685058408907934,9.83708040139725
807.751616316,0.2326343978208375,0.2605946907765582,9.52798040520019
808.25310482,-0.19987029095036185,-0.19225652286035028,10.28906963960052
808.7495800102041,-0.14322277675907555,-0.24944061739527118,9.656552151515397
809.24605522,-0.024108289952646453,0.030976106894232965,8.84611801574077
809.7475457,0.08848841098917086,0.0004563360331006594,10.554651662046206
810.24903628,0.07054199706721075,0.38780436258489703,9.70410348407875
810.7505271360001,-0.022018345280967796,0.27960095127245643,10.198813216204393
811.2520182000001,-0.18348693257901139,-0.2144389324028935,9.540216328400419
811.753508952,-0.2825445916398901,-0.5318930455013545,9.810110840058464
812.2499845755102,-0.20147557724966333,-0.591960854866567,9.809250587268885
812.74646106,-0.12005925939950211,-0.5769295364369139,9.738559581764104
813.247952702,0.22806996640284388,-0.03622482782420012,9.69125602556138
813.7494443,-0.0875521744740226,0.21472151953962346,9.848789175079885
814.2509361799999,-0.264422148868518,0.1791282551880164,10.003491339876728
814.75242786,-0.20673573763427228,0.10782584122129274,9.905774792945486
815.2539194,0.30751301730825686,-0.3274913296524689,9.90815464875771
815.750396510204,0.40630073009608103,-0.5899397555644308,9.800224342342334
816.2468737,0.4933158898113946,-0.598112833387946,9.775322786161876
816.74836613,0.5649123262223021,-0.6025070146464823,9.868176590733315
817.24985898,0.6787537910565478,-0.5656372522160552,9.818631846087454
817.75135114,0.4709402522004831,-0.553923293073283,9.765046180443823
818.25284308,0.4568683535895351,-0.6686312195503078,9.915498188735512
818.7493204510204,0.40444633958415876,-0.7382123835437706,9.971368610569396
819.24579774,0.29681012596996537,-0.7183394837431323,9.754194628763527
819.74729053,0.11008129268045995,-0.7335664663662836,9.857489821524878
820.248783764,0.09546120370570164,-0.7285297822661287,9.887071572017863
820.7502758100001,0.13523219083367646,-0.6950925831788385,9.840644500649578
821.2517672439999,0.11938725291479553,-0.6242385931271776,9.818943895583395
821.753259942,-0.3954676335350716,-0.5705839085659852,9.879038183824186
822.2497379734695,-1.2366221154497015,-0.4262021737741164,9.942700764470088
822.74621556,-1.8681186164282808,-0.21998694872130162,9.76195103885971
823.24770798,-2.3481631955654994,-0.17529623864917684,9.559249933489708
823.7492005,-2.6844034169478546,-0.24464074867167812,9.986069126499757
824.250692842,-2.7497711300784675,-0.2536345178223198,9.965155062288446
824.752185722,-2.853115774990278,-0.24092077242413779,9.684013230480742
825.2536791,-2.706984891122265,-0.2882407582899093,10.010072435401055
825.7501565367347,-2.9774505276903676,-0.32590539147085135,9.700703629109764
826.2466335800001,-2.8376727994241087,-0.47995394580194045,8.964511371792355
826.7481265920001,-2.0215389218616817,-0.7613001077269378,10.407181002714331
827.24961996,-1.8722466716723434,-0.7196584727667359,9.879114539869125
827.75111291,-1.139731418549386,-0.8488549749493246,10.086485217998243
828.2526059799999,-0.4623243983752434,-0.856354023214688,9.517194238112799
828.75409876,-0.4658242551258672,-0.8954648158755246,9.763357329638401
829.2505766020408,-0.479348604379637,-0.904309600299285,9.971274573507337
829.74705464,-0.362252548593646,-0.8920563483108777,9.635152999251485
830.24854748,-0.14497114239087205,-0.9117619632415425,9.948310644368448
830.7500407480001,-0.22065427868691675,-0.7911260786444676,9.63475693437096
831.2515341,-0.16065747772383784,-0.7662864882688052,9.859381817575187
