Time (s),Gyroscope_X,Gyroscope_Y,Gyroscope_Z
10.253958514999999,0.009622808450610521,0.008445803432401451,-0.1662549040420963
10.750267144489795,-0.012334358576744328,-0.014908992594581543,-0.18706487092743987
11.2465770012,-0.004501653600368038,-0.032824072218974897,-0.13965210095171043
11.74790093,0.015843761921035253,-0.026030398664129355,-0.007765321616969048
12.249225241,0.023779071856777367,0.0086135092896957,0.1200598581476542
12.750550620199999,-0.003510689942257047,0.02085256389297097,0.11651206477810554
13.2518778282,-0.019667752755247462,0.03722409792052083,0.026127653596841292
13.753205479999998,-0.010785398351801838,0.019024865346321748,0.012871639420415873
14.249520645306122,0.010562947358969293,-0.0008477653782089618,0.002920201265511631
14.74583658,0.000237996226770123,0.005547931756346404,-0.04054818227510962
15.24716666,0.008004521638636204,0.005582319080114514,-0.07906506499826514
15.74849764,0.008552266663093276,-0.021015329091193163,-0.05300242516083326
16.24982928,-0.015679557932227563,-0.005639989971993195,-0.038229295037287475
16.75116144,-0.011203842530957367,-0.0024216264250518683,-0.0212886424840654
17.2524941112,-0.003322930773742784,0.0214548038561683,0.0050647841502124355
17.75382742,0.015663263011289577,-0.0032672331715659785,0.030018168531827594
18.250149727346937,-0.004482659607677926,-0.012632578025157546,0.06333440070082594
18.746471569999997,-0.02303344499059292,-0.0066490570473293695,0.05907799812735717
19.247804707,0.03025224417086604,-0.045922259367574186,0.020403453374223668
19.74913966,-0.02621617597122055,0.01062474425404118,0.005660942113591408
20.2504757322,0.01302761661081852,0.015478572379347702,-0.0033723435506314028
20.751812140000002,-0.009041764266357619,0.022388132251191486,0.014984218440274881
21.253148870199997,-0.0021911665845758418,-0.00476644622918607,0.014408773843778316
21.749472972040817,0.010299599524055734,0.007930438571310958,0.015623003263481414
22.2457979004,-0.007705156551539888,0.002673926976939788,0.009514228125871079
22.7471361302,-0.011664548873142224,-0.0033578076182947756,-0.0018266269699212996
23.2484743958,-0.003791153831803383,0.009205488684189267,0.011076595626880648
23.749812700000003,0.011591035060068805,0.014838051036062873,0.008854513922810333
24.251150966199997,0.017956371833298488,0.003393414035768395,-0.00212438531787478
24.75248981,-0.017669945008346608,0.005581360036860257,-0.00043888813538687924
25.2538293612,0.021962297184766798,-0.018580285567815148,-0.003805610171117078
25.750156208367347,-0.024414217108461367,0.002664857237224352,0.002101335764506919
26.2464840462,0.004548660226062447,0.008147553520644524,0.0008339247835344086
26.74782606,-0.011001482443316078,-0.008558674077737954,0.0010640760796785335
27.2491689042,0.030054904893800548,0.0042106780328596835,0.053932724583775835
27.75051213,0.016237892690338554,0.0026955345064027425,0.26388048625665894
28.251855039000002,-0.030448543389704576,-0.03860865724135323,0.5735999018795566
28.75319885,-0.004663144124324423,-0.03532703087372157,0.7037510593612073
29.249530559795918,-0.009790013886854186,-0.03808146294782759,0.6768847356574534
29.74586245,-0.007503703193359402,-0.06478845032109587,0.47493878000551054
30.247207674000002,0.013458140844926508,-0.013299616786221446,0.1667321812565114
30.7485540102,0.010045536144701947,-0.0019234710993731629,0.10434181139655854
31.249901141400002,-0.0065629034662719075,-0.002825955721318326,0.05038990608202699
31.75124863,-0.009082959653306404,-0.01686036581796383,0.010434315049896574
32.252597225,-0.014876147058037668,-0.028822524868838358,-0.03186589371607321
32.75394582,0.02059782545811911,-0.013807590512800318,-0.06240872722359869
33.25028131632653,-0.007825021273224689,0.016462101800529136,-0.0442137604520326
33.74661775,0.005491197253028842,0.01543321881776266,-0.04240862840922587
34.2479674764,-0.01944451817534604,0.004137265088534018,-0.050464781737189365
34.749318509999995,0.0052999959575299104,-0.0011994915596211068,-0.01974935728660241
35.2506707836,0.0012751027514094045,0.009567154050403322,-0.012270248431538447
35.75202333,-0.000529576410913236,0.024523507233996118,-0.009076040576854754
36.2533757164,-0.008762632318518527,-0.0036873438832329586,-0.012533857571151441
36.74971531897959,-0.0036248672290930158,-0.004450819782776537,-0.009996915020558826
37.2460561124,-0.013481351668216367,0.02464930941709671,-0.011889714614529923
37.7474105,0.09236388897671537,0.0010068251974378083,-0.009580218529263235
38.2487649136,-0.08967802073705139,-0.012098207567914602,-0.005340364246188968
38.75011984,0.048579405676924495,0.0070570009832560225,0.004424938017712634
39.2514752,-0.028377835077923807,0.01734544228531321,0.0029912120295562477
39.75283119,0.016451804775328517,-0.0010051296183027593,0.0052275761979590375
40.254187707599996,0.0029142828193666347,-0.02384794337912842,0.0008185103831885024
40.75053140816327,-0.025096783363527598,-0.001005875047713853,0.005047338302928945
41.246876094,0.006738785548095583,0.003942801935026905,0.018882314966097623
41.748234860000004,0.00036942660267234265,0.017139790267147417,0.01748277257382602
42.2495940454,0.01081879437732716,-0.003225913001269194,0.01391242911302928
42.750953910199996,-0.009834717219804629,-0.010649487710934675,0.00918192843033105
43.252313906,0.006147448961134695,-0.02015175741610626,0.009762264921406727
43.75367487,-0.011341325642071892,0.02118668214637268,0.032473875382668285
44.25002329346938,0.015391019360296156,0.006838333283056155,0.04190129569454636
44.74637208,-0.018898696130281875,0.0030719924917739726,0.028184607670209045
45.247735394,0.0027310776591114826,-0.014006283961538022,0.044179336290121336
45.7490990404,0.014984448860586329,0.0048448597823257155,0.04560214248288279
46.2504627,-0.014134230385760713,0.009215894929283638,0.03835436454994778
46.7518265,-0.006274009094836206,0.005172235416727125,0.0013523237192952441
47.25319019,0.004003773288066618,0.02278888470531326,0.01119090248109874
47.74954060979592,0.01054198594145343,-0.003069169019398998,0.22541430192058878
48.245891424199996,-0.007070948922342875,-0.058603820386705155,0.4765314584729668
48.74725636,-0.00016856683589015675,-0.0593005897342423,0.6214045865884452
49.248621770999996,-0.002269787331041497,-0.0430955582302218,0.6732232720779284
49.749987510000004,-0.028205079212274553,-0.03802198889873334,0.5714344848784245
50.251353976,0.04304916024012179,0.004579311624322809,0.2703795648302524
50.75272041,-0.014871934606251571,-0.007557723310591529,0.09562081821103426
51.254086584999996,-0.008541066755429547,0.008524050528717065,0.024155941582258544
51.75043973469388,-0.00801956567249812,-0.0016899733012586471,0.011667574797872235
52.246793049999994,0.004518973423128304,0.015147350616002858,0.01135744667686991
52.74816041,0.0015075701061031232,-0.010392029245523168,0.007989244019489338
53.249528391599995,0.008113104616621429,-0.0008854169871000511,0.00483885596826943
53.7508961902,-0.0032696194015366807,-0.003324052315859273,0.00505213166427766
54.25226373,-0.0060193595427808265,-0.001627459700628522,0.0038203371594638037
54.75363133,0.005627000675393093,0.0135679741484139,-0.041861818474450585
55.24998559469388,0.0115644991833663,-0.009008331096040132,-0.07276591175532968
55.7463399104,0.0011989269780064023,0.011356293180960344,-0.04602278667545457
56.2477075284,-0.01226785817429141,0.005787005038786031,-0.008880781333581379
56.74907547,-0.003669055126149655,0.0019693191924397345,-0.005916096836912486
57.2504442072,0.007729250512545983,0.016979416086379623,-0.006300827229996995
57.75181278,0.011914849639999052,-0.004645064941894598,-0.009337653984969692
58.25318096,0.007176777365352985,-0.010979301420703368,-0.004346331107647809
58.74953587673469,-0.030160248923528418,0.007054331150281983,-0.006145633565126626
59.2458911128,-0.0018122103483887639,-0.016855044266846756,-0.006273147644069652
59.74726038,0.0034044121109323266,0.003058810995314479,-0.0021027553805175216
60.248629959999995,0.014703439920968016,0.015627643160631487,-0.0010416972636163031
60.749999900000006,-0.00838177346950568,-0.010968968012488402,-0.003109315739540809
61.251369811800004,-0.007789068193483188,0.0030504548012803123,-0.0008521563980624615
61.75273970999999,0.00420403088295472,-0.0053194318808042216,-0.04267789320493151
62.254109610200004,-0.00038135878871832957,-0.010930556620207466,-0.04857170389843011
62.75046607428572,-0.0012363623334624954,-0.011213415139752094,0.0023384770657675453
63.2468226222,-0.003477004147079608,-0.0003691908768988536,0.002850393360400851
63.7481931,0.0034094107405487854,-0.007933708675118122,0.000861182846252622
64.249563878,0.09089384080007847,0.00028124194403381266,-8.062969128992785e-05
64.75093481,-0.0011893410349752146,-0.0018700854018188762,0.004741947835941502
65.2523060402,-0.0797948791886504,-0.00119188417467014,0.011519401067889951
65.7536774002,0.00020112150592218456,-0.0044122490507379035,0.06181371428381807
66.25003464591838,0.02706712122692784,0.002532762260560578,0.2682487436772984
66.74639241,0.007422377237632397,-0.02995921299863339,0.5381377720076389
67.2477648258,-0.009465966072395521,-0.01741390893401463,0.7077818849807583
67.74913726,-0.00976962432196583,-0.03134490508907774,0.6472599020811641
68.2505100442,-0.06992179858421549,-0.021330161628257946,0.3712165694836387
68.7518829502,0.08147242035443249,0.06456330129935388,0.16585967259275214
69.253255846,-0.030449683157699147,-0.01886819491113707,0.04856867363406762
69.74961531632653,0.015356400123497899,0.009996659020816596,-0.023202549334519495
70.24597472420001,0.004862572987801526,0.0053661305950203275,-0.03441546195773214
70.7473482702,0.0155560011292917,0.002186149921401362,-0.04929915910434146
71.248722655,-0.002885397064439781,-0.021935513093098994,-0.10343289320300447
71.75009716,0.006128384212835824,-0.0016618586236262587,-0.1725552535635468
72.251472371,-0.017480094466793324,-0.006549866813937246,-0.18681152850737445
72.75284773999999,0.01860238307279119,0.01857769725678815,-0.18808447662987512
73.2542233394,-0.0013858773055131753,-0.007325654854890761,-0.19123542157029141
73.75058535489796,-0.009012547719966998,0.010612573087538194,-0.19828611752700703
74.24694718880001,0.0006283407032408069,0.03921299388236207,-0.19712636900038
74.74832318,0.026088150963020803,0.0017041785922916996,-0.15116409382494747
75.2496999036,-0.014979964888800346,0.004889437583569059,-0.1570168323051734
75.75107668,0.005752028156185032,0.006403234864145834,-0.16487940276745455
76.25245319,0.0047746784638178046,0.02058696352627246,-0.1275383308490309
76.75382996,0.011120150432788347,0.009184023738951825,-0.13559744160914047
77.25019311938776,-0.00491688949772403,0.021842283279243396,-0.15674254033016555
77.74655674,0.030006646368626263,-0.015542818563186147,-0.1640899560148379
78.247935332,-0.011321837956044889,0.0037580643815210302,-0.17920918995073837
78.74931397,-0.0025971771637689333,0.02634997989453157,-0.18375437039412146
79.2506924182,-0.02170214460178059,0.004610150492850273,-0.18740202951917478
79.75207143,0.1316513351619157,0.06712577788584893,-0.16225587444284403
80.25345087800001,-0.16272288921117928,-0.02268306667304548,-0.1074724781196522
80.74981702714285,0.05103316219511239,0.0026493613015807563,-0.01843543537557709
81.2461838982,0.016994903184575333,-0.052392560962336326,0.003501136288860531
81.74756495,0.016796969741875993,-0.07029653428331699,0.004565560546866925
82.24894645,0.00785621000541133,0.003326032793919641,0.03856752631955105
82.7503283704,-0.025573008504188584,-0.0380798368192864,0.08667136112718041
83.25171066200001,-0.027535368413027162,-0.06494077576914123,0.15727502661746876
83.75309329,0.040834036409461996,0.06804408566131978,0.16134642005653657
84.24946282265306,-0.00763390283371296,-0.024481744075161904,0.13177151720419705
84.74583243,-0.001780739627808612,-0.005130039838785341,0.19209558556467068
85.2472153604,0.042693538610895504,0.04292909724542083,0.19545764252835948
85.74859898999999,-0.013666289147117658,0.013973530862308358,0.21201643638981732
86.2499834412,-0.017541769972275495,-0.06752530975398491,0.18478204971885628
86.75136834999999,0.04155889171087075,0.01011153296720494,0.11405830396821875
87.2527540068,-0.014552060665073578,0.03276517868140512,0.049272351377091114
87.75413984999999,-0.008468484902725393,0.010744166297751998,0.013840083295077193
88.25051213061225,-0.10207477717005987,0.03320437285048458,-0.07236399669874151
88.74688474,0.052240800768919765,0.055065785426385794,-0.08029660623307172
89.24827085999999,0.043768762620554694,0.0007634333772458629,-0.10213762825364353
89.74965758,0.0436743327045088,-0.04300438708552998,-0.13573897826277428
90.2510455402,-0.021471181239331432,-0.012844261309697222,-0.1499044768550211
90.75243381,-0.016767800045444127,0.046455049492283386,-0.1528639734595653
91.253821767,0.056068643357304576,0.019424162004952034,-0.1296824932268187
91.75019619142857,-0.023178334017311245,-0.021686547239727363,-0.09801754283347376
92.2465714306,-0.00928044953288264,0.003205736270264419,-0.051324692417700934
92.74796092000001,0.11010880238079011,0.023435104330174393,-0.01553228687527166
93.249350835,-0.14272218432249076,-0.002793830326851521,-0.010281130304203336
93.75074143,0.06415951619665154,0.009013191541016622,0.003749789981930895
94.2521327656,0.0021985006175113475,-0.006899168392094306,0.02901675058321853
94.75352462999999,0.0011744101944588987,-0.05294117154565285,0.06462645688324123
95.24990262979591,-0.01155022423202001,0.0023172733202602323,0.043260920830289824
95.7462812804,-0.02906689857653562,-0.059063022298896845,-0.011729211801152105
96.2476747512,0.029739857989770774,0.03303641407501424,-0.015018234675229978
96.74906867,-0.011296654749873031,0.025563720415263304,0.023253392281205196
97.25046348,-0.011529421624083753,0.01406303731093541,0.04969508100684204
97.75185864999999,0.017921304253815443,-0.0012891895621823424,0.03152771736295339
98.25325408459999,-0.004776105119135713,-0.02418402920780739,0.02358947251362177
98.7496361122449,0.0024592266254839608,-0.011748918475081792,0.01813270758577226
99.24601883999999,-0.019723616491983377,0.012016956406115926,0.002041328241863928
99.74741608000001,0.024904499520414798,0.007856833075803189,-0.0049113155600949195
100.24881368,-0.002219446385041784,-0.009564561581563756,-0.0005051586116346346
100.75021183999999,-0.020731797852896167,0.004175334987495119,0.006610691071863488
101.2516102,0.0018214861107074016,0.01619843448602001,0.00787371416846726
101.75300896,0.0010701705341077735,-0.01873819275966008,0.0030517855930131703
102.24939506530613,-0.003773643313172683,-0.008149748882755646,-0.016293122262087047
102.745780242,0.0006978720666735913,-0.0005847969820330235,-0.0008931365134140896
103.24718091999999,-0.0072740475241846935,0.0047700175869560164,0.0004259014135898223
103.748581,0.02225355888183418,0.014731934632815143,0.017184910997371163
104.24998228,0.09199336500898112,-0.005412164831209498,0.016659336251964054
104.75138378,0.006311085873852968,-0.0004724118243978458,0.0001220830953576892
105.25278488,8.002586124032371e-05,-0.0017685416292959706,0.0001357685620031187
105.75418666,0.06299673866292893,0.006694173765530391,0.0006752060088738797
106.25057496122449,0.01076305482582732,-0.008024591448714508,-0.0012944641982244572
106.74696324,-0.020926789949710152,0.0004893936792191758,0.0005666116718478065
107.248365988,0.013850983719044618,0.00016791727671453376,3.637976645421881e-05
107.74976858,-0.0014082702792734705,-0.0003256238719989118,-0.00035171512027079685
108.25117098000001,0.0001753913614888932,0.00013463236037497743,-0.00027866114781238156
108.75257362,-1.6387927644319604e-06,0.0006880633881536119,-0.0004536261144498984
109.25397656,-0.0003032730286048868,0.0003470019109907948,-0.00020279645918498148
109.75036590408163,-0.00026540428338012797,-8.691786750622497e-05,-0.0004442057894186516
110.24675577600001,0.00020126586925516137,-0.00013464825515515237,-0.00033275699547813316
110.74815991999999,-3.600453894106047e-06,0.00021486109575611718,-7.786343098793837e-05
111.249564106,-0.00023592251686855307,0.00045345219649443733,-0.00011653913587433407
111.750968622,0.0003290684240110771,-8.947373260431219e-05,-0.0003035883359844947
112.252373794,0.0010243116985036572,-8.0909945537481e-05,-0.00015520287343881374
112.75377924200001,0.0053253968987770715,-0.0006330385214864932,-0.00011905084593550611
113.25017076734694,-0.007222035597161174,-0.0005232750685191799,4.4221769530557605e-05
113.7465626,-0.02440088892703548,-0.003530358046074859,0.0007321667226967616
114.24796864,-0.022742686520738277,-0.005377053642702918,0.0021048071950878593
114.7493751,-0.007107187935129493,-0.0033480452671957304,0.018341331795247447
115.25078181999999,0.012955327442592993,0.012688853625923448,0.18173316167705214
115.75218892000001,-0.030799398807131607,-0.01639538473198473,0.5410089868905951
116.25359645799999,-0.0446722094592234,-0.033843964486401756,0.6863321608646155
116.74999019387755,-0.024825031831898634,0.020706898007348314,0.5477865766750698
117.246383964,-0.06412262979916138,0.0035861513326752945,0.49371917713682545
117.74779206,0.007941347571440233,-0.015591799080055207,0.40472709782175803
118.24920062999999,0.010039673485053531,-0.022440385492648877,0.2203235061565417
118.75060926,0.00909333461612,-0.008121480148603892,0.0618330607077992
119.252018332,0.01045634278343859,-0.012020453346602346,0.012770694759089192
119.753427402,-0.00406215998722082,0.005827174586328008,0.012471868801398455
120.24982211224489,0.0019514313656588255,-0.01008423809408485,0.00772646872144039
120.746217,0.004252442709558463,0.009392300795357635,-0.045412394657535736
121.24762616800001,-0.011512936440717247,-0.0028633481569505827,0.007634787907953462
121.74903516,-0.0032081127254473883,-0.005828624056517578,-0.008012508229602889
122.25044378000001,0.0019502885497576503,0.00994860440146798,-0.010080374633420555
122.751852222,-0.002520097868363555,0.007452450804640664,-0.006993179202518304
123.253260408,0.00360732302550836,0.020277902131724333,0.003566901671397585
123.74965448979593,0.004237057632622188,-0.034623595856578544,0.006377229407477228
124.24604826000001,-0.007309626107829573,0.01007927197513463,-0.01132375623018558
124.7474561,-0.0029644068880958553,-0.008190488061175385,-0.009111006514486956
125.24886458,-0.002190330270084086,0.009714765503889845,-0.005976464062849535
125.75027299999999,-0.007272345261331611,-0.007691217290385746,-0.004120049160506674
126.251680656,0.004556914612475591,0.008890859850955439,0.004892459418371117
126.75308833999999,0.00543865553689348,0.01381700082473205,0.0059964898329838145
127.24948205102041,-0.007208883789008551,0.019623054431339017,0.0406814483841987
127.7458758,0.004716818502554885,0.004169115731341388,0.0846160136960306
128.247283984,-0.030302351601641388,-0.04978249177459958,0.10772775870089753
128.748692242,0.008488801993970495,-0.04775106134849122,0.13147792260765923
129.250100628,0.007108832560453562,-0.049711883955865926,0.13396090908234298
129.7515091,0.026751524097670582,0.017592867267420362,0.08328073862310836
130.25291736,0.015135396679123211,0.02639151359952878,0.028067796918914367
130.74931179795917,0.024670192091934624,-0.02870638520108115,-0.03928660839322603
131.24570677399998,0.01990793546010716,-0.004604268185060681,-0.09862149618144224
131.74711612,0.006201277627458338,-0.023515292435548396,-0.2101577497536509
132.248525708,-0.014789651611451984,-0.004018544332051374,-0.37911936477813873
132.7499357,-0.007212807720223579,-0.041089112666036265,-0.5472294420276737
133.251345832,-0.0677577017442364,-0.0022531345355615274,-0.7344551405482511
133.75275646,-0.00014313007803020471,-0.00827068866108222,-0.76743863455605
134.25416793,-0.10265201371336037,0.011621840331115598,-0.7905201750549729
134.7505657244898,-0.021206549495037297,0.0744904337388401,-0.46475808878749525
135.246963686,-0.014195434092422068,0.04435171523726022,-0.038122215965851844
135.74837626000001,-0.009603381485104494,-0.0029004720519397883,0.22903266020576976
136.24978926,-0.025867088831756698,-0.011665956675263012,0.2522090013960252
136.75120252,-0.02704701534765183,-0.01683747710861045,0.1919528257934521
137.252616262,-0.005539176282703335,-0.01573116086375454,0.15767339475545894
137.7540304,-0.033245664291388505,-0.02156943117762096,0.146700852217682
138.25043137959184,0.03925583619458539,0.01283021403426065,0.0635338989152128
138.74683292,-0.0002484082144580687,0.005528393271798002,-0.002587106032736514
139.248247716,-0.022750262040555587,0.012197714912248823,-0.02675273259488089
139.74966304,-0.011644109876034432,-0.0016723273207242533,-0.01622013978287818
140.251079646,0.0019085680371236746,0.004688677721372608,-0.0029309849671071754
140.75249638,0.008535804434445213,0.003612634135340139,0.0005915748362117053
141.253913736,0.00434983551673197,0.0009768140117391905,0.0015178340897724532
141.75031709183673,-7.492988645790044e-05,0.008756452944565394,0.002546809544915896
142.24672014,0.008764745764689797,0.0007578988845946919,0.0012026674914076712
142.74813756,0.020710304823606,0.005789490470544702,0.0017062377005388624
143.24955574400002,0.006572182741567785,-0.003877066788731899,0.0019970272639004845
143.75097395999998,0.0074111907159109544,-0.011652445082052694,-0.03160152671805927
144.25239148,-0.004032939461085423,-0.01624179170353757,-0.08253713168995723
144.7538092,-0.01237488562951239,-0.006098056994615118,-0.12560264592897624
145.25021366938773,-0.019759725582946773,0.011495371814328552,-0.1552123049246302
145.74661826,-0.012441312890342868,0.015823717503926648,-0.16837268222591092
146.24803694,0.014933468068161461,-5.9534279606311137e-05,-0.12579690078731273
146.7494557,0.03945206636001586,0.036277137514074076,-0.1384760383272597
147.250874724,-0.03649209590673993,-0.008140497598588814,-0.14989878651032856
147.7522939,0.007500652723736448,0.008811734229927638,-0.13994971807345266
148.2537128,0.018123347549444387,0.050170059136707,-0.02786380036368423
148.75011769591836,0.004425625734387704,0.013337281333666032,0.04080029657742094
149.24652317,-0.020061771067533693,0.019909518063388462,0.14869149285625635
149.74794296,0.004457997986146427,-0.01369125478627788,0.18156155951608938
150.24936264,-0.009704813659426732,-0.03871922802598882,0.09968056958830697
150.7507825,0.00201426842997527,-0.015923108743040593,0.023020474930800502
151.252202444,-0.00481824530388307,-0.011110561336140152,-0.013212200158729554
151.7536221,-0.006221346692564995,0.01994680321365483,-0.003027651926345679
152.2500271102041,-0.007129374957612589,0.005010299350666543,0.00511898169170268
152.74643224,0.01868290676504328,-0.01789637318112443,-0.0020984282761070784
153.247851932,0.039900892199526944,0.008953796688185717,0.015619446252802942
153.749272,-0.03656397754931532,-0.017972788186437775,0.0008481118957697456
154.25069266,0.02589277430379934,0.0017664848980509043,0.004610801684898525
154.75211364,-0.013968104951893432,0.017722541506885556,-0.006284034315091482
155.253534972,-0.0022915086232996387,0.0021372844459524366,-0.0024760804660702465
155.74994214081633,-0.002433344702578975,-0.0009104881244695813,-0.0010706455469281703
156.24634942,-0.0009226379277318566,-0.006403229577169528,-0.00022808521569009924
156.747771,0.0016535432975185987,0.007778978296303186,-0.00021282050034080013
157.24919247,0.005263629471660521,-0.008514874444508469,-0.0019234547283853442
157.75061398,-0.010604836337872226,-0.0030159206462835007,-0.0030525580076765785
158.25203538,0.006372834934647176,-0.010505001105929173,-0.005539149879066135
158.75345694,-0.0034763375740945535,0.009315262509488472,-0.0031193308899011836
159.24986449591836,-3.9447744555759376e-05,0.012340084656794679,-0.0013066453288782848
159.746271842,-0.0036973932993231515,-0.012214290912875571,7.085223197692055e-05
160.247693156,0.002404083256047442,0.006426473375859218,0.004786617456245568
160.7491144,0.0017796682887415503,-0.00305861465539478,0.0008261953096355381
161.250535716,0.0026848226425581962,0.005111760691562653,-0.003810703072898185
161.7519573,0.012587396732750776,-0.0004183882114795295,-0.0022312682108909564
162.25337917000002,-0.010748431712889538,-0.017645812553162235,-0.0029158551678339917
162.7497871489796,0.003383377082890625,0.005170484739024046,-0.00037789609644613376
163.24619535600002,-0.002416007306260538,0.005757594747893372,0.0030945150888237617
163.7476179,-0.00015988803596017758,0.00028047191883547035,-0.0011028015680569587
164.249039984,0.0376667026032627,-0.02844728306308042,0.0001505475356112912
164.75046214000002,-0.047870032658821095,0.019039717638950696,-0.00010150256074962466
165.25188488799998,0.0055221813206443185,0.006686659830623724,-0.0019511635824887733
165.75330768,-0.003793573592358286,-0.00718890770255663,-0.006453275421767097
166.24971568163267,0.003048101563584012,-0.009775827588748412,-0.0031385222231967986
166.74612342,-0.043905666420099736,0.004990841926174384,0.0031705351157851535
167.24754532,0.023390264359016602,0.01704860578895174,0.0037629073742819433
167.74896736,-0.001377517769752674,0.013927698587804523,0.00314255442347571
168.250390124,0.019201338041663477,-0.009738749971282651,-5.975619874771373e-06
168.75181292000002,0.00975838905641819,-0.0013727586908280185,-0.0021304743790147005
169.253235108,-0.005813543167911325,0.007083701092965748,-0.004007550479117097
169.74964301836735,0.007705893320947881,-0.011986090783741734,-0.0017497146561737279
170.246051194,-0.008828535903706964,-0.0030016832097657033,-0.0015664694887655753
170.74747372000002,0.009367880075024626,0.005649279045673785,-0.0004130675481245781
171.248896598,-0.0026073296541187026,-0.0007850363381512815,-0.001596786797253151
171.75031955999998,0.005978092468689511,0.0023272249991657056,0.0006433702722063713
172.251742468,-0.004445836514878655,0.0032753782462705775,0.002204083529831046
172.75316546000002,-0.003827679303361675,0.010817312455303745,0.002251840526138859
173.24957405510204,0.0003278470391976587,-0.0014016779906206346,0.0009202150496632187
173.74598268000003,-0.006676064631892543,-0.005404826927409471,0.000314883098067389
174.24740605800002,0.008059016505907879,0.0019029767102746252,0.0016311566650665905
174.748829502,0.006474474542247407,-0.004775066254761603,0.0023197875510092515
175.250252434,-0.006397519725485211,-0.0034958866074722046,0.002736425089486254
175.7516752,0.00176714418628824,0.0039291193909588,0.003088744478249422
176.253098406,0.003723030118666035,-0.0006894398716968974,0.0023882481169308855
176.74950730612244,-0.0030446656243706743,0.007664498786096986,0.0032004464871263614
177.245915896,-0.0023359557997894797,-0.0118098392905082,0.001304009195457524
177.74733858,0.0017861867430308037,0.0065052207956866805,0.002924585802241304
178.248761524,-0.0014677121269925332,-0.008164814244273646,0.0018799161421620184
178.75018459999998,-0.00482294708624978,0.00223107348947319,-0.00040088331764298726
179.25160769800002,0.0009960813853459487,0.0005484135617430815,-0.0038200820907448286
179.7530309,0.0018606297100889901,-2.933026325842712e-05,-0.0044839887238936095
180.24943974693878,-0.0034135287041655005,-0.001342035022291032,-0.00794954072986454
180.74584862,0.00465372733400343,-0.0026046939843484477,-0.013332970637871155
181.24727194800002,-0.006931792607778649,0.004282315412297791,-0.007967620921594648
181.7486951,0.004676634211968401,-0.0006434216483632091,-0.004253108502040679
182.25011817200001,-0.0026105323375516442,0.002455600199065435,0.009844897622882829
182.75154139999998,0.009954151184738153,-0.006678317017294887,0.0053947994196727345
183.252965144,0.0014222546474800194,-0.022650304033231164,0.005276589138909699
183.7493749367347,-0.01079375926816863,0.007899772317846058,0.004110344006007136
184.24578497599998,-0.016927988017466814,-0.007916237935161406,-0.004804319075687029
184.74720954,0.005774035542853954,-0.0007607816905061543,0.0011257954255711978
185.248633968,-0.008285357211147476,0.01835345142046238,-0.00016187085542426974
185.7500587,0.004711084206611513,0.019945822270947034,0.0021147035861838765
186.25148387599998,0.013440498690925997,-0.0009677393056059489,-0.008342565552943609
186.7529091,-0.001173069405382965,0.009713158737995442,-0.006103954905197118
187.24931944081632,0.007137239170265345,-0.0028714185831863266,-0.006701193775970334
187.74572970199998,-0.0066815736789122915,-0.008012334999267316,-0.006133424381520461
188.24715553000001,-0.004697547409250999,-0.003986157057684735,-0.0004965519503029191
188.74858124,-0.002826794847927154,-0.018756502224229525,0.0032494622947621763
189.25000563199998,0.03076366377166138,-0.004309767848790247,0.0037905887159982734
189.751430342,-0.008551057174213894,-0.03836452376264769,-0.04073771036429715
190.25285591,-0.0035011851400145056,0.017205351544128812,-0.19756242778301636
190.7542814,-0.0075281751156884725,0.01771820952076047,-0.3637272949724805
191.25069201632652,0.008971353996886918,0.01472681616929547,-0.4554614929439027
191.7471026,-0.023968009591464164,0.015331705894261288,-0.44977944777575357
192.248527306,-0.021779434548867316,0.03438515067279374,-0.4893942608143854
192.7499519,0.0016428547893196734,0.03008288023791818,-0.46514154359178694
193.251377232,-0.002656233704403076,0.04305394224276729,-0.35291813051038856
193.7528027,0.0070272892058358336,0.038757879760126984,-0.1284462705297745
194.25422813199998,-0.00490569750837148,0.0007829528375346875,-0.031246716307013506
194.75063935714283,-0.009470546340942592,-0.00588568819264605,-0.024222965398802112
195.247050266,0.013354410162224169,0.014210398237690425,-0.01649610762036682
195.74847544,-0.0021843667411211706,0.014559022750121569,-0.014038213461148951
196.24990106799999,0.00922318775999363,0.002069903502847201,-0.01334695483334375
196.7513267,0.0025165852084321123,0.00011376842314964518,-0.021009140653347896
197.252751986,-0.002407650203906015,-0.010275749456659744,-0.03848674362807101
197.75417762,0.00416048708401899,0.0006013489891997499,-0.041203624859208546
198.25058888163267,-0.0005133941222588641,0.006817220661290789,-0.037747564555993936
198.74700038,-0.0007919165262391496,0.0009332281805053417,-0.02095012894714535
199.24842658,-0.011859067481788723,0.0011013583413500686,-0.0010388470881828125
199.74985288,-0.006624362173763701,0.0031524467746037355,0.000980226883012956
200.251279314,0.005324012203378312,0.0040711545809991034,0.0006432695984571167
200.75270576,0.005410349421208949,-0.009094940355727991,0.00019736549008637124
201.2541329,-0.011361634460419198,-0.0024426803534868128,0.004847185369629547
201.7505459612245,0.0060188474906739545,-0.011730318352070694,0.015160921853015577
202.24695796,0.001445696614816836,0.015245015299608065,0.02937179281107467
202.74838405999998,-0.005166394210839229,-0.004238872988726751,0.032372002544824516
203.249810782,0.004019062242344953,0.0018187400762443434,0.0358261856539218
203.75123756000002,-0.005330702379708087,-0.0067183687793365395,0.02989947782522359
204.25266443,-0.0033262181425330133,-0.0026863234688383323,0.008520162791468668
204.7540914,0.009937510158368966,-0.0040402964390877875,-0.00024854190774579126
205.2505038489796,-0.009490014222600365,0.0016490147011195397,0.001132232729838233
205.7469163,0.00627180436520261,0.004165607198271802,-0.005933274885177713
206.24834274,-0.0012765899314352825,0.0003390711478651213,-0.004550190362885245
206.74976906,-0.004078113676898684,0.007336766487941131,0.0006189740568541727
207.2511962,0.0013115929991636866,-0.0012533834417847313,0.0015373660696844599
207.75262356,-0.0029635584770260235,0.00010493211977618454,0.0002550597800261313
208.254050498,0.002162133397128745,-0.005246436470625164,-0.01672967396756164
208.75046315306122,0.0030484434066851895,-0.006192219239893693,-0.02556722581547137
209.24687574,-0.0005402553353170645,0.00011316369251358093,-0.027327456813607723
209.74830247999998,-0.00397013413407006,0.006547165784977571,-0.02362765406391067
210.24972984,-0.001161024087309249,0.009766349494581206,-0.02965658139974149
210.75115738,-0.0011521016497110536,-0.002443180335312395,-0.02166967899008562
211.25258466,-0.0008110911952449793,0.004015500533943548,-0.010169024565842146
211.75401178,0.005560175148223323,0.01203421869207701,-0.008405915569054184
212.2504252142857,-0.0011373164032989855,0.007192071034939818,-0.012524523688068155
212.74683892000002,0.0011601921717170438,-0.010930001302115723,-0.03365827924616478
213.24826646000002,0.0029287302007229067,-9.813122540353408e-05,-0.05918549534714744
213.74969414,-0.006035094190909545,0.011098709617560152,-0.06347463950595474
214.25112249999998,0.003768276168964506,-0.00392225545192348,-0.06359098641309012
214.752551182,-0.0022170763629294227,0.00958509819283678,-0.06450203442904323
215.25397991999998,-0.002023484970507828,-0.016352602678901186,-0.06831932900589038
215.75039448163264,0.007818364555636689,-0.009176097618370186,-0.062131767960361135
216.24680912,0.005832128505423748,0.011634701806955519,-0.05703334897578498
216.748238,-0.006840987220623992,0.0056433759115216975,-0.05941451320242094
217.249666868,0.005055162331418105,0.0014585201286367814,-0.059211482191915875
217.75109562,-0.001634359473434353,0.009567244659145458,-0.059145607880455184
218.2525249,0.0034214437607522864,-0.0033726531021644234,-0.06135550367504375
218.75395433999998,-0.0001703314110205891,0.010619106227830823,-0.06158672826405203
219.25036907755103,0.006338353008857407,0.0019454743178997653,-0.062344110590680915
219.74678380199998,-0.001939635768643047,0.007204727483742909,-0.05916361838162984
220.248213174,0.002433046167304355,0.004188603404667589,-0.039403795395576396
220.7496427,0.0018103069670966515,0.006411874024837973,-0.017951171549036856
221.251071948,-0.0012854983059668085,-0.0013169401265929969,-0.029782533067423865
221.7525012,-0.0012025793064437949,0.0029765318799369594,-0.02863784212932306
222.25393081800001,-0.006877710818736823,-0.004346897385699281,-0.035566180759213514
222.75034620204082,0.004144362849419913,0.006278504897590284,-0.04683786598544787
223.24676136,0.0016539397604045055,0.018558976567867244,-0.04289599751347243
223.74819072,0.005322203613452988,-0.0010592511379360133,-0.01897147941383979
224.24962043399998,-0.0012911296061048016,-0.0033527499923707237,0.010540513093043304
224.75105022,0.0027490670963158494,-0.01608396117094555,0.03250426714265694
225.252480032,0.00214873617512601,0.008737107814808841,0.04317770935591378
225.75390998,-0.003158276172798341,0.003562288984332967,0.03163206500278495
226.2503251755102,0.01092951892375273,-0.002249557667450174,0.016370977149163975
226.74674026,0.0007469110655739565,-0.0193264422070511,0.006304592665375122
227.24816967200002,-0.0068421937348050466,-0.012375083000119773,0.020513148450709427
227.74959901999998,0.000812013721741628,-0.023445617978926594,0.04293285210812593
228.251028708,-0.002157322935374878,0.0030016163757544236,0.06982634662642796
228.7524588,0.002054371015363141,-0.009547122919973198,0.07197313313330601
229.2538889,-0.0025461447902118723,-0.008668891809350404,0.06231611364571824
229.7503049,-0.0011336054042141639,-0.002147369941092038,0.06557556730074574
230.246721192,-0.0031791007789177695,-0.026237514806042094,0.06829172772829831
230.74815193999999,-0.00889987352500884,-0.013819551792630547,0.07186187870095774
231.24958268400002,0.0017460610916968371,-0.015035984217811181,0.07385950732537416
231.75101334,-0.0022197416816988245,-0.01562738155130159,0.06979569560094087
232.252444196,0.0028346525050497035,0.0006684016823531916,0.061950588307676656
232.75387508,0.008286721916269396,-4.03888980191041e-06,0.07601044977692141
233.2502915122449,0.004227369929765589,-0.0021556952361120405,0.07504731470313226
233.74670798,-0.0027987360304637336,-0.01973403336494239,0.07168423465663734
234.24813938800003,0.005497084928510764,-0.015095193803657005,0.07501023257389632
234.74957116000002,0.00035140675063259456,-0.004977978072135041,0.0750579552976094
235.251002552,-0.003546357184772664,-0.015500244822790221,0.061323491012790124
235.75243397999998,0.0032147605869520283,0.006180294409947695,0.05499813557869771
236.25386572800002,0.002501760241668231,0.007771604808755466,0.037238031431114045
236.750283122449,4.319700435920067e-05,0.0062992409455159765,0.024232927029529058
237.24670078,0.003964690311921453,-0.0019341784526898304,0.023838777480864784
237.74813288000001,-0.0015259095012354542,0.007099264382902764,0.03839520235660541
238.24956525000002,-0.0025709564756108442,0.007406903872375197,0.042815454794258336
238.75099782,-0.0034225637178542856,0.002690367771116192,0.039137931196345656
239.25243007600002,-0.0047254281916070005,-0.006868529312597017,0.0422774674318396
239.75386228,0.01845271421631741,-0.0020894543392140337,0.04460258225237802
240.2502806122449,-0.0018201131078385661,0.0028638090408283114,0.028824602951433336
240.74669918,-0.007710053028411535,0.0062604993780433545,0.013925477992223309
241.248131764,0.0029343152085477926,-0.0013858521335561515,0.0069039856472555275
241.74956402,-0.00041017250355870986,0.0019196913600386797,0.002608364712833355
242.250996554,0.0024309955841607,0.0008448238898075719,0.00017450615542043596
242.75242928,0.0013859152444970113,-0.0009789450486032112,0.0009543191526863921
243.253862428,-0.001602453361548297,0.0015602663632714694,0.00015070707226443001
243.75028142244898,0.0015900168947273277,-0.0005169488713942177,-0.00030091484290155124
244.246700876,0.0003828445816977193,-3.278326715831095e-05,-0.0006604756665165727
244.74813500199997,-8.32512931019283e-05,-0.0003062939755587167,-0.00010549238731843482
245.24956882200001,8.887886219602372e-05,0.0005372581215742219,-0.0002785125600886818
245.75100262,-0.0002272559322375741,0.0003794300098928116,-0.0002210629625617145
246.25243702,0.0003842976709840941,0.0001639810517124695,-0.0007709913488911983
246.75387148000002,0.000623685111771967,-0.000257881152381291,-0.0002610157129648933
247.25029165306123,3.175254212513342e-05,0.0006600530660623735,-0.0005231700071884662
247.74671181999997,0.0002271943287286194,-0.0004686269566371254,-0.00013260767649975443
248.248146328,0.00020285000234111916,-4.9675590728947835e-05,-0.00012243505495597293
248.74958085999998,-0.00026789564441482053,-3.861585364409445e-05,-0.00020020305983168662
249.251015524,0.00028236980543607643,0.00010604863308755566,-0.00044894092168519073
249.75245036200002,0.0004902908203745912,-0.00019602064873316504,-0.00048361836470014135
250.253885148,0.00023407546184006558,-0.00021164235110548028,-0.000394738620436031
250.75030562448978,-2.8281433424456826e-05,0.00021538745758400656,-0.0007640629052803363
251.24672586,0.0001517448969633934,7.766389387988318e-05,-0.0001640897099793436
251.74816026,0.00011500209770521925,0.00029692064034421564,-0.0005460172272236723
252.24959448,9.070991990472884e-05,0.0003336087482914572,-0.000148047714889774
252.75102868000002,0.0002538772154456627,-0.00016775759487218663,-0.00028038521561023005
253.25246353999998,1.2815973673601987e-05,5.9649851551476784e-05,-0.00024186064153437176
253.75389882,0.00014221528173604192,-5.265183569545474e-05,-4.11163900703e-05
254.2503194734694,0.0006627457830905006,6.229192294071943e-05,-0.00033831761703410223
254.74674028,0.0007565693722588393,-0.0006447097860098885,-0.0005331185677968527
255.248175686,0.00015460248027276323,-0.00013332479697498531,-0.0008007403244224585
255.74961132,-0.0001830780029163665,2.7708254816415736e-05,-9.942087515340777e-05
256.25104747,6.72878105603103e-05,0.00011417288230864078,-8.477668182256514e-06
256.75248372000004,0.00035711451727031497,0.00022407672920457384,5.679974223516465e-06
257.25391937200004,0.00045973354970514245,0.0003925001550211271,-0.0006417595822621831
257.7503408632653,6.249283336027863e-06,-0.00019474185020751687,-0.0005131739932302688
258.24676251,0.0001919716481241536,-0.00046329379982537703,-0.00029413574153719466
258.74819878,-7.492953388512304e-05,0.0004053491898950431,-0.00016240453221091921
259.24963517,3.938071726192474e-05,-0.0002048781506336458,-0.0006209429231986363
259.7510714,-0.00035380807439990046,0.00032102500301410796,-0.00011585659801577181
260.252508104,-4.05827721980455e-05,-0.0002691129618196062,-0.00036805798393087675
260.75394484000003,0.0003121094787649855,0.0006362113938784881,-0.00042737567798512526
261.25036768163267,4.6931594090854516e-05,-0.0006272556934484874,0.00013719395896178818
261.74679078,0.0002713719163877723,0.00014696158446164215,-0.0002367397499811872
262.24822758,5.714955211277204e-06,3.0961167947699805e-05,-0.0002857074424787531
262.74966412000003,0.0002505174509757666,0.00016511151240424502,-0.000409090608515184
263.25110132000003,0.0002307194506674555,-8.751820208552865e-05,-0.0005297843401869028
263.75253878,0.0002168632536989565,-0.0002707604125679316,-0.0001458978746030153
264.25397576,0.00014257291098682722,0.00017016231471256684,-0.0004471528971300719
264.7503983428571,0.00018226532719217903,-3.252005633304572e-05,-0.0007147761614131577
265.24682103,0.0003556092532184643,0.00011209366352509655,-9.315264777652294e-05
265.74825812,0.00024712288354013077,-0.00010637235715753375,-0.00043505786300470294
266.249695292,7.3632910778150964e-06,-0.0005985966153659061,-8.973437826183564e-05
266.75113256000003,0.00017608755465985923,5.314727850872696e-05,-9.684122683284725e-05
267.252569632,0.00014440636354995322,-0.0002439360191279112,-0.00031023901045651204
267.754006522,7.083558090588311e-05,-0.0005084207265541054,-0.00010833035784038534
268.2504297612245,0.000104309098114941,0.00022915519442339347,-5.93016241348279e-05
268.746853442,-0.000206566885704812,0.00025995488061347717,-0.0002709204633895032
269.248290496,0.00046725625570910633,0.0001615813893930755,-0.00016268215333572027
269.7497273,0.0002645036142800637,0.00032979298270322297,-0.000289022735639675
270.25116464,-1.4644963923200337e-05,-0.0005089711704314121,-0.00012063022575066738
270.75260216,0.0001758778090747778,-0.00013921775916048696,-0.0003745952919798222
271.25403976,0.00013838113343879954,-0.00039052644771646035,-0.00048116347855819833
271.75046296938774,-3.797866929891725e-05,0.00023382799243029293,-6.667640301592711e-06
272.246885558,0.0002885590677024695,-6.841298410105753e-05,-0.0002530776159013013
272.74832254,9.749165277690796e-05,-0.00036837455503279515,-0.00034542234269417145
273.24975977400004,-2.921067838744174e-05,-8.304817490913853e-05,-0.00021602008916378997
273.75119702,-0.00011222555855251224,0.000324061825255492,-0.00035215400746133345
274.252635136,0.00012805813206919882,3.2143123772178115e-05,-0.0005251205443454728
274.75407386,0.002532803782062782,0.0008539430275653466,-0.00020808080484484986
275.25049779591836,0.01762512166355016,-0.0015646858553881923,0.00015808602742747128
275.74692196,0.004547788892054088,0.010109345257140225,-0.0031507222224904734
276.24836048000003,0.005681058192894923,-0.0005879871119849689,-0.003338890113037402
276.74979896,-0.003081370983079538,0.007150414488630405,0.00019515201823254834
277.251237812,0.00046755127119046074,0.0026495289927717697,0.03788313952823591
277.7526767,0.004924397336817128,-0.001173940011130851,0.06583387867175632
278.25411603199996,-0.017925133040238878,0.0025289781181579026,0.08083140672668757
278.75054147959185,0.004561539539138936,-0.0009024527414321797,0.06221805635942461
279.24696588,0.013183501175301189,-0.0002484735455005044,0.061132982343586696
279.7484041,-0.002894017638472924,0.002379964968177832,0.05702913462275787
280.249843144,0.00209019623244455,0.004807571407334518,0.048405339792348255
280.75128236,0.0058609881348507566,0.00537386363620805,0.016324746970487847
281.25272134,-0.0015369620421427825,0.0007730891742320376,0.010102922323078616
281.75416036,-0.005351068927078412,0.006481038523480106,0.017583057694205772
282.25058523265307,0.01850400813925925,-0.03340656640888641,0.014188348074743295
282.74701036,0.012612210877782346,-0.012881228473823232,0.01439564210413218
283.24844942799996,-0.05386733932965204,0.007747731210767858,0.014515721285768356
283.74988852,0.012875031387571114,0.01773330149786642,0.014333705648790657
284.251327762,0.005269376176812076,0.013763848264251342,0.008943373568551554
284.75276688,0.015064402957921386,-0.006533514764268374,0.0012397051545031857
285.254206314,-0.0024610614891214665,0.02088585521786139,-0.002879235534121427
285.7506315102041,0.00030672987278224377,-0.0046668348861030684,0.003779807182972202
286.2470567,-0.00835033795867284,0.0024285298825108856,0.05085767864567493
286.74849614,0.002620124136573209,0.001872247889692149,0.07141641307222399
287.249935494,-0.01706221029144258,-0.01682284286824193,0.07514561549397156
287.75137490000003,0.007536260681190775,0.019262172573438204,0.08493864317668867
288.252814736,-0.000481764737366449,0.0014178333184342137,0.09705584150974964
288.75425516,-0.005457579650108711,-0.022920953275201657,0.08042903678796431
289.25068117755103,-0.006801451844475937,-0.012769070698340679,0.027468923744888837
289.74710776,0.01019625708745826,-0.011644332565595389,-0.025975104042224965
290.2485482,-0.009104927239626184,0.003536111230641194,-0.04322905256509854
290.74998836,0.003550412810304623,0.006188457548388467,-0.04011308086208326
291.251429486,-0.0026938937121670247,-0.01618550167393054,-0.051078771868880546
291.75287068,0.006542692481051953,0.003658970178355865,-0.07416934459446842
292.24929761632654,-0.00282888105364801,-0.004823766885486194,-0.08091101324683855
292.74572476000003,0.0031680413109366713,0.005251955471435004,-0.08449175364657262
293.247166268,-0.002095573989745652,0.0007701542618644341,-0.0903488864770061
293.74860796,-0.003014207112389132,-0.002492968627493439,-0.11428363051753171
294.250049536,-0.0023069958182604226,0.007322317669415002,-0.1119980202964502
294.75149082,0.0028837859628490694,0.00608594847436529,-0.11466130228401564
295.25293244799997,0.004136061020968087,0.011316660867036121,-0.10582373537617112
295.7493596387755,0.006767268906182978,-0.0010015759638146513,-0.10118058217989284
296.24578726799996,-0.006523253528343989,0.0033823909887029115,-0.10486598669813517
296.7472297,0.0017236233972834113,0.027792940134233935,-0.0950805683837844
297.24867172800003,0.004040108537158428,-0.0028501551065751736,-0.08121596120590596
297.75011367999997,0.0015692803318635043,0.012056837906592694,-0.06422210822428731
298.251556096,0.0036336736884050396,0.01621582481290557,-0.023980413711306485
298.75299878000004,-0.0011698850265209409,0.008465044967231088,0.008191888367891871
299.24942669183673,-0.01453527264356451,0.0025547481306812856,0.005918843324089222
299.74585428,0.006019770588989124,-0.002142148685326641,0.0012378870125392767
300.24729701399997,0.0031554054831952876,-0.006009014358558277,-0.0015346662378324194
300.7487402,-0.0014245266516995747,-0.004291236278004888,-0.0041981522039396145
301.250182944,0.0033950302740867345,-0.0019521232042972667,-0.0068484451667392265
301.7516257,0.0026830807177528134,0.008516890728783049,-0.0008440561331941139
302.253068156,0.0017149851234402663,0.009292149083778315,0.002175755496821035
302.7494958755102,-0.005197376693515648,-0.006929225558968029,0.0002108924362364843
303.2459243,-0.006129511690206523,4.409171658108592e-05,0.0051357702057812545
303.74736726,-0.0027576022105090334,0.01557831743109363,0.002305708411457737
304.248810412,0.013588967734730126,-0.006548501791724005,-0.0027366734655181694
304.75025392,-0.0047899577317567265,0.00043283411467510497,-0.0016368999034203123
305.251696948,-0.0011027246644826475,-0.01617855979892478,-0.0014211811220195757
305.75313968,-0.0018364091706749939,-0.00515376635750097,-0.0022304795547651423
306.24956859183675,0.006141393713253478,0.007199088817353905,-0.00036791397333715836
306.74599758,-0.0005350019648333202,-0.0021562393455877883,0.0002608773814824766
307.24744100600003,0.00512420936900736,-0.00658094434135752,-0.009764542728907182
307.74888480000004,-0.00499714544743126,0.01083061716156154,-0.003238221491732759
308.250328164,0.007358648356290643,-0.004501237394061286,-0.003616984132471435
308.75177122,0.0008210547505055417,-0.0009682397666539727,-0.0008453602180816081
309.253215194,-0.0025718860112696994,0.009070949937674372,-0.0010444846778751085
309.7496451755102,0.0006308892144795134,0.005633182471737586,-0.003925701579651407
310.24607484,0.0068416937751114406,-0.01430443658447327,0.0023912444300885445
310.74751926,-0.006531906404975315,0.013160479716457708,0.0025699115670063306
311.24896332000003,0.003949000084167162,-0.009982806399768016,-0.0028374873784312023
311.75040702,-0.0001399118395870913,-0.0009813478246502114,-0.0028786040788796037
312.251851366,-0.0033618274069450726,-0.002036383354418189,-0.0044323810364596565
312.75329596,-0.00759880341466581,-0.007514928537687582,-0.0005911247331787121
313.24972591020406,0.003603248958903835,0.010516557378888626,0.000809586591980995
313.74615598,0.0008471418398748416,-0.005628095663235606,-0.0010273653848129449
314.24760038,0.0031689614212187583,0.003186043998568826,-0.0015216145377659294
314.74904452,0.00033026645889596226,0.012432672546519932,7.041576991597362e-05
315.25048908,-0.000996157755125568,-0.009415357748221921,-0.00024825559029898457
315.75193348199997,0.0003818150210250536,0.0020458733850871793,-0.0008915353605810139
316.25337816399997,-0.001489607666384542,-0.0023844256555295247,0.0005989293672581273
316.74980870612245,-0.0020935527936778654,0.0022682878066521265,0.001176993229963331
317.24623832000003,-0.0009558977366148024,0.01119069264299287,0.000286878589146385
317.74768202,-0.00018921055628236442,-0.0034889597857773107,-0.004423695237232992
318.24912658,0.004673842594408196,-0.002051074886629151,-0.0005007900664388763
318.750571686,-0.002626719914612867,0.004930802494170997,-0.00023923522323529824
319.25201652,-0.002255414281981974,-0.004923302986263584,0.0006586232148600714
319.75346160000004,-0.0035317816895470765,-0.004687635557335766,0.004006346101206607
320.2498921714286,0.001519138547459318,0.0010584334086991209,0.0023594556164458825
320.74632248,0.00333451798128584,-0.001049099166965362,-0.0025533128311120102
321.24776792,-0.00093506034779713,-0.008467560534506403,0.0009936160767642236
321.74921353999997,-0.0019368285951621759,-0.005260900940301377,0.0014215987001941867
322.25065883999997,-0.0020280651952032974,-0.00489276895218639,-0.001872118647003501
322.75210405999997,0.004605214008053395,0.003337260031376728,-0.004538572422508689
323.25354962,-0.0018521961136830608,0.005427348414949584,-0.006006320971833915
323.74998145510204,0.004720233796574984,-0.002139938929334665,-0.0027081512582480217
324.246412486,-0.0006900013174378216,0.0027200961113890893,0.0011401333083349743
324.74785808,0.001558338732258514,-0.002284028264985944,-0.0005026753851902541
325.24930355,0.00032320806304027603,-0.007475057431383935,-0.0008950464875886674
325.7507489,-0.002057303564039786,0.009640840967457981,0.003170838933061617
326.25219459799996,0.00525119493946038,-0.00619205609071291,-0.003896055194536033
326.75364032,0.0004510593309880347,0.0065410960356615255,0.0010957717950710532
327.2500716632653,-0.011598681107539891,-0.001848206263283571,0.0018189401274911912
327.74650304000005,0.007060426427485753,-0.008443539605129162,0.0033453326913800148
328.247948886,-0.0007372679173092045,-0.00587861533771969,0.0013365858204345557
328.74939464000005,0.008607920019480323,-0.0016652233562986967,-0.00023014195919292583
329.250840816,-0.004821959763952194,0.004740181329264635,-0.002046663159325858
329.7522874,0.006821937429749961,-0.006760292682400444,-0.0010159474642137858
330.25373376199997,-0.003834336469814613,0.007691834629313637,0.0029858279349410373
330.7501658285714,-0.012167865090996034,-0.002568346051055174,-0.0007863572498918007
331.246598064,0.006868490108715531,-0.0020161224453839046,-0.005774142298548518
331.74804456,-0.0039670723360151474,0.01059596027935539,-0.0010672979295215713
332.249490926,-0.00046255344936623865,0.000923225076191656,0.006744048237361335
332.75093706,0.002412668804073793,-0.00841851804107293,-0.0034772728626289943
333.25238360199995,-0.00037983286431869857,-0.00023997187723876943,-0.008621353404476263
333.75383028,0.002121477447197988,0.0077979515763089416,0.0006618788399237589
334.2502628755102,-0.005757426378506562,-0.0004919029165397417,0.003295526099505985
334.74669574,0.0038210622418711287,0.0013214754465409528,-0.01465207003432693
335.24814338,0.003957781037621448,-0.0003213473572817431,-0.012908353249494882
335.74959134,-0.00035002634851024055,-0.004014200675178825,-0.013172385250243128
336.25103895200004,0.0014758100993529592,0.0022608866438022022,-0.023074132751342798
336.75248614,-0.002360156907501422,0.003943279746087839,-0.02788289978915264
337.253934014,0.0024659314131109463,0.01037876097967359,-0.03708459483831746
337.7503676142857,0.0005234064911111498,0.007623786820687601,-0.052816114976253645
338.246801088,0.004628671567713762,0.004547156708975975,-0.05776033383480614
338.74824894,-0.00013796983008517325,-0.0030540469169336158,-0.05465312197158627
339.249697076,0.00047048833134156494,-0.00017493969004630627,-0.05192801647593994
339.75114546,-0.003099195809242283,-0.008300665855770132,-0.04736742204082955
340.25259377599997,-0.0017191844037480642,0.002557075140594046,-0.03204839602469924
340.75404249999997,0.00470453228105319,0.009643455948141479,-0.01610236002958738
341.2504762755102,-0.0013534582772789018,0.0018756146962676363,0.0007420767652792674
341.74691035999996,0.011810878321713627,0.0021449331529007527,0.0074690261618404604
342.24835869000003,-0.013891196401414493,0.0028929802646834707,0.007007638125292231
342.74980694,0.008561221085736327,-0.0024939520263393853,0.006651107462652691
343.251255704,0.00810328718966366,-0.0005981747340172324,-0.0018448419581670913
343.75270426000003,0.0015415032900126583,-0.002669797811599127,-0.0012370701403353784
344.254153236,0.00889680151512026,-0.0018145455967543166,0.00015823419107253569
344.7505881122449,0.010040393106610269,-0.0013686243739720733,-0.00045003551462945824
345.247022458,0.011483546934798961,-0.0026736680576891388,-0.0010380976551924485
345.74847108,0.0041993385386457855,-0.007150530472284593,-0.0171627684784504
346.24991989800003,-0.004846094217976833,-0.004618036580647782,-0.0801154959188848
346.75136832,0.004360729902022306,-0.005988794270452399,-0.20109231597061075
347.25281696999997,0.003600058314939677,-0.01540370131832707,-0.2716280863091562
347.75426592,-0.02818782199683022,0.016091758528061866,-0.2819572635848623
348.25070008979594,0.004867468380940698,0.014013551302055009,-0.23132817785492973
348.74713474,0.0030794806406935766,0.015061219755615902,-0.23907738528135491
349.24858356199996,-0.020574728061859785,-0.0050933586212510455,-0.333565435344142
349.75003214,0.0019566333703963314,0.03331481606694074,-0.3368813684661086
350.251481572,-0.00042160196877371226,0.03441622473444411,-0.3054312834087705
350.75293062,-0.004519641128079611,0.028046612670862628,-0.2139971922292137
351.2493660102041,0.003046581503045567,0.03216794734022025,-0.11050911695249606
351.7458023,0.013667732875931865,-0.00837930019956785,-0.04431034746052681
352.247251416,0.006889448233388448,-0.0009491003705579616,-0.032902669425560596
352.7487006,-0.007541819379600561,0.007292565494164117,-0.02294459633695148
353.250150586,-0.004459300715412402,2.254711450410715e-05,-0.005535389632191801
353.75160054,-0.01416875182930558,-0.0017031022954665381,-0.012904521252431531
354.253051424,0.012988420872241844,0.0037263654983677986,-0.0024960662557647413
354.7494876,0.005781811020594136,-0.00025686071348544415,0.0033242182731385104
355.245923088,9.275315638469665e-05,-0.00523070260947488,-0.002115826818067909
355.74737309999995,0.005203884822206653,-0.002369072270969531,-0.0026466204938089266
356.24882396399994,-0.004437507965677796,-0.004396144035779052,-0.0005584676908315251
356.75027388,0.0016083592140449501,0.0018249712308470848,-0.004835066521203818
357.25172469999995,-0.00022770075890281218,0.001607585951028635,-0.00376733397664159
357.75317548,-0.005225798698836136,0.0009453415588266496,-0.0027321225255723257
358.2496118489796,0.0020880656240185795,0.00012479959297830303,0.0039481899480635785
358.7460486,-0.002954459532910437,-0.0012413922773538309,0.004223829615616137
359.24749964800003,-0.01734431383740967,-0.0021211296541632074,0.0010765205354735564
359.7489504,0.009681409995980099,-3.295201530713332e-05,0.0020355895174803814
360.25040187999997,0.004278989637863968,0.0005380501788848983,-0.0035279157179155573
360.75185378000003,-0.002968434518481774,0.003268554788083875,-0.004166508974488415
361.253305456,0.004344181001030832,-0.002282353457838298,-0.007332682351537842
361.74974288571434,0.004271319115346333,0.0018665813510328185,-0.0043775609215126144
362.246179722,-0.0028572941294619917,0.0031098702400869675,0.002430942986072592
362.74763065999997,0.000551552166517703,-0.0013563761289572826,-5.2425383670002466e-05
363.24908235199996,0.0007173190771562912,-0.0007467379544362713,0.0031916043730728524
363.75053472,-0.00012718550788761617,-0.005607821028089076,0.0010362884626113334
364.25198660399997,-0.008291463617735268,0.0012266780672695718,-0.0015816983436788994
364.753438064,0.01300313077780922,0.0008509683195392582,0.003306559099635994
365.2498758530612,-0.004386481861353109,-0.0032909075606694766,0.0011883248105970942
365.74631464,-0.0050056128961743175,-1.69154030738658e-05,0.0012189070272225642
366.24776726,-0.0010905145557688972,0.0009012589328171816,-0.0030289931255800258
366.74922028000003,0.0019532601216815356,-0.0023928035652612135,-0.002442157802917209
367.25067315,-0.009133776416906846,0.004457283410479447,0.0005562584043459959
367.752126062,0.006401440490523453,0.0022669649492920644,-0.001055102422011916
368.253579108,0.0007348839036411927,-0.0015392760297693665,-0.001038249467677251
368.7500177632653,-0.0014148404966328196,-0.0004701068940608443,-0.0016628320512374487
369.24645653,-0.008812066710047622,-0.004437005840631375,0.0013699299419378077
369.74790962,0.004111288230546559,0.006067172937825077,-0.0003636013272110993
370.24936328,1.0921868402450456e-05,-0.004260435906721369,-0.001038422540369993
370.75081744000005,0.00229597560761686,0.001049879621456074,-0.0038428888438071357
371.25227126,-0.0005376706399261789,0.0022025561252647006,-0.0006534514231790387
371.753725,-0.005457738123067018,0.003949550185165043,-0.0007542001984053447
372.2501644183673,0.019974782996286203,0.004093443969398202,0.004339467308247198
372.74660362000003,-0.00388164694189416,0.0048484874968168215,0.002471921830593377
373.24805774,-0.00757116269883566,-0.006330174516584955,0.0008069397282672191
373.74951186,-0.0003247779579532674,0.005003852137235242,0.0018430641376872866
374.25096608,0.03488427256478167,0.0033724263094622215,0.002977267119296749
374.75242039999995,-0.0003129139863045868,0.0030584067987813046,-0.00028807396311685647
375.25387480999996,0.0026702237375788086,-0.008178657660182186,-0.00279597846991465
375.75031541632654,0.0024575208492848485,0.0031296550830539264,-0.00023705080178571214
376.246755308,-0.005105988487275163,-0.0038723870674176523,-0.0030593983601707193
376.74820897999996,0.020446292800653555,0.0004347491480962587,-0.01092000768575918
377.249663288,0.018077639274643637,0.005852762390220253,-0.027408114282232648
377.75111808,-0.018541351427119313,0.019933314498331123,-0.01987130204420535
378.25257251000005,0.004037775012000022,0.008914413087215755,-0.003710841727576401
378.75402723999997,-0.013411610607625404,0.011980330473676706,0.018179226312632007
379.25046736938776,-0.001570995482411156,-0.0176014749956016,0.024095713365069337
379.74690690000006,0.028064930707858163,-0.02233181557416894,0.012906914451061131
380.24836194000005,-0.040609466387227136,-0.0006980105127638899,0.012298162681291127
380.74981714,-0.015991080107298113,-0.004396188322079258,-0.0020375489567632413
381.25127258,-0.018375829322660336,0.00100487146224354,-0.010527109060679512
381.75272812000003,-0.011081914401804114,0.007196221685452708,-0.007579606955990823
382.254183828,-0.01717367781840172,0.004150466258540213,-0.009945624897876324
382.75062524489795,-0.011455061587830386,0.01001817257604533,0.01620468730763872
383.24706672,-0.007451614446593134,-0.008855487229341515,0.0063740860235970455
383.74852336000004,-0.008282983519843279,0.005767830481270894,0.009675967038530185
384.24997973999996,-0.006081197068726417,-0.007708982138335838,0.0049653907570695694
384.75143562,-0.03724971975143791,-0.018183794027496272,0.005819257348739203
385.252891792,0.007417454618074214,0.016286210047413926,0.018859069220644457
385.7493333285715,0.0008469832646516583,-0.011464950361158074,0.008252029945640976
386.24577507000004,-0.005675889189687455,0.009659882572184874,-0.0057877513941416185
386.74723178,-0.0025838307969976064,-0.006516101205163181,-0.014909237223832977
387.248688064,0.008817021868648175,-0.013168699997063103,-0.016632188547986336
387.75014391999997,-0.001297929599625679,0.014570845911588002,-0.012596761009578296
388.251600408,0.00824623876648791,-0.0026937776069404142,-0.009284254522450443
388.75305714,-0.0039744302629109015,-0.002879931086720682,-0.004043610668691727
389.24949930612246,0.008496156797280385,0.006112189197149124,0.00011956015344317466
389.74594190000005,0.01250132146442362,0.0015945768067165984,-0.0010653246276429
390.24739887199996,0.008111039140121257,0.0027660161485960864,-0.0005973183173526043
390.74885611999997,0.008610129260260432,0.0018891155282847153,0.0007166781270469833
391.250313182,0.005238553641758093,-0.0033533245670575623,-0.0025354596390271787
391.75176982,0.0014845019530232697,0.0068487998740694835,-0.003884957371210224
392.25322656,0.004078684993141329,-0.005749007414898591,-0.0011160571515946179
392.7496686102041,0.014696574884138764,0.005671687535337421,0.009663643665782314
393.246110672,7.241402696530244e-05,0.0016393124643949031,0.010634837584187515
393.7475677,0.0074592404633522045,-0.0076759567186005925,0.0021612823433192845
394.24902446,0.0040463924022115525,0.0009528053927494203,0.002840580007734786
394.75048133999996,-0.0020915488043595004,-0.0031524492672104863,-0.004351081623556484
395.251938336,0.008010328269192547,0.006283057725665469,-0.003507260878250141
395.7533951,-0.0017636061764362406,-0.00040809886512814373,-0.005297774851349552
396.2498378285714,-0.0010429584594691137,-0.009988741816385538,-0.010612335316563753
396.74628098,0.0050873669697187075,0.004093019733732511,-0.005863629578234528
397.247738504,-0.002602405249085318,0.00786481690442925,-0.0013071965789316004
397.74919626,0.003493056295330253,0.004648288539193512,-7.805103690558814e-05
398.250653932,9.802003048845119e-05,0.0013228148244981204,0.0017931777864921058
398.75211102000003,0.001781448183979,-0.004116851104438304,0.004372132807177924
399.25356889,-0.004551663799257734,0.0028972788120347225,0.002830675370847153
399.75001271020403,-0.0005373214342554367,0.00048634999265691003,-0.0004564101912601722
400.24645604,-0.002972024213250385,0.003512512627415732,-8.87201472301775e-05
400.74791376,7.572356544799108e-05,-0.0033106576994307705,1.4918520432782205e-05
401.24937134,0.004573596502384442,0.003445675188817718,0.0005627900689167504
401.75082890199997,-0.0012492491839659237,0.0004165644238764409,-0.00047011534705444975
402.25228625000005,0.0006396184201515072,-0.0033794347691624006,-0.0012117204690627924
402.75374334,0.0017871994784378741,0.004665882639115036,-0.002056887376868714
403.25018616122446,-0.002996811223968091,0.0012286812159469378,-0.0026726343096703424
403.746628902,0.004925918536441686,-0.004032400766174549,-0.0028916512401250954
404.248086578,-0.0017423112681276556,8.276041064065993e-05,-0.0019069199001532761
404.74954474,-0.0024348095334277174,0.0012426765841934682,-0.002294594307675897
405.251002744,0.00356464294293383,0.0031881819881789284,-0.0016558822590628894
405.7524609,-0.011716230547972271,-0.0052497906638262985,-0.0025797490264571326
406.253919006,0.003204567647876003,-0.007511038457219519,-0.0015732403925705185
406.75036239183675,0.001998872946715141,-0.006534947189157326,0.00040187985600956776
407.246806026,0.004504327345568068,0.006939818927816598,0.003818857798547079
407.7482647,-0.005385147581915044,0.011225834282823923,0.0076850626093883856
408.24972323599997,0.0007724478006533928,-0.004399184925222826,-0.0016586347991753056
408.75118163999997,0.0014847937834262018,0.005411882921520419,-0.0015076802762316363
409.25264048800005,-0.005222171539189833,-0.0007131822127648501,-0.0027848322291052583
409.7540997,0.0035497204961298574,0.0011491414304049127,-0.0013571740748092873
410.25054425306126,-0.0010151898458082738,-0.0011739849007186185,0.001450407152686812
410.74698947999997,0.003659834760208395,0.0023984091819402335,0.0016437845200235257
411.24844898199996,-0.00027360693057544507,0.014132520241836324,0.0011579461687364217
411.749908802,-0.0033704339307608975,-0.005623515323810373,-0.0034190644924800622
412.251368684,0.0015031928711066703,0.004785852093874862,-0.0006563382760524872
412.75282769999995,-0.00027719900402653925,-0.0020169535872386173,0.003998705767831406
413.24927329183674,-0.0031832104991049866,-0.007035519108291832,0.0016512639075412891
413.74571929999996,0.0008217419292761991,0.009842188108918806,-0.000896298772497678
414.24717964,0.0032225628373964994,-0.00048020657715707837,-0.00435747499333537
414.74864068000005,0.0026114170850698192,-0.0070329914803929925,-0.0033983060687553584
415.25010127,-0.0011374982458879173,-0.005231254099762964,0.00781871392652053
415.75156152000005,-0.008745183358475062,-0.005358250080492107,-0.0005348238006264237
416.25302243799996,0.00983540354906457,-0.0028050708985013282,0.001217167076747477
416.7494687979592,0.0013331850975207237,0.0008345379101753737,0.0017321273524825347
417.24591524000004,0.006571191316642963,-0.003316124538719981,0.0003581804433884739
417.74737668200004,-0.002370787749256555,0.006677648828129601,-0.006182188312538501
418.24883792,-0.00396035451956281,0.00014663974941632235,-0.0025965085595578813
418.7502995,-0.009645610537325777,0.0018881911967031757,-0.0020884837027002156
419.25176075,0.0026456188969909305,0.005583342803346749,-0.0022839520479596602
419.75322164,0.010658881886146792,0.0006955002097933663,-0.0018384765312533342
420.24966846938776,-0.00960716145100095,-0.0035915851390719605,-0.0018418063335976832
420.74611614,0.002523146709461409,0.0008001537172337484,-0.002139372274879235
421.24757778,-0.0001032161886898322,-0.0016632111160577408,-0.0013829463678269641
421.7490389,0.001537441520665328,0.004630979684604163,-0.0014260461996230436
422.25050054,-0.009765262410166002,-0.004159389149299796,0.006455450270704707
422.75196236000005,0.01445314735955511,0.0035141993519132416,0.006952339339990919
423.25342385999994,-0.006462778651366771,-0.0011488041470671098,0.0013739908295782748
423.7498708081633,-0.005279388957107548,0.0007248027257048749,-0.004256881569212508
424.2463179,0.0014278365597189587,-0.00241960890245759,-0.003788167185241365
424.74777936799995,-0.0035255281786702587,0.016775915493861857,-0.002315686627137723
425.24924136000004,0.008424512118387848,0.016645594590269996,-0.0026456234905501584
425.75070398,-0.004608305513467628,-0.026780599411802726,0.004272331359256688
426.25216624,-0.007578030223883587,-0.032252035742756126,0.004439925624382466
426.753628464,0.0076214497675450976,0.006639736383432604,0.00438916483575452
427.25007634285714,0.00014536479920835936,-0.0029617656926298214,0.002294866118522112
427.74652448,0.010022109327360123,-0.0007544026404094742,0.004102502557992049
428.24798732000005,-0.021327022890272475,0.007695711943335268,0.004275157807586537
428.74945030000003,0.01286116976538466,0.0031834758352095338,0.02621413905513059
429.250913442,-0.006437139601032649,-0.006471146407543331,0.06472173051286848
429.75237606,-0.0016158678734538062,0.003794689411885971,0.06653923846836082
430.25383942,-0.0077838527897020286,-0.0015026182309878918,0.060177580108918834
430.75028919183677,-0.0014937747104933942,-0.01505531647664893,0.04890173715984499
431.24673814,0.0018474874433203345,-0.012440790677016929,0.03994007279139903
431.748201566,0.0032784569823533193,-0.006739588863106923,0.027892324756315666
432.2496653,0.00690583328249321,-0.0008030975949891067,0.00815445964354798
432.751129808,0.005624289114754606,0.00422033107328563,-0.00522282847816662
433.25259378000004,0.00251437380322277,0.005894079198463723,-0.1477479486429109
433.7540569,-0.017172646809881398,0.009830714565716811,-0.3285855099485024
434.25050634897957,0.03492533426474762,0.0055126747718010835,-0.3686320997711733
434.746956032,0.0014574843321510439,0.03866410015323926,-0.2058613352560301
435.24842032,-0.014732726168032536,0.03071051624832594,0.06580741910033648
435.74988460000003,-0.017067187017130104,0.010260814727669154,0.3162827112262125
436.25134890000004,-0.018405654518721757,-0.0227902054870117,0.39959409050838673
436.752813202,-0.0008455424745525045,-0.0514238044062607,0.361087012026586
437.25427758,-0.019099165883284704,-0.03555983338362047,0.11228628539757247
437.75072777551026,-0.01039321739667542,-0.004842865520159939,-0.19673073950438003
438.24717748,0.019222375754370417,-0.003122972289882001,-0.34350506977395434
438.7486414,0.01818369458293459,0.04833420516401458,-0.3264844748009042
439.25010584000006,-0.01274995824428943,0.02052978282369749,-0.08333820218385782
439.751570094,0.0074860886384654456,0.0076447932882331,0.030451555744092845
440.253034702,0.010011756839181254,-0.002054612233975739,0.07230381210138741
440.7494858755102,-0.0025218611398809656,0.009890271521705055,0.0799574195098124
441.24593598,-0.010751954910883292,-0.004708119021595303,0.061804811807967555
441.747399896,-0.01767921980028861,-0.0008616399008825573,0.045496358776299664
442.24886472,0.013074312654451857,-0.01377888778796616,0.032058256672443296
442.750330004,-0.004762301725047057,-0.010299065862967471,0.013748009721814905
443.25179508,0.008728471275902022,0.012207590995255042,0.014381408651104549
443.75326018,-7.483634623392659e-05,-0.003539336837468464,0.010946806757516596
444.249710767347,-0.001354632560503227,-0.007821195905291282,-0.011132834422040605
444.74616155399997,-0.00839450300008585,0.003635963383257007,-0.006404466749594122
445.24762704,-0.004144202782547296,-0.004232595723313638,0.003867954643173972
445.74909285200005,0.004613727467063996,0.0119854679911925,0.002721959676821521
446.25055866,0.0005918991158621958,-0.005981840046736758,0.0005548860173625267
446.75202434799996,-0.00453809526515656,0.005985282936468904,-0.00045040863643752374
447.25349042,-0.01181951697415838,-0.005999238600903921,0.0025527293608507075
447.74994145510203,0.01146758650287462,0.004303851759197151,-0.001076493272856268
448.24639305999995,0.0006744105216487125,-0.0015329464930702598,-0.004763561116374735
448.74786059400003,3.569899836350643e-05,-0.0005356696150635691,-0.001970250433904
449.24932734000004,-0.0018798094121195638,-0.003769050933863165,0.0060671666002007
449.75079353,-0.0045726852859580905,0.004783131377865782,0.001364512874215536
450.2522603,0.0001768072806972162,4.194278526427085e-05,-0.0059271524553229545
450.75372684,0.014390461273154125,0.004260691934944619,-0.002381425312443091
451.25017916326533,-0.003241957238078663,-0.009300197143304993,0.0031820955446656305
451.746631318,-0.01498555476977283,0.011073209988803226,-0.0021948893509785537
452.24809846000005,-0.004131954295815041,-0.007869587449815975,-0.003038774936426617
452.749566312,0.006664302783177195,0.005767993323095388,0.001855189772157446
453.25103336,0.006929479564729728,-0.006461161918938245,-0.000964454136395047
453.75250012,0.006663995966782533,0.0035390942122345242,-0.0025034865044225004
454.253967306,-0.005391594329904448,0.0008273311572814038,-0.004246845304004628
454.75042007346934,-0.006595497015789161,-0.0005738302513534798,-0.0011848661236434407
455.24687276,0.002501593900285892,-0.0005030967732852878,0.0022059265680682647
455.74833987799997,-0.007328774921613822,0.005727364039756338,0.0031893497282775214
456.24980731999995,0.009813469813058645,-0.000709446340800711,0.004651837676071335
456.75127522199995,0.005212691785557294,-0.005587183932022388,0.001452788277372205
457.25274292,-0.00552314339035903,0.0023660175438674604,-0.007521832846006337
457.75421060599996,0.0009113469096141325,-0.0018178024501255092,-0.006020886784305972
458.25066380816327,0.004902044663255804,0.0007143819225704973,-0.0015972991837685364
458.747117192,0.0072063064656852395,-0.0008029307334119759,0.00030765038739115927
459.2485853,0.0013339305427080756,0.0012670999171815584,0.0035196429227943816
459.750053252,-0.011827172143756814,-0.0026814067268871155,-0.0007799308678494435
460.25152134,0.0030090952870806187,3.570036551368977e-05,0.003925254635295017
460.752989104,-0.004071642526057371,-0.0028003132665523427,0.0024982279300464804
461.2494426959184,-7.48081825477349e-05,-0.0027951348006851843,0.0026620617759823945
461.745896372,0.0014438540435109443,-0.001259140563207779,0.0015871927585427881
462.24736473999997,-0.007050332559212047,-0.0035759328509204617,-0.0062415013991841016
462.74883358799997,0.005795215614748133,0.0041790926973577424,-0.013708508089889833
463.25030208,-0.0073982419773311,0.005731232271371456,0.002925339497559537
463.75177060000004,-3.6877901837164415e-05,0.0023023687688778468,-0.0006611990217762171
464.25323920000005,-0.005058461397359668,0.0022568328792232214,0.0018660085594081732
464.74969255918364,-0.0057457508423203445,-0.003196212768126277,-0.0025292838256894025
465.246146582,-0.003249309473498347,0.0006982448989430799,0.003228990343982405
465.74761622799997,0.0025709467925419797,-0.007523566706817518,-0.0006580279327521418
466.24908517999995,-0.007719677442102978,0.0029939286563466006,-0.011422123877166188
466.75055427599995,0.005515418804256711,0.010051214354254372,-0.0016036559753040782
467.2520233,-0.0027759238939056245,-0.005358818020975171,-0.007126487499507146
467.75349163600004,0.007947952527112426,0.004650647652302027,-0.01671949467027213
468.2499458367347,0.0020273044270861275,0.007497029761590405,0.0032802904626745137
468.74640023,-0.004218286982270802,-0.001754809590553185,-0.005117239567078587
469.24786930000005,0.009902657354909597,-0.011281826361944903,-0.012860307104715711
469.749338928,-0.0005244789170207554,-0.0028439970013211797,-0.023387279519030687
470.25080836,-0.007557986838694968,0.010056603962168939,-0.004629483724521027
470.75227729600005,0.028724502315653763,0.0048853787727798055,-0.010355861363620386
471.25374696,0.01242001233693032,0.00312401031222701,-0.011576756805713921
471.7502027081632,-0.01846084757717888,-0.01177541591788583,-0.05606164302949314
472.246658,0.0039121082203485424,-0.015401220787358078,-0.21292161266799034
472.74812782000004,0.009610504964104635,0.008071015416542255,-0.3637221182431174
473.24959781999996,-0.02039911215323709,0.03170272685922966,-0.3401316433718657
473.75106777,0.018736051619932095,0.0331126843717378,-0.13586703878969383
474.25253786,-0.009496843671798594,0.02206409356733258,0.15308873956817257
474.754008052,0.02441938662595148,-0.0028411919563503464,0.40851304645361725
475.2504635,-0.04641652583605579,-0.033135083187944704,0.46429533819423563
475.74691823,-0.053166930949963824,0.004072290604120061,0.48530957559493204
476.24838839999995,0.0015757165156290035,-0.022881178659920422,0.4516040057651965
476.74985903,-0.023906727845455205,-0.009159239401176255,0.5923958717505845
477.25132945999997,-0.053070064136644446,-0.02923774922195626,0.7385188762089218
477.75280012,-0.03322429787641697,-0.05104868597155403,0.641338595084824
478.25427074,-0.04098906733928013,-0.036535539956934884,0.5886096688276629
478.75072672244903,-0.028059705976978048,-0.019058348089968303,0.5501774779800053
479.247182762,-0.014891172612253818,-0.062482049157865586,0.40142527492384406
479.74865396,-0.03223967529692896,-0.06271412836124125,0.18779758485481945
480.25012496000005,0.00647106704155058,-0.011407952125535692,-0.1051267236706602
480.75159584,0.020199689147709594,0.01863324037395666,-0.46826843580714395
481.25306694,0.0075670313297681105,0.0011017625290949485,-0.38305906567659664
481.7495234285714,0.007776350799544466,0.03806321768592646,-0.19343904933072503
482.24597977999997,0.006839319115915057,0.034089961659496085,-0.08172287107941642
482.747450138,-0.005872656292707441,0.0009969230012357763,-0.010137479741186388
483.248921222,-0.009392245302929007,-9.213948286660723e-06,-0.02560187914833095
483.75039284999997,-0.002192394620463894,-0.005232451328916702,-0.019268300979506686
484.25186446,0.008382988029809578,0.009575480500372885,-0.013111239710062606
484.75333607,-0.008703002103244954,-0.028214601634695042,-0.008521818555609597
485.2497932469388,-0.009881266010697701,0.019141276376965843,-0.0061980145498102
485.746250926,0.014610460314162273,-0.019942749712907007,-0.0020425239742105084
486.24772332,-0.009796651337861405,0.011327897806336713,-0.005814925613329687
486.74919598,0.0014973721052692042,0.013423404269786292,-0.0012541356382087178
487.25066886,0.0017582667129724169,-0.0076646992753438715,-0.004973949587261512
487.752141716,0.0003645008341931356,-0.012040446405083236,0.0015790269601962295
488.25361502,-0.008240475367919565,0.00917406713189241,0.004110219001067689
488.7500737081632,0.03355518152254913,-0.04259184808686216,-0.000815240708388031
489.24653270000005,-0.02575687921012845,0.04213580791146287,0.004419337588031705
489.74800702,-0.0053840724006430285,-0.013109199849985629,-0.004796312414972605
490.24948114,0.001212846885994422,-0.005876241578365212,0.0006623252465830396
490.750955496,0.010602154342859983,0.007644225507177956,-0.007286332842718946
491.25242982000003,-0.0016859351054514138,0.003963588156818835,0.01752580457469159
491.753903598,-0.002376333415711022,-0.009804389967432733,0.004514773972858484
492.2503634591837,-0.008881547795083879,0.006313836765093957,-0.004119146009003367
492.74682387200005,0.007702934697209865,-0.005691600407428,-0.0023910044274926528
493.248299,-0.001699779260310267,-0.010156139522037162,-0.006376092560908605
493.74977495999997,-0.0023203110606851204,0.008151050990749831,-0.005676288450820443
494.25125068,0.00026577275531451433,0.026370415160215047,0.0007013139614240893
494.752726776,0.00918395313354776,-0.03468491080118552,-0.0013143634746272505
495.25420286,-0.015713199889002417,0.018526344904163126,0.004826655304724312
495.7506640510204,0.005519695987246994,-0.015180838488875022,-0.004961181672982263
496.24712566,-0.003355722390882996,0.006921246335981023,-0.010194939215229524
496.748602002,-0.0032804919953768373,0.0038077142285805735,-0.003386173218097679
497.25007863999997,0.004420349243602174,-0.005153217368102815,-0.00339124768041023
497.75155549199997,0.007353857079386855,-0.012568208815567644,0.005504192614623711
498.25303247999994,-0.00868887134566001,0.009626986213161567,0.002546791836109825
498.7494949163265,0.006372078553128351,-0.0014684725257215982,-0.008970073076764501
499.24595766,0.011503136225099625,-0.008001411874182338,-0.001723883815924642
499.74743587800003,-0.007595858299640483,0.005571079335772119,0.0006168526292610852
500.2489142,0.02175578139094671,0.0050350654778065105,0.0023052056279704546
500.75039280600004,-0.00020331305069624383,-0.0016224155259768603,0.02152147472096401
501.25187136,-0.06078878447972914,0.015994673036881856,0.0057757660028349925
501.753349358,0.04775966696271539,-0.013091763023798608,-0.008169940665597538
502.249813144898,-0.0073517305791624115,0.0007972698473770374,-0.004842144100246176
502.746277386,-0.0010577874983312234,0.011409032331705607,-0.0013633264009724748
503.24775651999994,0.006942009980978795,-0.0046988904122593255,-0.0007294463214190216
503.749236072,-0.0037184364187418523,0.0021833385439436514,0.0019774660501115744
504.25071568,0.003665725380342952,0.000946306788058541,0.007002391335595575
504.752195574,0.0018401181229897835,-0.012898056764848058,-0.007402548380220574
505.25367583999997,-0.002325913058161255,0.01529158960603504,-0.008805468307649581
505.75014191224494,-0.0024870014815394424,-0.006707442507896381,-0.00686772720482524
506.24660786,0.0002722112006928472,-0.0006415214656463327,-0.005187701527908994
506.74808881999996,-0.004535218328069755,-0.004473344466711029,-0.003314706689996249
507.24956998,-0.004174968908407111,0.004702277410914961,0.0053378285858369425
507.75105063,0.006209621741905207,-0.00304120349032175,0.006639467560927058
508.25253208000004,-0.0007564618708991902,0.004148119107164885,0.0036141983949116796
508.754014542,0.0042812592238140315,0.015472346685817522,0.0005803179340925189
509.25048184897963,-0.009342840502386533,-0.003692788615661208,-7.709116852402369e-05
509.746948864,-0.006231386615338175,-0.00513587878566408,-0.0011994626446635718
510.24843116000005,0.02181664769918231,0.0032003328166342717,-0.0057891919854322895
510.749913848,-0.011027359222408717,-0.0195605302551525,0.005536753434526067
511.25139658200004,0.020354531525870526,-0.006238989564790596,0.006555694687320899
511.75287965399997,-0.0227454898324282,0.02006944773519037,0.003434150175899496
512.2493477040816,-0.007637833320944828,-0.0014189151678489379,-0.00025165185922860914
512.7458155740001,0.011138431198704297,-0.013751809157312167,-0.01737355499082628
513.24729848,-0.004316881833083112,-0.0035451536661362374,-0.014824986020637336
513.748781188,0.020078638635444564,0.02644638311776063,-0.004940588184286011
514.25026406,-0.007472014077770218,0.0035851641546675115,-0.002426811716907432
514.751747484,-0.05480295094625195,-0.016507128730130282,-0.0010479293648103633
515.25323078,0.05806704977853336,-0.004411350338144967,0.006809329343792725
515.7496999142858,-0.0074937149461965355,0.016301113245755016,-0.008767637947466116
516.246168702,-0.010520298834655148,-0.005288954196358306,0.001963938537044275
516.747652174,0.0022865272186800346,0.006823237503552066,0.005833149156066952
517.24913592,-0.0071005889028758476,0.009431836627851626,0.011625517927452892
517.75061988,0.004821626321706114,-0.011665709434866289,0.0036967462115217414
518.2521039,-0.0037095803335099693,-0.000315228100629351,0.00046688322336112324
518.7535881939999,0.0008978698934136307,0.016946324316499214,0.0012881195295345888
519.2500574959183,0.011637929887547735,-0.0029854275957509153,0.004827522248360826
519.746526184,-0.000676008382080479,-0.0009399390741719306,0.0019145508008943219
520.24801032,-0.006901226859983509,-0.0004332303825838163,-0.009215759333076928
520.749495172,-0.0013804967820462788,-0.0028915470633006446,-0.014657616254224619
521.25097976,0.005767717082072121,0.0017836888175755117,3.6901662334499744e-05
521.752463566,-0.003514730762803726,0.004935478548997825,0.0019040203986055836
522.25394802,0.004753532483377324,0.001082093341350668,0.00901738934467818
522.7504189102041,0.018894792430914308,-0.02111627772952455,-0.0001282863241117938
523.24688902,-0.013367604985970559,0.009146129725181765,0.003480319092483671
523.74837339,-0.010155903497009976,0.008981542755138626,0.003795385654963605
524.24985818,0.0172509614034934,-0.002697843036436696,0.0009602728256911774
524.751343038,-0.010722121467574423,-0.0010072464079594542,0.003526318087944227
525.25282804,-0.005480642646533077,0.0038934627493063243,-0.003244797007555052
525.7492979918368,0.013292283573069531,-0.008232497579943241,-0.008222903619360476
526.24576826,-0.01519127847249696,0.009522377223505593,-0.006894635773890502
526.7472537,0.011303120218791353,-0.010715235020710052,-0.004344576431903975
527.24873904,-0.0057493141966243645,-0.00635699026558593,-0.0005652793359941608
527.750224196,-0.0029067479990059508,-0.002782920573378075,0.0011673683407069499
528.2517095420001,-0.001073386621670437,0.007767413113881339,0.0006197093304490461
528.753195226,-0.002381803396965853,0.007967356986997153,-0.0013284432539444739
529.249665867347,0.0012685527303290508,-0.0028660662714358833,-0.0017700189218474982
529.7461359819999,0.0038284096788856457,0.0010213448298868864,-0.003110457365273697
530.247621424,-0.0012257959832304593,-0.0034033770735331643,-0.0015513274175740829
530.74910758,0.08988296614687094,0.0069566391815243985,-0.00011708377045517526
531.25059356,-0.1699856239538001,0.0036410894646133605,0.012612875157777797
531.752079744,0.10729816081896676,-0.005043409980310342,0.0010432739648622
532.25356582,-0.01740454267022252,-0.002608660877556657,0.0017696188345227698
532.7500373183674,0.007227995423361877,-0.0024355190463275014,-0.0002959151230870732
533.2465087840001,-0.004018050846376787,-0.0005591580118188861,0.0004287266582672302
533.74799492,-0.00038494082816160793,0.004263969589019289,-0.00346005686902458
534.24948138,0.00903671911789385,0.006462204678999559,-0.009034362231310253
534.75096778,-0.00789887002607805,0.0069171102102361425,-0.005875154809726961
535.2524546,-0.0008520024046585702,-0.015148637751320405,-0.005866873087206209
535.7539419,0.0014362651903582727,0.009371997858789938,-0.0026058249502472907
536.2504143612244,-0.008031944898333988,-0.013704865714756065,-0.0030841275265088438
536.7468872,0.002022709937200255,0.006575367326758345,0.004019572344321735
537.2483748,-0.003508556924649026,0.004294732528204062,0.0019674166844029064
537.74986272,0.0002385387189302441,0.0028456631252714217,0.0019433729851488137
538.25135044,0.0004665393606557845,0.005243529714769719,0.0015685273526243266
538.7528371000001,-0.0017064361845150818,-0.003941486351497844,-0.002008402646238175
539.249309844898,0.002846230023445597,-0.008667082944649863,-0.0004364727421262258
539.7457832519999,-0.0032884668815914664,-0.01745418615921515,-0.005740326438357387
540.24727136,0.0011034322120346974,0.009120374204941854,-0.010856369536055382
540.7487594199999,0.1051985818910346,0.013097784670912207,-0.001043747214360601
541.25024752,-0.10101233322761054,0.005010935075124342,0.00023376097221792478
541.751735776,-0.004657685112487298,-0.005594110185377711,-0.0007896476264814154
542.25322388,0.0031058145488238754,-0.006340182882828135,-0.0012017725850689818
542.7496967959185,0.0010314079956718015,-0.004804355675126693,0.0003691099542840091
543.2461697399999,0.004436182810586994,-0.005902939224248823,0.007813194131633781
543.7476573060001,-0.008095994103338288,-0.006034312671747228,0.0058863447451887
544.24914494,-0.07186198908246816,-0.004405998519176276,0.004253261890469039
544.750632836,0.07195556408340607,0.009517354405489615,0.0048718645541481285
545.25212062,0.004143361942930933,0.006880417491677282,-0.007274608480808092
545.753609032,0.0027721138771357517,0.01311728801795668,-0.008625656625301355
546.250082189796,-0.0021273079178198927,-0.003645584911393992,0.006338903708980833
546.746555088,-0.004833963101125616,0.009253210620994396,-0.005073791639147879
547.24804304,0.004332670277145798,-0.003178490623584127,-0.004076784770520005
547.749531022,0.0035275916693260196,0.0002656218124149588,0.007874299428292734
548.25101912,-0.005775023796604555,-0.005179519238194771,0.0015436645291604031
548.752507184,0.003986158392035329,0.013624209721185951,-0.002881984638892227
549.25399546,0.014846077179668547,-0.013663689302998496,-0.009268422023478454
549.7504692653062,-0.012038973960371478,-0.011577269177010695,-0.0035760103593633925
550.24694292,-0.006733747089199275,0.001366834934719433,-0.005430945610085881
550.748431688,0.0008082122234440178,-0.015279766414749176,0.0023175669971606766
551.24992036,-0.0007414181076577007,-0.00017232102949468699,0.002064931942880914
551.751408504,-0.0028499722496110637,-0.015286425109903468,0.003142280550294155
552.2528969800001,0.057968321415841136,0.020918779795613473,0.0030741550688114807
552.7493710387755,-0.0681572201808166,-0.0008535731272266172,-0.0009060494588584465
553.24584486,0.008257624003417634,0.004610501221874145,0.001265706655022874
553.7473336520001,0.0073846927572861045,-0.01277193971037443,-0.006849184141684363
554.24882246,-0.007514755576960169,0.003792630838916694,-0.003446794432690133
554.750310672,-0.00011515353128378456,0.004159336888833682,-0.0035320861619698067
555.25179946,0.006074006863797621,-0.0075629248971539765,-0.003406187064680889
555.753288804,-0.0732145117055527,0.010245785757560372,-0.003597747296529832
556.2497631734694,0.08553791830600331,-0.013348947043588865,-0.001089645529837261
556.7462375,-0.01416394890011792,-0.004623376328927565,-0.00035108880328636163
557.2477266999999,0.0028459018535861975,0.01003382391139622,0.001600761729017982
557.749215904,0.00932952674236939,0.021739005005442614,0.0010028775624747852
558.25070526,-0.007643358106033723,-0.013586098183555722,-0.0021135005139458693
558.752194604,-0.007378500323650927,0.0001397844990308347,-0.0003033181715059357
559.25368408,-0.0014091364253096025,0.0030876753935314945,0.016755979234087014
559.7501590102041,0.009795397004467934,-0.0017712306634894077,0.05077495696079638
560.2466338199999,0.001389429922422248,-0.005747133979928133,0.02109888608440429
560.74812317,0.0022858302436028,-0.017698290219339427,0.008842391412566642
561.24961288,0.06222718708146232,-0.013925445716552904,0.008770100084208372
561.751103056,-0.0475588452724563,-0.0031397238392662985,0.003186474854244909
562.2525933000001,-0.03626495027941984,0.02257072670064236,-0.015600834578832622
562.754083388,-0.044375906351535654,0.01906564556397994,-0.02710589087490537
563.2505588285715,0.05629107951481726,0.010441196391211714,-0.02473903980618182
563.747034514,0.014307042686999425,-0.00399771641727219,-0.019710310477749887
564.24852512,-0.006748296462873482,0.004648046500776785,-0.01761492192398343
564.7500158199999,-0.00045865722255193625,0.0006687885526009804,-0.0037503736951111665
565.25150668,0.0003675173917843362,-0.01757653596373843,-0.01044634024194421
565.7529978480001,-0.00011618376322564853,0.006222352550884181,-0.011399831112063219
566.2494741285714,0.003783379033608218,-0.0032164847027715635,-0.016018987474697946
566.74595032,-0.0036331660123109775,0.003283470803681491,-0.047089800246653796
567.24744172,-0.0036016998032696707,0.011232780966037628,-0.05101224110237226
567.748933038,0.0017336364738132016,-0.0020953759842746275,-0.038307269957277346
568.25042472,0.0004259430359074611,0.001528416757177741,-0.030163765155484145
568.751916534,0.005160417501130335,0.0056880719594548405,-0.01981933512333237
569.25340842,0.002474281265097898,0.0026178778975461912,-0.009689766037603497
569.7498856530611,0.019648922609865768,0.009337539548446495,0.0020446051753138473
570.2463628,-0.006944185988511455,0.023883654832248892,0.007164546202833083
570.747854684,0.001328878104344809,0.004323632160350893,0.008259464985781536
571.24934684,-0.005623979050340162,0.0016886725454842316,0.010331579373264028
571.750839468,0.0023183506759937547,0.0011851411783760865,0.0026285694705376265
572.252332,-0.0007844269627031877,-0.008325486183362587,-0.02297550998863324
572.7538244259999,0.01237286823732211,-0.004921155413727068,-0.13883268569812007
573.250302032653,0.03158524659294131,0.004066921366195177,-0.2745435184087043
573.74678006,0.012175777254772747,0.0028797083488986707,-0.310571340765481
574.2482728800001,-0.00892106520847638,-0.0014336317671984036,-0.33352511293909365
574.749765036,-0.031028652143704084,0.005019617568246768,-0.3505503919146888
575.251257702,-0.004157761248994687,0.01087544808862602,-0.38944251508522554
575.7527507679999,-0.004019181833412531,0.04034086779013281,-0.36500581535445925
576.2542438199999,0.023379787163229214,0.03338807556917726,-0.31008428349138834
576.7507211020409,0.006234998693819678,0.017713653874026063,-0.17721508729018504
577.247198804,0.00715038028031588,-0.03295009961455147,-0.011787517549225584
577.74869202,-0.007780642502154991,-0.0065535161668149,-0.0821659835558599
578.2501851000001,0.005466023946391595,0.029687645231244852,-0.10215190063862956
578.7516784000001,-0.011521853028123606,-0.012589345280494903,-0.0553049383576613
579.253171584,0.004132492949040719,0.01758783916800028,-0.020833335348264086
579.7496515469387,0.007119099721014237,0.00533206764457992,-0.0026475233828110924
580.24613046,0.003482491399802737,7.584947027391806e-05,0.0018843915201951834
580.7476217899999,0.005296814830203129,-0.007783265797456137,-0.005601545262710727
581.2491142399999,0.0003737320957080567,0.006724693037024874,-0.020935400309115643
581.7506076120001,-0.004912448983474609,0.006518202390880639,-0.0040379794256048
582.25210108,0.007905908122655828,-0.030465606426058476,0.001299335844472451
582.753594712,-0.01834117380743407,0.02454650629501327,-0.00015654242797223748
583.2500733734694,-0.001475246286013778,-0.01285623181141349,0.0033694394300180512
583.7465518500001,0.007195261713854152,0.027103171166504757,-0.006492145903911371
584.24804552,0.007361230026918314,-0.0005814678996496784,-0.006967346348242226
584.74953956,0.00014748303292119304,-0.0033032701911356603,-0.0002866319169661269
585.2510334799999,-0.022997063237809964,0.003005494462407863,0.002068551892101421
585.752527164,0.04627311359499913,0.015389769667889993,0.00508427726921403
586.25402098,-0.020037662659422376,-0.009758169067873142,0.00422554558108037
586.7504997653061,-0.005098093709518929,-0.007291345321017583,-0.007732077152676073
587.2469787599999,-0.0012587151610598337,0.002002449207377089,-0.001934169117732258
587.74847318,-0.010276087844625446,0.0045644683518970015,0.0015930399085607348
588.2499674000001,0.003192856172664157,0.001034689977204486,-9.294600132888618e-05
588.75146156,-0.010642639538486048,-0.0001386467963524987,-0.006566671419811292
589.25295576,-0.010166484603713378,0.012828890678237448,-0.004052351423662329
589.7494349530613,0.012059325858320697,-0.002321568266148518,0.0031687964808061624
590.24591428,0.0039273058319978515,-0.007355802013238778,0.003472087239187455
590.74740838,-0.0015188547046466687,-0.013733551877681218,0.013627216590861689
591.2489026,0.0051435973794279445,0.00808534442882229,-0.0009675939904016148
591.75039756,-0.015138020604474238,0.008065773778739644,-0.010677108470422393
592.2518923,0.017642466327645517,-0.010076342493743552,0.002400057494047106
592.75338646,-0.015302458590588213,-0.008069086567213052,-0.0007760232142032277
593.249865977551,0.05280793511637368,0.03311814676119579,0.004764562158884371
593.746348044,-0.033465483605254,0.015533118235128105,-0.014407804266103856
594.24784392,0.01901830200994606,-0.012716411319857276,0.0015904379852354714
594.749336604,-0.026616800580192536,-0.004221006321609901,0.003811885085388874
595.2508305,-0.004830392776973546,0.001767890926341152,-0.013900762271527405
595.7523276,0.007430384440241138,0.013062094916322906,-0.003384312540979283
596.25382352,-0.0022742165749329957,-0.011514338948682274,0.01496696815580816
596.7503019367347,-0.002778800486871919,-0.013999065312385218,0.002401638474744479
597.2467813220001,-0.003742304015840975,0.007570855713024583,-0.0014864555357897685
597.7482757600001,0.0068739993575695916,-0.004285135443397202,-0.0060844193816213974
598.249770542,-0.0057663593406605896,-0.008274530436821937,-0.0076707951462380896
598.751266,0.018181087628513563,-0.0022213084315353144,-0.0005261665524683915
599.2527613,-0.015322297973908394,0.001158150633217168,0.0009359451454321939
599.754256936,-0.00045489557008712435,-0.0023830206857538842,-0.0008338463599469337
600.2507374306123,-0.019619605233424577,0.0005158777402325898,0.001226187518874219
600.7472188659999,0.007811495916296202,0.0013276470684659078,0.00288560924000836
601.248714642,0.002990884822878407,-0.008440708238529226,-0.00491642955903619
601.750207808,-0.005177995796788266,-0.001721865054206349,-0.0025592160484024236
602.25170204,0.010006258847897015,-0.010857871064821915,-0.001160971185284618
602.753197452,0.05147665923673959,0.021801446193415824,0.005496278145939508
603.2496777510204,-0.0435847895563109,0.0275228482118426,0.005968599513595112
603.746157932,0.005154351639231298,-0.004997376820838972,-0.007373244566952253
604.24765296,-0.005306693212632977,0.008546254628610816,-0.003101639143199361
604.749147642,-0.00906721788056838,-0.015580908474737264,-0.0011042736725039894
605.25064242,0.012359982052598964,-0.004783226032856237,-0.00014379709487485266
605.7521369560001,0.0031386071771423714,0.010521107515650557,0.003934007969883196
606.25363162,-0.014212208587097415,0.018170410275490358,0.0016894899235776791
606.7501128061225,0.006278959955316092,-0.025330207894247773,-0.007466501839064307
607.24659324,0.0013071647059733893,-0.0017961593578600637,8.943191352886904e-05
607.748086612,0.004074515937170103,0.022790930008895916,0.005357195700794912
608.2495805799999,-0.005477049497771287,-0.00020236161813923432,-0.0013909923164814918
608.7510754360001,-0.0036415353432860376,-0.021340625287341788,-0.006449461965510269
609.2525701039999,-0.00457255272968836,0.013192946314788347,-0.007662963568440975
609.754063964,0.008037622322133158,0.029988976278178626,-0.00491581008773998
610.2505432040816,0.0027882334583908415,-0.037619467326324235,5.703310597555108e-05
610.747022666,-0.019130313553223074,0.019322998184106658,0.005026496450201
611.24851708,0.03451236086735152,-0.013926034775966689,0.0060747347040757595
611.750011704,0.005774151856853117,-0.04921029206361654,0.0023613331389013407
612.25150614,-0.03232274880958856,0.02179664381482349,0.0026846897626495096
612.753000156,-0.01175960458059333,0.0021960718070312473,0.0009907581058867904
613.2494794061224,-0.0396975844627467,0.01185534068545752,0.0034383675192154687
613.7459589160001,0.014463655281877603,-0.03456561357328996,-0.00640963177150222
614.24745332,0.001203269520511141,0.04890773631964484,-0.0055530969491626924
614.748947144,-0.005925250983051222,-0.015039543511759759,-0.007108504556907812
615.2504411599999,0.02694999446702758,-0.020460251042665543,-0.009294436790153644
615.751935532,0.01640089266856794,0.005800670269908004,-0.0033170181781070575
616.25342986,0.009270909120404822,-0.017786214271546072,-0.007254317706704077
616.7499093734694,-0.010280929105718458,0.0010055459423016233,-0.003468479375788745
617.24638876,0.008846252930638654,0.01963158546155692,-0.006346519004009129
617.747883108,0.027938166588918324,0.01794307954646067,-0.01909358188331743
618.2493774,0.020685621428568193,-0.01779900753788155,-0.052466121580256854
618.75087118,0.00841510314992615,0.007078119005867301,-0.023085114327511556
619.25236506,0.02106395537257761,0.029647768609873233,0.124277861359066
619.75385939,-0.05431325426112682,-0.03256414024587961,0.06357694376150418
620.2503385612245,0.014419674511984473,0.008869331476576469,0.02294350657856414
620.746817308,-0.034585428632262646,-0.007218915237027308,-0.014915474614908546
621.2483110219999,-0.017880769025245102,0.0028881130222238706,-0.026258860723960477
621.749804972,0.007873809453940207,0.012197539700324427,-0.016770785685562464
622.2512988,-0.023526357841951322,-0.02513962355662264,0.002684661110731536
622.752792308,0.026283946470142906,-0.016742370819989517,0.015928820966623024
623.2492709367348,0.001877837406365987,0.0048165039340777255,0.013392010070171288
623.745749332,-0.00453668985143921,-0.0014100064586174072,-0.005803513720000815
624.247242762,0.00446937960463989,0.0026419090272084343,-0.026122164999047445
624.74873664,-0.0008434705967879988,0.007781101100122566,-0.03210084879868453
625.250230322,0.005815502614639895,0.0020486427526856922,-0.06271517595843423
625.751724614,-0.0027254668785375398,0.009605459656980331,-0.04450651135120762
626.25321848,-0.010212726421258091,0.005018362193563752,-0.009601674747877008
626.7496962142857,-0.0037896475154158417,0.010047602376868307,0.027667025975729218
627.2461742200001,0.011529538169583586,0.0017855908122296977,0.03414999214732473
627.7476683900001,0.0007673244032006418,-0.011964142977530935,0.03626541188767968
628.24916208,-0.0017954762120321983,-0.01309378423157674,0.030195324375786595
628.75065392,-0.002846216185834281,0.003446975219403104,-0.002624699300137008
629.2521461199999,0.0039352605659167365,0.009349314835281623,-0.009386282923319368
629.753639464,-0.008672135865892105,-0.00799200328830478,-0.011611681331180918
630.250117477551,0.003690247596658266,-0.005399870214869258,-0.006602249603042106
630.746594846,-0.005949828082494767,0.011346555360827288,-0.010843023711724534
631.24808726,-0.0023049711104558444,0.01283896986145272,-0.006930483738124544
631.749580336,-0.0038061319530498876,-0.006813419823196093,0.0011239142056837085
632.25107314,0.008671524281875087,0.0005253129078619195,-0.004690087786243198
632.752565418,-0.013311109003801653,-0.004771073923495327,-0.006928771890129523
633.25405764,-0.001209551369733672,0.0006724391645360533,-0.02015175655247467
633.7505350285714,0.004786460955185705,0.01198587172564163,0.004417126104586066
634.2470121800001,-0.0014140335977942853,-0.005404246171368029,0.02188555157312736
634.748504164,0.001990637133968587,-0.004790793643342079,0.009896340033532612
635.24999594,0.006878028832294364,-0.0002819232015394007,0.004266295169635836
635.751486902,0.0018597497902058558,-0.0026857296202675435,0.00446937825797766
636.2529779399999,0.003008130246823526,-0.0025503010556959704,-2.108413267664826e-05
636.7494547714286,-0.008206577108875892,-0.0001079744644345996,-0.014134878885884973
637.24593138,-9.072711857592259e-05,0.005455649880395496,-0.034655299461717
637.74742192,0.012552413404544023,0.009341080299069382,0.0006969483399079968
638.24891254,0.008974765680072893,0.008920259677891408,0.11727083474598571
638.75040398,-0.001262873821750817,-0.021784844872842893,0.20021888025544854
639.2518952,-0.01304998249981443,-0.09450846626081598,0.06829235985133998
639.753385588,-0.01047485263464851,-0.026464434417719347,-0.17576057968215117
640.2498610979592,-0.007602450919720715,0.006661794565656725,-0.2496778343999691
640.74633668,-0.011063365211677256,0.0670057805544718,-0.1906783877382948
641.2478272200001,0.006288217710136657,0.07306073267047891,0.016330067596562848
641.7493179200001,-0.009603385176058847,0.007870334348906556,0.10539610343310932
642.25080858,-0.004678017416230329,-0.005993738199186654,0.12733283106157148
642.7522995,0.002424659193601275,-0.00968320719772859,0.12609727139882973
643.25379036,-0.006064073331827954,-0.0186152714161678,0.05440375912907292
643.7502672816327,-0.00278289681901401,-0.00952283179425118,0.011537314385959226
644.2467438,0.0035448179394583484,0.005532438380822074,-0.013373799894065811
644.74823328,0.0054385454504275055,-0.0020223460672112534,-0.029095859718726035
645.24972316,0.00568844632028866,-0.004456559398220225,-0.03839826662999864
645.75121428,0.004465608628081141,0.0014386295861355473,-0.03652930300657112
646.25270528,-0.0008208374900661739,0.0036611837820720986,-0.026632502487920363
646.75419596,0.004322731463573114,0.003787273531761119,-0.018055954356947335
647.2506718061225,-0.00224468351589504,0.008487012587903636,-0.00582824630709772
647.7471478,-0.0017012697408841518,-0.002373370532358966,0.0021419382603642947
648.24863866,0.00372870961544222,-0.0016226763584075282,-0.000557656817380387
648.7501291,-0.007053932538392813,0.0017008750056885173,0.001954173941420848
649.2516197,0.0020818830981833942,-0.0026155581033564562,-0.0015837653852783487
649.7531106,-0.0014924534348271918,0.003548545741288363,-0.011598253911961114
650.2495865020408,0.0006364694993816271,0.0012584512712784158,-0.005096422622887625
650.746062338,-0.002501042543890335,-0.03808798166313271,-0.0019779739060345
651.24755306,-0.001974752981634912,-0.04755504438289384,0.0003137529973514909
651.749044166,-0.0025506383697271495,-0.006192609100550682,0.00455907892589417
652.25053508,-0.002721886889021093,-0.0017448651799446117,0.002296626311779051
652.75202514,0.004189206643362674,-0.0024692902224958844,0.00016181801303186935
653.2535154000001,0.00027359068619709783,0.00022994409468378565,0.0008600636309417669
653.7499911367347,0.0011375771624851014,-0.001028801410154355,-0.0034193009387417203
654.24646682,-0.0027682174480773538,0.0021722413995395908,-0.005509547926809379
654.74795709,0.0028488097584678353,0.0010056244047622661,-0.008018525857534228
655.24944734,-0.0004996149085536025,-0.0012992791319775799,-0.0012298728047418542
655.750938188,-0.0009419927746758597,-0.0007730999604606379,0.0013345626685049262
656.2524288599999,-0.0001351889608554499,-0.007067009449518605,0.0023004934458484365
656.753919416,-0.005383120536282796,-0.000480538146791073,0.0003769509387010167
657.2503949469387,0.003754867583254234,0.001492399900197265,0.0012690773115919133
657.746870302,-0.004018398786256514,0.0030118453878350483,-0.00021157894838998856
658.24836058,-7.55669676773283e-05,0.003702604004348679,-0.0025564244554555503
658.7498510720001,-0.0015296471196969664,-0.0026566847763983092,-0.009961479890727314
659.2513414399999,3.7054407019149543e-06,-0.003982139283737732,-0.012349939365997454
659.752831078,-0.0072933129668652655,0.003907293192206256,-0.013105955758579263
660.2493059999999,0.002415891162908595,0.011413268384335982,-0.01262881273384975
660.745781492,-0.0013741349423877364,0.014669345016247323,-0.008454334827455931
661.2472718,0.0017872883759678015,0.012186520024212992,0.002604070963021563
661.74876122,0.0006499287759333023,0.01192375819952955,0.007660236984861149
662.2502506,0.0004049676147114659,0.007989740107403083,0.007113232381910817
662.751740576,0.006670422372158525,0.008504808015990854,0.014258365251271818
663.2532304800001,-0.0069701408609980815,0.005533934438922205,0.01739249622344236
663.7497059530612,0.009606779553452151,-0.00010897578884577943,0.017205422073088
664.2461813,0.0048126436420265935,0.0018322460023862106,0.02758913774409783
664.747670772,0.00432596818133792,-0.012483553618071712,0.04087381305797304
665.24916026,0.010373869770442168,0.004373914969807905,0.03492258188448602
665.750649352,0.013961833161819384,0.023167628034176976,0.004077711009475613
666.25213844,0.009538212781648956,-0.00461162134919267,-0.02965127346284605
666.753630044,0.0024696117055152626,-0.005148564817511013,-0.03881371437269343
667.2501062061225,0.018875238553848688,-0.0022726203551730493,-0.03557100991731339
667.7465788280001,0.00237289599126468,0.007634800888486608,-0.030014818037587127
668.2480666,-0.0018997831426065925,0.014350156445164575,-0.006496797521953285
668.749555648,-0.001969537833039303,0.0034273326010642413,0.0015173212907461317
669.2510447400001,-0.0007851604395814884,-0.00598354751445258,-0.0013991491083562868
669.752533636,-0.014340929224996019,0.007589205254650581,-0.006329833714230861
670.25402258,0.0022178412194546497,-0.000435133683546203,-0.0023942101659566208
670.7504968979591,-0.022068581943856743,-0.00808526093075834,-0.028051397737158933
671.2469711399999,0.02132940702768086,-0.011472982790984798,-0.08936767188460103
671.7484597280001,0.032802384823799796,-0.04636482443916006,-0.2523683162915896
672.24994836,-0.043879811495404916,0.011893705994710978,-0.3773392197656101
672.7514375400001,0.0014882447589288834,0.034251191003324855,-0.38310626097646044
673.2529266399999,-0.009690297142342201,-0.0012817466399332633,-0.38682066440895485
673.749403055102,-0.01777029360862205,-0.014975595807803254,-0.27138036154937833
674.2458789799999,-0.07786663721207625,-0.01849123316927783,-0.41930097030570307
674.7473669560001,0.011227547689388407,0.035552028924703105,-0.31910853254182175
675.24885496,0.01855861229935885,0.01680482472055106,-0.08308241135504399
675.7503422079999,-0.010614072743718181,-0.003115711763653617,0.024416413666552974
676.251829586,-0.019006400999729677,-0.005203348430390819,0.020296906471275265
676.7533184879999,0.004711118227710675,-0.008356939664278586,0.0037049949030441166
677.2497924163265,0.000559101285588567,0.00048354094333144694,-0.0034794316467396426
677.746266262,0.0013632555170770594,-0.0008406438410432134,-0.008033298012017872
678.24775492,-0.004815167180990123,0.007630375566624684,-0.009906610621555845
678.74924317,-0.0029497493520757676,0.0007369433275681598,-0.0013638745399131877
679.25073142,0.006121423128943165,-0.0049649815762037655,0.000336168565881775
679.752219624,-0.0012300161009364333,0.0012114925947420713,0.008654861629229647
680.25370776,0.004372946693723104,-0.0020078096768180805,-0.0013401336439560632
680.7501812265307,-0.003919825740580488,-0.0009965482724053083,0.001915462164223633
681.24665452,-0.001993636104628642,-0.0013119531088105869,-0.007557322135170481
681.748143844,0.015236076504029914,-0.003187313627931414,-0.004835141783235958
682.2496328,-0.001652234661911215,-0.0044767029287652695,-0.005139713315577521
682.75111986,-0.01054888258740812,0.0022848508418077253,0.00024179005575462057
683.2526068999999,-0.005692532995051953,-0.0003244783648296698,0.0004107597547574117
683.7540934040001,0.0002599824929581257,0.0022176211370967987,-0.002170742365542226
684.2505650306122,0.0012813682737936657,0.0004303738307398726,-0.0037707905159053436
684.7470370880001,0.003757665016525978,0.0005970244889317925,-0.0021807912388674797
685.24852372,0.001816962080761515,-0.0023708469112434932,-0.01954855550387083
685.750010326,0.0035900374791564783,0.002878394962482631,-0.021996970039354743
686.25149668,0.00032534294908048695,0.0030839401705095603,-0.00984570733216971
686.7529830340001,-0.000783705222667857,-0.002028374530201135,-0.00022415263374291668
687.2494543632653,0.0016981618442701327,0.0002737385617919636,-0.0010736579718397014
687.7459253920001,0.0008874695087583062,-0.0006908470720991693,-0.00047654192216894584
688.2474111800001,0.0001553455161630006,-0.0008372587938790172,2.636742183994894e-05
688.748896732,0.0002061269124751477,-0.00015893169630886892,-0.00045198145248991837
689.25038212,-8.41071957838218e-06,-0.0018561066885199545,-0.0012430872462120695
689.751867352,0.0003155073642600867,0.0005509163085755167,-0.00017016564590917563
690.25335242,-0.0008385797512607822,0.00046642888579677953,-0.0006637727463264151
690.7498238061224,0.0017948332362006465,0.00024707137894251237,-0.00019144422692234653
691.2462948,0.0003869830090805056,9.401954862496498e-05,-0.0006047233864667962
691.74777806,-0.00013778198828468143,-3.739719377449893e-05,-0.0008049146756902392
692.24926124,-0.0002624343565031412,5.4751383015157396e-05,-0.0005726718454986483
692.75074516,9.17015885618525e-05,-2.6670821416994692e-05,-0.000558271509375016
693.25222896,0.0003047592840667194,0.000322346335044061,-0.00080383710427272
693.7537129680001,5.290586046588995e-05,0.00039290916132896217,-0.00032674185883493136
694.2501820734693,8.068305748531395e-06,-0.0001406063245982194,-0.0003682216547125014
694.7466510899999,0.0003603299281350105,-6.72977403531828e-05,-0.00019102900825622757
695.24813474,-8.408006704681112e-05,-0.0013025213890955312,-0.0005131754599200252
695.7496175780001,0.0004537050128184867,-0.00031643577042081346,-0.00027580641589063716
696.2511002819999,0.0005878178333453821,0.00011198218997715155,-8.575472843062512e-05
696.752583096,-4.831160421734805e-05,-0.0006612288517682464,2.4364654662834945e-06
697.2540657599999,0.00013463516358122013,0.00034705207886072837,-0.0007488337189769309
697.7505334795918,1.4946895023630466e-05,0.0002002893738092637,-0.0006317924559134249
698.24700104,0.00011343692304286659,-0.00022962509184080158,-0.00039547530531270275
698.74848357,-4.1620813960986074e-05,-0.00036378353006947546,-0.0006348375530229425
699.2499659,6.988595448208599e-05,-6.525975075454678e-05,-0.0005961621517058479
699.7514477899999,-0.00019630225482733773,0.0001985332708933274,-0.0003249721235229687
700.25292946,-2.9801525573962357e-05,0.0008917333957260473,2.209943696873634e-05
700.7493959204081,0.00028467626134183834,-0.00012943959626209836,-0.000474760222535927
701.245862182,0.00038501412030203107,0.0001156084274425527,-0.00046274532138283807
701.747343562,-0.0002878521965982186,-0.0004913709427039066,-0.0004780045976645966
702.24882474,0.00027474175557749977,6.15922971290092e-05,-0.0005082133666774063
702.750306582,0.0002337569696020487,0.00017097867734843994,-0.00015553701902431551
703.25178818,7.560857517322331e-05,-6.228545172511138e-05,-0.0006002252831912708
703.7532669020001,0.00013549951111646916,-0.00017533859166935412,-0.0003453228174844104
704.2497306081632,8.316482842347331e-05,0.00033805561274744374,-8.564209342246923e-05
704.7461956999999,0.0014297899206288595,-0.00017874112480544758,-0.0004664894915294042
705.2476754,0.009463453112301092,-0.00039195412173638006,-0.00039210651010321583
705.74915474,0.005788805744803521,-0.0013584302487659272,3.851883774081616e-05
706.2506338999999,0.001081872956949828,0.0004760218471843709,-0.00025487303306168265
706.75211323,-0.006174325281490925,0.00375800313370741,0.003734053918599226
707.2535923600001,-0.0064227299348428414,0.0021854936930297613,0.012408314644744815
707.7500566346939,-0.0033244498150485175,0.004095570230200315,0.017748999929134108
708.24652078,0.008066437437792505,-0.0022801893266130775,0.021085943922696814
708.747999052,0.008717827148151938,-0.0009328468946066247,0.01899274733335122
709.24947718,-0.006029470233961584,-0.0005820163001891304,0.012059424835019978
709.7509556919999,-0.002225640404579638,-0.0028597241847026374,0.00770759373385332
710.252434022,-0.005405737033578285,-0.006837223638397124,-0.005374483356531053
710.75391192,0.005090613936435396,-0.0023231930259731224,-0.018269729842712596
711.2503748632653,-0.0059698739126999275,-0.0034524560500443923,-0.008552479786363976
711.746838992,-0.004613182675956131,-0.004878596920766356,-0.008086388581756192
712.2483179,-0.0019131871839398365,0.00718094050324785,-0.01863017706810842
712.749793508,0.0004338747892815164,0.006492118820205985,-0.013792123778634702
713.25126886,-0.014338405112950654,0.013666727219688818,-0.017054969999794552
713.75274592,0.015746541950921684,0.01339088979810391,-0.019751057476957667
714.25422284,0.005841553364831889,0.021127086861314114,-0.031003559635782968
714.7506849163266,0.011439837167201391,0.020431666133501208,0.0037726503478251482
715.24714682,0.0015664615409940385,0.012673416567871455,0.1790079503578223
715.748622952,0.01712437377565717,0.006775269405488371,0.3647828896640173
716.2500989,0.00827398284492905,0.005596966925071069,0.4577973671751094
716.7515751679999,-0.004160830439625417,-0.0014077755522936232,0.44523244035961373
717.2530512819999,0.029849461340821355,0.001857207704231405,0.4896513917544539
717.7495125204082,-0.03426964819191087,0.008720954946918089,0.4402225284666751
718.24597366,-0.03947646216510042,-0.03137201164937546,0.40119198258840966
718.7474490039999,-0.011115222626478682,-0.03514393925944642,0.24532654314497965
719.2489242600001,-0.023275988898547918,-0.027002324177373995,0.07070409700615027
719.75040018,-0.02561673372240105,-0.00852640840308583,0.024634509250473433
720.2518761599999,-0.013454677731537256,-0.006077261793459402,0.004474021190727723
720.753351368,-0.021301692566978843,0.005739657971690653,-0.004672746826923374
721.2498120448979,-0.03615860912452068,-0.00928707682009089,0.006358755049435785
721.7462720240001,-0.017809588174523456,-0.0016686570380972726,-0.007358455047276388
722.24774678,-0.033443265285431824,-0.0034009618488915062,-0.01592566447011426
722.7492222779999,-0.0006477763342470498,-0.0034306803239068347,-0.009795029958483848
723.2506975,0.016440105621191962,0.030002283113604356,-0.0027974706319197225
723.752172172,0.017930381100141182,0.013573693990714014,0.0029242833621705875
724.2536465600001,0.011953173827588688,0.013923883716437385,0.003009812818847365
724.7501069367346,0.026261948183978118,0.010290366597935995,0.0037703341581522515
725.2465675,0.00302900988759619,-0.006338930075768704,0.00323206037432401
725.7480425,0.006722178853618298,-0.005374915221432863,-0.006656991896434413
726.2495175,0.01057082242587342,-0.0019409625248071145,-0.018298100959145004
726.750992194,0.005276476082764282,-8.26771297897731e-05,-0.015778593828500352
727.2524669,0.0017119601993207559,0.0034138816679335064,0.011845662398166236
727.753941578,0.007422633389791847,-0.0005017478404802005,0.03206307345504999
728.250401455102,0.004675266594671516,-0.011647124316372277,0.010500780971520778
728.7468617760001,0.00029495421328387146,0.004880446334430309,-0.01514639415243578
729.2483371000001,0.0010795885114693719,0.0047384299070381735,-0.012402056861179329
729.749811778,6.0045162315304005e-05,0.004841802617453545,-0.008705347343756383
730.2512863999999,0.0006520040103913001,0.0011383912656612245,-0.0013916327645660273
730.752761588,-0.006962564508088468,0.002869014970575565,-0.00038103317388932923
731.2542367000001,2.6661282950897644e-05,0.002982929369404675,-0.0008387351554310908
731.750696944898,0.0009972776808818851,-0.001414064488753053,-0.0010904424680423534
732.2471572000001,0.006196311943195545,0.002420855508217011,-0.0004672461193398818
732.748631878,-0.0025765682088208686,-0.0013535734378091304,0.0010055716392729926
733.25010656,-0.001500961734286419,0.0036051506869869228,0.001847980926829284
733.7515826900001,0.000561240468540702,-0.005429058387023586,0.004529462994579864
734.2530585000001,0.00421256561848405,0.0002694793314163468,0.004480644558798645
734.7495187244898,-0.0033289667309845286,0.0014987038685686253,0.00045962995177433006
735.2459789999999,0.0006311891256761304,-0.0019977542484404445,-0.002453881644977772
735.7474539,-0.0035327592567691215,0.0018235158738883882,-0.0024854358597540373
736.2489286399999,0.005354845785831086,0.0023200695193888077,0.003854530104989351
736.750404084,-0.0051360616083492685,0.0023937561198589118,0.002749688503914605
737.25187966,-0.0007795249098293261,-0.0043452880991961115,0.0033710684009230557
737.753355476,0.0030793024945899887,0.003969547641293155,0.003839436242464297
738.2498166387755,-0.002132939928030819,0.0019341191447790527,-0.0033164976630581733
738.746278596,-0.001647248007003,0.006449160277622313,-0.010816673661881692
739.24775572,-0.00045672514878717263,0.0029802481847279417,-0.010158288567377825
739.74923008,0.0033000707977703897,-0.005663266707602726,-0.001931140628778395
740.25070422,0.0032047760974751316,0.002585165257723147,0.004686357257921391
740.7521798519999,-0.0010512854014775549,-0.00021271261661349794,0.00904637821041935
741.2536556599999,0.00261474676270118,-0.003046094889532997,0.004046126621363716
741.7501171612245,0.003561179630361466,-0.0034255159963375186,0.005160313846654692
742.2465787599999,0.0018340397276501164,-0.0011235739230033013,0.004916842710651692
742.74805414,-0.0024827502065735553,0.0024698764544868967,0.0013468851712953162
743.2495294400001,0.007591535911731943,0.00012455366350330597,0.0008473063044743393
743.7510056960001,-0.00567043562951662,-0.006815496216816703,0.0011776493154456067
744.2524821000001,-0.007654703196798424,0.0041398274591280815,0.0004683027248282706
744.753957924,0.0024481618943665304,0.0032607686675798415,-0.005272213948414741
745.2504189346938,0.010934064603084968,-0.004548885666631149,-0.007029343534891341
745.7468803200001,-0.005797070470730538,-0.00783881391216851,-0.006350613134583299
746.24835658,-0.011834905721236366,0.007710835869940425,-0.0038317280798827584
746.749832944,0.0038789421109541675,0.006970564350832947,-0.0024891141293851052
747.2513095,0.0008516177592872498,0.0008250636111557525,-0.002531163792340725
747.752785752,-0.001114909964162485,0.000451679347044677,-0.008416438324692304
748.2542620600001,-0.0018106574440339188,-0.0027242378801263295,-0.017975011658540617
748.7507246204083,0.004968221920975792,0.00612247824357813,-0.024504476432823375
749.24718748,-0.0017199444421224883,-0.0018982050717831394,-0.016819165287669073
749.7486644699999,-0.004481922875978892,-0.01093029916316311,-0.014215808101644134
750.25014144,0.010878122382533243,0.0005785292815056166,-0.01165144304066095
750.7516191120001,0.010433958561258044,0.004419511145545853,-0.013211721785417805
751.25309704,-0.02050237447620567,0.0060400336866745395,-0.015289031780255822
751.7495597387756,-0.0007628297919097822,4.7870596693397425e-05,-0.016600845546139116
752.2460224419999,0.0036819331730834157,-0.0020120821096309676,-0.010576986684958956
752.747500354,0.0011193693065903155,-0.006823100975248551,-0.005773908710693311
753.24897834,0.0010853276509415661,-0.003462163917984803,-0.0054407830987104324
753.75045788,-0.0006233077950616437,-0.00604417920686689,-0.004041458494278995
754.2519380199999,0.0012294597565573157,-0.006107515990919807,0.000872468583532579
754.75341528,0.0009033314802250482,-0.005936298012804649,0.003468707866845551
755.2498773693877,0.0038377955055539405,-0.003233171202654173,0.004918529409130273
755.74634132,0.007388684655716563,0.0012131928486078095,0.002634083992484802
756.24782018,0.00041719012482240427,0.008179581996719027,-0.0031349054746861284
756.74929918,-0.005157180036188088,-0.009070281516836838,-0.0695302943652874
757.25077834,0.0152154260520198,0.0005328774737519424,-0.24874288931968994
