Time_interval,Time,Acceleration_x,Acceleration_z,Acceleration_y
0,0.24663597332576,-2.6025419860978003,3.94871660158,8.63444358234
1,0.74790217,4.266514736912,3.055422216788,7.91717115778
2,1.24916792848,6.76769650266,3.319434201092,5.30203136902
3,1.750433712,6.85444710392,-0.17483941958500002,6.96638732302
4,2.25169954268,3.304647949246,-0.3276716033746,10.241103515479999
5,2.7529654299999997,3.712085678182,5.21512509156,6.9325067778400005
6,3.2542319375,2.3593247588720003,8.59280317386,3.010695227054
7,3.7504857321428573,4.002694720663469,8.733124069265306,-1.4224308154434693
8,4.246740345,4.78425808408,7.9259938109400006,-3.330370458988
9,4.748007885,5.3492821107,7.85465216692,-1.7076429381899998
10,5.249273195,4.954951126062,8.30292198482,-0.859871887248
11,5.750538255,4.232481509434,8.877463220040001,-1.5427697936959999
12,6.2518048450000006,3.3798365936059995,8.62917154518,1.5450869750832001
13,6.7530714650000006,2.748533395414,9.0056566404,2.8239136414002
14,7.2543381799999995,2.763415447992,8.65960026862,-0.631698376494
15,7.7505922499999995,2.9415635992653058,9.164795790489796,-3.3386694460632653
16,8.246846225,1.9075851562414,7.87061497184,-4.93799438776
17,8.74811302,0.9416198913399999,8.811797772376,-5.52096908568
18,9.249379715,-0.5275749023194,7.63300508426,-4.910718109092
19,9.750646385,-2.1041893158139997,7.209302178962,-7.251679055966
20,10.251914065200001,-3.931891589306,5.13800546262,-6.92474691456
21,10.75318192,-3.9461269867,6.12228963324,-7.0481682587
22,11.249437038163265,-5.184007555938775,5.480137668530612,-6.025337592877551
23,11.74569225,-3.5082305969200003,5.35194357606,-7.2586485624399995
24,12.24696011,-4.45219161994,5.79787226262,-7.130006076020001
25,12.74822805,-4.90569156188,5.31801513062,-6.2349782958799995
26,13.24949632,-3.68415076908,6.22767947392,-6.8829029296
27,13.750764830000001,-4.31112197574,6.0374400787199995,-6.51113302934
28,14.2520328968,-4.0870229919000005,5.51053278804,-6.55342009278
29,14.75330103,-4.81947984012,6.43082503048,-6.2641316711399995
30,15.249556598571429,-3.928006158897959,4.792846489755102,-7.313992515142857
31,15.7458121202,-4.000925033608,5.431745626880001,-7.09139237342
32,16.247081175,-4.9964927399,6.76281066282,-5.991440734899999
33,16.7483504506,-3.7634319031400003,5.24625435792,-7.3442405731400004
34,17.249619255,-4.12451702266,5.630050250199999,-7.12673986822
35,17.75088802,-4.30743663946,6.39542963566,-6.1041204163
36,18.2521574068,-4.430896902460001,5.42624306944,-7.05529344168
37,18.75342688,-3.75832452392,5.557708685380001,-7.0557484955200005
38,19.249683611428573,-4.635056248877551,6.2561178868775515,-5.974428153571429
39,19.74594043,-4.7984096558400005,5.3160212769,-6.874071295139999
40,20.247209762,-4.075511929339999,5.542874533079999,-6.82883536374
41,20.74847901,-4.71047651364,5.9821510529,-6.180168273960001
42,21.249748602,-5.09860739136,5.808081033280001,-6.3847358734
43,21.75101821,-3.56416627806,5.32501756894,-7.17126627504
44,22.25228789,-4.2639341033400004,5.98686025998,-7.0418334319
45,22.75355756,-5.138703012140001,5.53160895996,-5.99118027648
46,23.249814753061223,-3.6207410384591836,5.905449147081633,-7.203995744367346
47,23.746072119999997,-4.30593675848,5.57465344842,-6.8630422303600005
48,24.2473423808,-4.0787721497,5.3683943665000005,-6.57202041316
49,24.748612751,-4.794724319496,6.20550458674,-6.53746626898
50,25.2498842304,-4.024968035840001,5.02433184822,-7.1599228638
51,25.75115637,-3.7621116485058,5.27477005922,-7.42826683968
52,26.2524257024,-4.7332741058200005,6.69369039924,-5.78391528626
53,26.75369456,-3.7473283904800003,5.5121524200800005,-6.97370410762
54,27.249952331836734,-3.765401440102041,5.577239825367347,-7.302848342734694
55,27.7462101,-4.477228555304,5.8124429626200005,-6.3610850556
56,28.247480784999997,-4.7543742279000005,5.2047426819,-6.966923208660001
57,28.74875161,-3.299579489169,5.03719310304,-7.60284879428
58,29.250023094,-4.047603964262,5.68059414372,-7.33181640926
59,29.75129485,-5.00703980714,5.13100003054,-6.3869422851
60,30.252565909999998,-3.1232910827500002,5.74825344546,-7.41592051384
61,30.75383703,-4.03417089842,6.035491131600001,-7.01200645762
62,31.250095852040815,-4.5514902294285715,5.3929607905102035,-6.309126023326531
63,31.74635479,-3.86422031246,5.98606391602,-7.19577630616
64,32.247626555800004,-3.84923647154,4.96247448112,-7.29595997318
65,32.7488985104,-4.179183343492,5.417456341539999,-6.849555276339999
66,33.250170375399996,-4.667869116208,6.01999535518,-6.5334905365800005
67,33.751442280199996,-3.4085498839899997,4.64770305174,-7.75281593646
68,34.25271436,-3.87127065123,5.314081311060001,-7.3455608276
69,34.75398647,-4.93770997926,6.20743856508,-6.0280037017799994
70,35.250246265306124,-3.8790243437142857,4.633321081632653,-7.727976528938775
71,35.74650624,-3.910399282872,5.3661041291,-7.28366154798
72,36.2477791946,-4.41229658204,5.90416023562,-6.5358047241
73,36.74905237,-4.82041689146,4.96919251098,-6.8491690796
74,37.2503250264,-3.297852081318,5.40123607182,-7.34773730176
75,37.7515975904,-4.191248254412,5.79071115426,-7.026385556
76,38.2528710152,-5.01697913818,5.80932344976,-5.9800254729799995
77,38.7541448006,-3.500440795888,5.28852345884,-7.52832177408
78,39.250405413265305,-4.422996209604081,5.7949483224897955,-6.999554555428571
79,39.74666623,-4.48310234072,5.69629050292,-6.17440825196
80,40.2479398012,-4.279468798836,5.96614334102,-6.88693853756
81,40.74921353,-3.555029278568,5.2987232483,-7.16655108026
82,41.250487295,-3.9744570739416,5.37951324448,-7.3343581239
83,41.75176114,-4.8793403595600005,6.263586804080001,-5.974478008979999
84,42.253036525,-3.7687039397962003,5.49948276672,-7.3930720277
85,42.75431255,-3.922263610856,5.11553718578,-7.1941506866800005
86,43.250573010000004,-4.189011354953265,5.693942039591836,-7.117044926877551
87,43.74683272,-4.747368795768,5.610533834840001,-6.32490828554
88,44.248107298799994,-2.982904019176,5.538659298720001,-7.31657809756
89,44.749382251,-4.139399075302,6.0259050659,-7.23542585458
90,45.250656888,-4.76719356998,5.54765559082,-6.10288398746
91,45.75193192,-3.872722631847,5.54102438044,-7.27631781932
92,46.2532077588,-3.792190100096,5.12861698608,-7.3056208833400005
93,46.74947149489796,-4.127489290863061,5.0773039370204085,-7.006901522183674
94,47.2457331708,-4.84554364014,6.62823152164,-6.069096249279999
95,47.747006709999994,-3.542545239284,4.67714981684,-7.6202037049
96,48.2482826386,-3.6117642975754,5.73937391058,-7.30938405776
97,48.74955891,-4.7578110809359995,6.23817864084,-5.920203872659999
98,49.250834678800004,-4.126082766733799,5.7628001952800005,-7.022634357099999
99,49.75211043,-3.5897091614044,4.85594401246,-7.26453432314
100,50.25338661,-3.9432739196720004,5.7754937988999995,-7.35671862452
101,50.74965005612245,-5.048291819040816,5.458041780428572,-6.0013507393061225
102,51.2459136008,-3.0762379302750005,6.020546209740001,-7.390712933280001
103,51.747189909999996,-4.060360437062,4.87577178036,-7.346057794119999
104,52.248466607,-3.9781513915852003,5.304609008899999,-6.502819317539999
105,52.7497435,-4.85614459524,6.55775807192,-6.3729553712
106,53.251020573,-3.5482034729259997,4.68722686158,-7.613635364
107,53.75229795,-3.9591798431308,5.50863772884,-7.19541106562
108,54.2535751908,-4.74880580744,6.07769436952,-6.00433791508
109,54.74983970857142,-4.376021445210204,5.8014154862244895,-6.901755887918368
110,55.246104432,-3.0344208892766,5.36712799986,-7.41292374564
111,55.74738213,-3.9655925079600003,6.175294409199999,-7.080773455999999
112,56.248659777200004,-5.0750882996,5.529154064939999,-5.918856674160001
113,56.749937550000006,-3.5477663818579996,5.3444052521000005,-7.40557702356
114,57.2512152128,-4.18359916075,5.39151528622,-7.07079819936
115,57.75249283,-4.482967620818,5.538632354720001,-6.262365344260001
116,58.25377104219999,-4.6502747039439996,6.585944458,-6.216883923179999
117,58.75003671428572,-3.5359988932591837,5.135282349877551,-7.325213059306122
118,59.246302218800004,-3.911324359142,5.639705172799999,-6.8290329526999995
119,59.7475804,-4.80302904968,6.92067538154,-5.650425878879999
120,60.2488590424,-4.178851034546001,4.89005507814,-7.11785135224
121,60.750137699999996,-3.5633968779458,5.43732602242,-7.386039651480001
122,61.2514167478,-4.44493471072,5.731700866700001,-6.49993631304
123,61.752696189999995,-5.34297422792,5.68391423948,-5.90518710024
124,62.2539750422,-3.6178177093980004,5.1071156982,-7.476499538880001
125,62.75024109183673,-3.933110849796531,6.051908868265306,-7.138899480306122
126,63.2465075988,-4.546600295948,5.22931558222,-6.0275217041
127,63.74778699,-4.8394423279074,6.12662761232,-6.5642545626
128,64.2490667264,-3.635885137976,4.61763358154,-7.368496133580001
129,64.75034682,-4.0176033507998,5.55251149304,-7.2575079347199996
130,65.251626744,-4.8573391114060005,6.50260675968,-5.77028463138
131,65.7529069704,-4.69197498784,5.33223855284,-6.899395633179999
132,66.2541868262,-3.463063522322,5.1279044678000005,-7.3611104918
133,66.75045385877551,-3.8814499119606123,5.896287586469388,-6.7745082556530605
134,67.246721201,-5.2690309936684,5.222953811580001,-6.222494256679999
135,67.74800137,-4.15470325010676,5.36242178646,-7.14942968458
136,68.2492816172,-3.8148200409179998,4.59500663442,-7.34633322154
137,68.75056184,-4.0789996765308,5.664739114520001,-7.3523566953
138,69.25184247279999,-4.130633303846,5.60163334346,-6.562048150760001
139,69.75312342000001,-5.19040549616,5.69517083138,-6.11416153562
140,70.24939109510204,-3.750099586912245,5.667159978183673,-7.10962769789796
141,70.7456586,-4.057375643922,4.80527737428,-7.13144308784
142,71.246940249,-3.7661442626399997,5.294645727680001,-7.3197395233
143,71.74822309,-5.34010319828,6.55049816898,-5.682001217660001
144,72.249503375,-4.373946331676,5.46947317196,-6.849058309959999
145,72.75078284,-3.6302328918062,4.89145915826,-7.32432299188
146,73.25206376199999,-3.8609990112496,5.50219512634,-7.27485386342
147,73.75334462,-5.22774983828,5.187019537239999,-6.109805593900001
148,74.24961317061224,-4.453340251675306,6.078247973408163,-6.779741251346938
149,74.74588194,-3.9209912567560004,4.38842123114,-7.43883186934
150,75.247164046,-3.9825342773595995,5.3736095215,-7.455980209120001
151,75.7484473002,-4.901697866806,6.1375249512200005,-5.836899105800001
152,76.24972803,-4.68028729248,5.71742056276,-6.714113928420001
153,76.75100784039999,-3.7536183106016,4.81875834048,-7.4224469421000006
154,77.2522893842,-4.04880746155,5.5963074187799995,-7.13496975408
155,77.75357094,-4.8138904632871995,5.22821387334,-5.9917999878199995
156,78.24983979714285,-4.471122660732857,6.581513671959184,-6.608613439979592
157,78.74610861000001,-3.95323420715,4.2009959837999995,-7.53204602956
158,79.2473903828,-3.86209173889,5.582470193540001,-7.0987570586599995
159,79.7486721404,-4.6330096069342,5.87127661736,-6.16169369178
160,80.2499539768,-4.8836244506688,5.5629268341,-6.36405787368
161,80.75123573,-3.559187631276,5.27589871212,-7.62792764274
162,81.2525180916,-4.440782345614,4.76003246158,-6.93582088622
163,81.7538008406,-3.7069513549793998,5.310171442,-6.9889484068800005
164,82.25007003857142,-5.402226216848979,6.621095646469389,-5.763101283489796
165,82.7463391208,-4.404509774766,5.27188705454,-7.169059863359999
166,83.247621464,-3.68600990299062,4.75147625416,-7.26146271068
167,83.74890402000001,-4.085430303958,5.441068240340001,-7.468634894000001
168,84.2501863824,-4.82001871952,5.32407752382,-6.00356552126
169,84.75146884,-5.045800204478,5.7510645996220005,-6.64932266216
170,85.2527512912,-3.935391311638,3.92876608886,-7.62846652186
171,85.7540335,-4.1311691894398,5.60942015058,-7.230432238580001
172,86.25030335755102,-4.672344014709782,5.865155387387755,-6.054740734530612
173,86.7465732802,-5.10797191769,5.39618258064,-6.647259951820001
174,87.2478559634,-3.420375292952,4.9022487213599995,-7.62963409436
175,87.74913849,-4.182644146697999,5.2473710358200005,-7.40086781608
176,88.25042157600001,-4.4033601653938,5.04142031252,-6.377715472559999
177,88.7517048804,-5.082297308336,6.33487456058,-6.3987856568799995
178,89.2529881246,-3.77189230962,4.01828892522,-7.8626036317
179,89.75427142000001,-4.093516488624,5.59086473692,-7.3034294399199995
180,90.25054156489797,-4.566825686061224,5.71216129532653,-6.278665896020407
181,90.7468112806,-4.6716981536999995,5.59325676272,-6.702689685279999
182,91.24809485940001,-3.366586148024,4.78168942566,-7.6241285428
183,91.74937888000001,-4.352205542008,5.123123410000001,-7.497722406179999
184,92.2506622188,-5.004875308192,4.86424275508,-6.29268329774
185,92.75194526,-4.904464114338,6.19237987978,-6.57900488904
186,93.253228867,-3.767958489978,4.1758961792200004,-7.7324462953
187,93.74949971775511,-4.105100135044898,4.9116107426938775,-7.456624481857143
188,94.2457708044,-5.0119855224,6.42599008478,-5.760117773419999
189,94.74705506000001,-4.34068549803,5.03814811698,-7.32835261262
190,95.2483387788,-3.9584373870688,4.9044910584000005,-7.26821367188
191,95.74962224000001,-4.14396757504,5.56424708862,-7.15270487352
192,96.250906272,-5.11003163458,5.11133093262,-6.31910635068
193,96.7521904406,-3.344563943472,5.49988992012,-7.45753697184
194,97.25347461,-4.500999124180001,5.152324685680001,-7.16841620182
195,97.74974626367347,-4.429215928653061,5.290231559918367,-6.128570877346939
196,98.2460174914,-5.180645791638,6.1008691772,-6.55260578632
197,98.74730141,-3.8747314544544,4.23790922244,-7.9370288636
198,99.2485855992,-4.262592892404,5.30356418158,-7.21799310628
199,99.74986976059999,-4.386963262948,5.889841012540001,-6.03899684146
200,100.25115403199999,-4.796134387176,5.41545650032,-6.946802051060001
201,100.7524383,-3.6154526275760004,4.68697538452,-7.677723092699999
202,101.25372293599999,-4.532634338396,5.44346026608,-7.1917526735
203,101.74999512244898,-4.82979210987347,4.8386267993469385,-6.176691218836734
204,102.24626676,-5.0793214965602,5.889119512920001,-6.5605662323
205,102.74755123999999,-3.852032656862,4.15564928282,-7.811011917219999
206,103.248835816,-4.22814053642,5.3337474150399995,-7.354422399820001
207,103.75012070000001,-4.366455908226,5.2526789978199995,-6.69622313218
208,104.251405096,-5.202542257679999,5.60095974436,-6.23951685794
209,104.75268922,-3.667427545258,5.578150177,-7.4956088012999995
210,105.253973908,-4.613918307504,4.76901079098,-6.9825387359199995
211,105.75024591836736,-4.018922200097959,5.429411521265306,-6.532177491632653
212,106.24651782000001,-5.1826007263,6.4345642548,-6.12758562014
213,106.74780272,-3.9032800872799998,4.54335205076,-7.545658721800001
214,107.249087548,-4.1435783844006,5.5631274169200005,-7.11595030522
215,107.7503724,-4.71973326412,6.06974589842,-5.865429776
216,108.251657368,-4.752401330562,6.0022093414,-6.478542801060001
217,108.75294219999999,-3.238398715258,5.33246907348,-7.492405462640001
218,109.254227384,-4.339996929903879,5.627119345080001,-7.06736434022
219,109.75049988979592,-4.203491447632652,5.155908844489796,-6.406555051408163
220,110.246772598,-4.8637757263,6.54715112922,-6.1574515135
221,110.74805876,-3.99191077876,4.0620070129800006,-7.74459203792
222,111.24934414200001,-4.066467736853999,5.32780477292,-7.386063601660001
223,111.75062912,-4.6917893738,5.6125785828,-6.2304367401
224,112.25191497399999,-5.14410078738,5.72698866572,-6.180692184460001
225,112.75320136,-3.7647701201799997,5.05306310112,-7.58770628366
226,113.24947426326531,-4.492858073922449,5.156938336489796,-7.172313668285714
227,113.74574686,-4.6722100890939995,5.05020704042,-6.23915760492
228,114.247033092,-5.053497198496,5.98510590814,-6.66983001726
229,114.74831974,-3.765219186458,4.355160397380001,-7.7311529844999995
230,115.249606024,-4.114601641934,5.3451117829,-7.380309567059999
231,115.750892532,-4.640523980688,5.629975405820001,-6.111784478800001
232,116.252178834,-5.10410994866,5.3093810852,-6.4715403624
233,116.75346488,-3.843865640258,5.3474559082,-7.339037393
234,117.24973864081633,-4.781445707897959,4.872239554306122,-7.320181685346939
235,117.74601274000001,-4.341508786058,5.15884812012,-6.30837067566
236,118.24729954,-5.0409203521538,6.43183692618,-6.26728710954
237,118.74858664,-3.878309014846,4.4422343261599995,-7.4085109226200005
238,119.2498733,-4.0210192474524,5.62511052242,-7.24961035778
239,119.75115958,-4.484946505734,6.0768591064,-5.94458816534
240,120.252446456,-4.970285238646,5.566968429559999,-6.604865112280001
241,120.75373332,-3.335546694958,5.121249307279999,-7.51147879948
242,121.25000747959184,-4.50087711255102,5.724197490469388,-7.15378281577551
243,121.74628176,-4.81705188908,5.2340726898800005,-6.14822769468
244,122.24756901999999,-4.012531896972,6.24915381776,-6.66382749946
245,122.74885642,-4.495310952820001,4.4728815947800005,-7.0404802457799995
246,123.25014394,-3.997727682492,5.18031048894,-6.75621238412
247,123.75143186,-5.271674496519999,6.419343905660001,-6.121864517220001
248,124.25271932,-4.30681992184,5.013877587900001,-7.28627211922
249,124.75400686,-4.103255236838,4.6784970154000005,-7.31307837502
250,125.25028157755102,-3.9549165250816323,5.738882259489795,-7.036112206857142
251,125.746556184,-5.275605322300001,5.23119267892,-6.13844403992
252,126.247843964,-4.001209442144,5.10634929198,-7.52494180312
253,126.74913169999999,-4.1326930206679995,5.377713986180001,-7.2780272643
254,127.250419642,-4.80891481012,4.740501077299999,-6.60318859858
255,127.75170746600001,-4.4877516724060005,5.565384722899999,-7.20657185648
256,128.252995606,-3.926095642066,4.4888384125,-7.51412529598
257,128.75428374,-4.049876238902,5.07545653382,-7.157372167979999
258,129.25055922244897,-5.393015778244898,6.2932193055102035,-5.828102846693878
259,129.74683474,-4.019833712760001,4.59530002434,-7.57666524368
260,130.248123354,-4.0868882721277995,5.4249317963,-7.2084968535
261,130.74941216,-4.538463217184,5.5112363250400005,-6.67479070136
262,131.250700838,-4.945158489976,5.53714444888,-6.3287642669
263,131.75198966,-3.7083674103127997,4.7579996887,-7.52004698188
264,132.25327842000002,-4.6888704437360005,5.208856127960001,-7.440933499300001
265,132.74955439795917,-4.634210049408163,5.457641592204081,-5.876980796306123
266,133.245830544,-4.504340176396,5.97669938966,-6.94646076056
267,133.74711992000002,-3.890320037876,4.54818999026,-7.398736249040001
268,134.248408944,-3.8464402862740004,5.2144155671,-7.3367172181599996
269,134.749697926,-5.0068062927,6.48479080816,-5.927179367060001
270,135.250987146,-4.382915679953999,5.42789862676,-6.98029340532
271,135.75227624,-3.4015444518700004,5.14519650882,-7.34021095278
272,136.253565708,-4.23096067201,5.6048785949,-7.049853753920001
273,136.74984277551022,-5.0961036183877555,5.617280030530613,-5.956602976306122
274,137.24611924,-3.8780006561258,5.7204891815400005,-7.299046554499999
275,137.74740842,-4.0964623626079995,4.85236046454,-7.12627283892
276,138.248698024,-3.7970280394927998,5.40626261904,-7.07881253368
277,138.74998793999998,-4.92753414008,6.49073644414,-5.98256718752
278,139.25127745199998,-4.35231930542,5.2371323272999994,-7.185926788100001
279,139.75256648,-3.8474521819952003,5.080935141,-7.344360324179999
280,140.253856278,-4.113449038642,5.86152290042,-6.953364404479999
281,140.75013329591837,-5.274819731387755,5.396944343428571,-5.936456096387755
282,141.246410288,-3.590385754386,5.1960068482,-7.49315989386
283,141.74770049999998,-4.571092364454,5.3273467255,-7.31460520022
284,142.2489909,-4.3573787840576,5.028568039,-6.24125624084
285,142.75028306000002,-5.0711784301908,6.35071462098,-6.28621375152
286,143.251572832,-3.8343454376480004,4.8987549866,-7.4768019104
287,143.75286110000002,-4.2318408417028,5.59723848266,-7.09455379968
288,144.254151208,-4.160942275988,5.9023819336,-6.54466929024
289,144.75042797346939,-5.039362428651429,5.726546686918367,-6.210691942530612
290,145.24670537600002,-3.3120844848366,5.40232580566,-7.5070061004
291,145.74799608,-4.485985345437999,5.908845492599999,-6.861284885
292,146.249286378,-4.388160772698,5.3530392975,-5.97255001828
293,146.75057648,-4.831775271665,6.253952838180001,-6.4800187318999996
294,147.25186692,-3.81135325009,4.7707262238,-7.4308325041600005
295,147.7531577,-3.9592307372904,5.7375087892,-7.311988641519999
296,148.2494351489796,-4.195622097716327,5.9213558648571425,-6.283309301265307
297,148.74571228000002,-4.757838024934,5.410561679080001,-6.7544041447200005
298,149.24700278,-3.8765846008431,4.73591461492,-7.42421626294
299,149.748293744,-4.4369802520479995,5.65229399418,-7.271270315740001
300,150.249584084,-4.84851645812,5.06985817552,-6.05414234622
301,150.7508742,-4.901940362526,6.10235109562,-6.71067108754
302,151.25216457,-3.9081958648839996,4.4561434021399995,-7.6350228881
303,151.7534554,-4.1789318664958,5.22761511832,-7.289526352179999
304,152.24973277959182,-5.0704090912448985,6.407575378408163,-5.860673890387755
305,152.74600946,-4.43277699278,5.04609359434,-7.206862253000001
306,153.24729983400002,-3.8958166076859997,5.02024833976,-7.084880914479999
307,153.74859022,-4.14244673764,5.72264170528,-6.923453604300001
308,154.24988063,-5.1984826995799995,5.43806847836,-6.213411145039999
309,154.7511714,-4.1023331542540005,5.80121331482,-7.10772940056
310,155.25246169800002,-4.40562944644,4.7710884705000005,-7.025023388739999
311,155.753752084,-4.0383262572400005,5.229986187760001,-6.8259314026
312,156.25002939387755,-5.24838287044898,6.616760783306122,-6.002511590469388
313,156.74630607999998,-3.732048166004,4.59441087338,-7.599094601640001
314,157.247596456,-4.2802322113182,5.4853611327600005,-7.07949212042
315,157.74888702,-4.681778192154,5.69285364996,-6.31758251952
316,158.250177344,-5.0652806946006,5.372232385239999,-6.64036528908
317,158.75146826,-3.632304583728,5.371193545500001,-7.49624946926
318,159.252758352,-4.55635101933,5.364631192000001,-6.936748956500001
319,159.75404826,-5.2672017975,4.8006879181199995,-6.259614065539999
320,160.2503256,-4.510976518838776,6.069706551653061,-6.86884575367347
321,160.74660322,-4.41317974542,4.90608973386,-7.0674661283399995
322,161.247893556,-4.371012432840001,5.055700616479999,-6.49020654606
323,161.749185304,-4.96877937008,6.81139962152,-5.98640520638
324,162.250475124,-4.29764400326,4.3507236236799995,-7.29990876168
325,162.7517635,-4.25717715454,5.37138514712,-7.25284662764
326,163.253053508,-4.78026139528,6.53001476434,-5.82502879028
327,163.75434358,-4.695007681342,5.3080937622199995,-6.9469427580000005
328,164.2506207020408,-3.8367663014163265,4.8422957004081635,-7.30206324055102
329,164.7468979,-4.42405612792,5.7086727539,-6.65559162572
330,165.24818782,-5.342917346179999,5.4099868745,-5.99412016298
331,165.7494771,-3.8370428283399995,5.59096053774,-7.35391345852
332,166.250767112,-4.590773437558,5.6323674317,-6.88769895656
333,166.75205753999998,-4.3258004517,5.090670895260001,-6.36259092412
334,167.25334748400002,-5.40225096126,6.31126565554,-6.05481295196
335,167.74962449591837,-4.15502285077551,4.212741599591837,-7.694760907102041
336,168.24590157999998,-4.283851684492,5.47514936832,-7.017149761880001
337,168.74719131999998,-4.70025876158,6.619094522059999,-5.8292140868599995
338,169.2484811,-4.7426625824,5.09550584104,-7.224019574
339,169.74977085999998,-3.811586764494,5.01425480348,-7.05680230418
340,170.25106065,-4.276196603420001,5.8974571746799995,-6.7852220582400005
341,170.75235093999999,-5.12403052364,5.41467213132,-6.18831134034
342,171.25364042,-3.84757792058,5.03515733644,-7.4014336396
343,171.74991637959184,-4.48696217122449,5.425547108510204,-7.44483267622449
344,172.24619309000002,-5.15753085942,5.387479678339999,-5.89378381352
345,172.74748277999998,-4.32858166816,5.54402713626,-7.2092243407800005
346,173.2487725,-4.4643882568999995,5.27068655092,-6.89314163814
347,173.75006256,-4.52856879272,5.35557502438,-6.54871687316
348,174.25135226999998,-4.8664910797,5.46537170104,-7.0816326691
349,174.75264196,-4.5055855866000005,5.07997114564,-7.0560538605600005
350,175.25393184,-4.80511870422,5.32274230044,-6.28379777528
351,175.750209,-4.139394126469388,5.590278018244898,-7.228590517714285
352,176.246486084,-4.40890164186,5.69108432924,-6.97917073974
353,176.74777594,-4.8913154572,5.1202912994,-6.471555331419999
354,177.249066092,-4.4981071379560005,5.52690873418,-7.15423469228
355,177.750356146,-4.1906075866600005,4.71308109738,-7.24652078264
356,178.251646326,-4.434573257484001,5.267037139939999,-6.5350981932800005
357,178.75293645999997,-5.098382858256,6.1192060455199995,-6.3144091186799995
358,179.25422682,-4.18079399415,4.49529299014,-7.2831975131
359,179.75050465510202,-4.054563390022653,5.507478771612245,-6.9955771123673465
360,180.246782204,-5.30820453182,6.33120419312,-5.86816907956
361,180.74807248000002,-4.230616387922001,5.3979099884,-7.385674410939999
362,181.24936312000003,-3.806814688064,5.22838152476,-7.00823729556
363,181.75065419999999,-3.6521862396542004,5.77386219178,-7.2235764953
364,182.251944884,-5.30626456606,5.47246395268,-6.030677142319999
365,182.75323550000002,-3.7172140136519998,5.40001161802,-7.1994167361
366,183.24951336938773,-4.486097642548979,5.364993438693878,-7.01269966889796
367,183.745791064,-4.144566329958,5.3361873413000005,-6.47790213322
368,184.247081974,-5.0886740479,6.37617068478,-6.29467715146
369,184.74837245999998,-3.926751278676,4.6830595276,-7.60776756582
370,185.249663604,-4.380933801304,5.2509306335199994,-7.09059902352
371,185.75095539999998,-4.8438431763,6.036012048380001,-6.08455310666
372,186.252246568,-4.7264752441399995,5.58518854068,-6.70755456866
373,186.75353783999998,-3.4591805969464002,5.122039663660001,-7.19542603452
374,187.24981602857142,-4.216871786367347,5.659614444632654,-7.238045346020408
375,187.74609388000002,-4.88515127564,5.63630723874,-5.9687539124399995
376,188.24738517000003,-4.6179060149808,5.581069107099999,-6.843669516119999
377,188.74867692,-4.17535729981,4.99534911802,-6.98305965262
378,189.24996815400002,-4.185904367046,5.5030214080999995,-7.1339578583000005
379,189.75125934,-5.1961864746,6.40804240726,-5.7579412994
380,190.25255066000003,-4.1835362915,4.87395755306,-7.29906751096
381,190.75384193999997,-4.434716958626,5.38240523072,-7.09495795914
382,191.2501203142857,-4.642439874163266,5.886826648387755,-6.24085269222449
383,191.74639803999997,-4.756353112819999,4.9961574371,-7.183223410199999
384,192.247689452,-4.209995269699999,4.8727570495600006,-7.04140232858
385,192.74898116,-4.30329325562,5.3707085541,-6.9730424836
386,193.250272692,-5.2016770569,5.46393768314,-6.35347488104
387,193.75156444,-3.8889578704502,4.7343339019799995,-7.7200191375
388,194.252856068,-4.320244006374,5.0818452484,-7.14633412194
389,194.75414755999998,-4.227763320944,4.87238881536,-7.02846323534
390,195.250426322449,-5.821330195979591,6.0069075510408165,-6.020501730795918
391,195.74670518,-3.81864309074,4.78058172914,-7.80846421494
392,196.247996848,-4.346307806372,4.62988410652,-7.39265888682
393,196.74928884000002,-4.92193877564,5.8999569763,-6.271936440979999
394,197.250580548,-4.4446862274,5.5792848175,-7.09892471
395,197.75187252,-3.937897100856,4.83205069886,-7.216343536419999
396,198.253164246,-4.3645578552,5.4304313599,-6.97161145928
397,198.74944326530613,-5.16847964232653,4.871573592244898,-6.704389782428572
398,199.245722148,-3.736538827578,4.64532599482,-7.52578005964
399,199.74701324,-4.109506237824,5.4457714598999996,-7.558400225540001
400,200.248305168,-5.16964666438,5.21849308782,-6.28263918452
401,200.74959773999998,-3.9313467224200003,5.60262428284,-7.273231237779999
402,201.250889676,-4.22065610048,5.047359960940001,-7.267674792379999
403,201.752182,-4.60641890258,5.17170937504,-6.49765805054
404,202.25347387999997,-4.6157714538459995,5.624882995619999,-7.16110241094
405,202.74975235102042,-3.7875095477142855,5.175411146469388,-7.2641125673265305
406,203.246031358,-3.8392222960880003,5.30499819934,-6.755715417479999
407,203.747323204,-4.394336929332,6.6188939391999995,-6.6049848632399994
408,204.248615168,-3.98432754814,4.53472099914,-7.665945584139999
409,204.74990772,-4.058537228384,5.04067186888,-7.142825418139999
410,205.25119967999998,-4.93137814636,6.48150963134,-5.87854550174
411,205.7524907,-3.7704253601200004,4.7559369782,-7.82775310354
412,206.253782732,-4.350038049316001,5.2117481141,-7.13527811296
413,206.7500620897959,-4.615538672612245,6.127116758367348,-6.227738127346939
414,207.24634119400002,-4.6269262574,4.79152098084,-7.47953822026
415,207.74763292,-4.095588180546,5.0620234679800005,-7.07028925758
416,208.24892492200001,-4.385053235,5.8708604828199995,-6.915475195400001
417,208.75021798,-5.245655602959999,5.07057368786,-6.25403366998
418,209.251509926,-3.627694171124,4.89998542788,-7.81313450324
419,209.752801184,-4.714395364348,5.6188984406,-7.0278974122
420,210.254093128,-4.25493182377,5.2516790771599995,-6.30975379946
421,210.7503723489796,-5.017953886763266,5.710694956877551,-6.810412164612244
422,211.246651334,-3.883176892018,4.70597387694,-7.60142076428
423,211.74794298,-4.3159000396568,5.2063144134599995,-7.33724711618
424,212.249234874,-4.691268457,5.95791644894,-6.2515518310000004
425,212.75052744,-4.4987418183,5.31060553894,-6.9884873657
426,213.251819326,-3.8960201842660003,4.84862423402,-7.16464703952
427,213.75311048,-4.26494599912,5.857277728220001,-7.3161739377599995
428,214.24938945714285,-5.094359286571429,5.161065468367347,-6.204285876224489
429,214.74566824000001,-4.003107495191919,5.52367246394,-7.2849189331
430,215.24696004,-4.219473559582,5.11958776246,-7.004881274460001
431,215.74825192,-3.85107165526982,4.95552293698,-7.2332972809000005
432,216.24954374,-5.32107776186,6.54343585512,-5.93360400704
433,216.7508354,-3.996643936162,4.96383066096,-7.57233025816
434,217.252127184,-4.120888568104,5.01284174194,-7.15876127914
435,217.753419106,-4.0870439483776,5.86142111204,-6.8032775116
436,218.24969794897962,-5.388949743734694,5.45940730822449,-5.936917382061225
437,218.7459771,-3.9497135284206,5.149630288659999,-7.50341955882
438,219.24726878,-4.430774157732,4.98182025146,-6.95841789544
439,219.74856032,-4.0476698272938,4.855626672320001,-7.19691394072
440,220.249852,-5.26588453674,6.3883463653599994,-5.8344891175199995
441,220.75114358,-4.1185444427548,5.14831003422,-7.4160252961
442,221.2524352,-4.153017755158,4.77703111264,-7.31193774748
443,221.75372686,-4.054103448494001,5.37397775572,-7.35527861948
444,222.25000559183673,-5.413663657061224,5.39266752277551,-5.956774049061225
445,222.74628416,-4.06551871029046,5.30625259098,-7.48775912478
446,223.24757584,-4.302173583986001,4.6938640594,-7.053290606839999
447,223.74886732,-3.6855847869517997,5.00229168092,-7.17003882738
448,224.25015889999997,-4.79897248528,6.8678173004200005,-6.00190697032
449,224.75145018,-3.900447976684,5.1730805236599995,-7.496527890119999
450,225.2527417,-4.2404868621908,4.83556539002,-7.09325749528
451,225.75403374599998,-4.029341940318,5.666032424899999,-7.11254638364
452,226.25031232653063,-5.20954322977551,5.501631746857143,-6.156189973795919
453,226.74659072400001,-4.0093076019408,5.12760209654,-7.595301489140001
454,227.24788218,-4.395007534762,5.06725658572,-7.052524200300001
455,227.74917321,-3.930218069442,5.36469406134,-6.7826563934
456,228.25046464,-5.175954547060001,6.40795858158,-6.22068302324
457,228.751756022,-3.9049745636839996,4.44649746088,-7.69114118942
458,229.25304744000002,-4.40188124081,5.4984918273400005,-7.1996023497
459,229.7543392,-4.370943576008,5.668163992339999,-6.61690307912
460,230.2506177265306,-4.708092125144898,5.795165218469387,-6.489216828714286
461,230.746896848,-3.5615048127019997,4.7883835051800006,-7.55954085382
462,231.24818824000002,-4.27435842582,5.88175482784,-7.2499546417
463,231.749479058,-4.91668170778,4.86075201414,-6.6510949768
464,232.250770466,-3.71336701364,5.05112014158,-7.66286798376
465,232.752061212,-4.36125272826,5.22648347168,-7.20509592602
466,233.2533526,-4.907430944800001,5.01637140196,-6.3910048370000005
467,233.74963194081633,-4.363838616204082,5.636418802632654,-7.209827494877551
468,234.24591036,-4.162555920422,5.0478748901,-7.3375764311000005
469,234.74720123999998,-3.821699734396,4.7040698364399995,-7.2404883271
470,235.24849254,-5.10528650212,6.3291325012,-5.9425434173400005
471,235.749784536,-3.9551771667000004,4.9545798980799995,-7.63415169984
472,236.251075904,-4.403973889188,5.288373770140001,-7.27183913264
473,236.752366946,-4.23143368834,5.64934812008,-6.72961269836
474,237.25365832,-4.78359645996,5.276922583,-6.87409225154
475,237.74993675714285,-3.438157457612245,5.022682828306123,-7.467759489755102
476,238.24621525999999,-4.3862597259000005,5.46758709414,-7.36707109694
477,238.74750677600002,-4.99354387214,5.0012708038,-6.44006082464
478,239.24879819999998,-3.6708913421800005,5.189420544460001,-7.5231964326
479,239.75008962,-4.2865430877540005,5.70347256776,-7.110726169079999
480,240.25138108,-4.766681634479999,5.04386622624,-6.565356271340001
481,240.75267262,-4.15125442202,5.3621224090399995,-7.27882360856
482,241.25396418,-4.29491068724,5.04932387694,-7.45324988716
483,241.75024254081632,-4.853791183102041,5.2398597780000005,-6.340933349061224
484,242.24652116000001,-4.34896328428,5.67528019408,-7.1285630768
485,242.74781226,-4.30652952578,4.8263475586,-7.24417066966
486,243.249103524,-4.32901576536,5.4222463806,-6.5626708556599995
487,243.75039537600003,-4.77336373906,5.74585243834,-7.235833007899999
488,244.25168666000002,-4.0615399841599995,4.33764382324,-7.48893567814
489,244.75297801600001,-4.31525937192,5.10904967644,-6.93316241448
490,245.25426932,-4.58029522708,6.15123045046,-6.69845050046
491,245.75054737346937,-3.9721246182653065,5.034737352673469,-7.411763688673469
492,246.24682582000003,-4.318747119142,4.87508321232,-7.01848498536
493,246.74811773000002,-4.9647437621799995,6.11911323848,-6.33679057618
494,247.24940918000001,-3.8018120910800004,5.40332273254,-7.390344699040001
495,247.750700746,-4.264922048928001,5.1358679077,-7.35956570428
496,248.2519924,-4.818875097619999,5.52621417846,-6.3863794556
497,248.75328421400002,-4.549222842412,5.42838960574,-6.93414437262
498,249.24956314285714,-3.648763377933755,4.690786276061225,-7.476013753387755
499,249.745841314,-4.13387256783,5.6342295593200005,-7.37698348378
500,250.24713328,-5.13602957156,5.10523560798,-6.37073997806
501,250.74842652799998,-4.27434645079172,5.4563933716,-7.134844015620001
502,251.24971882000003,-4.1221549347140005,4.42027798456,-7.3799443268200005
503,251.751010838,-4.160157907094,4.86616775208,-7.40481361088
504,252.25230324,-5.34506088876,6.335940344220001,-5.8755457398
505,252.75359487400002,-4.165959841862,4.53586462098,-7.6418397125
506,253.24987456938774,-4.058760783897959,5.090723989040817,-7.257324642346939
507,253.74615491199998,-4.22283856206,5.5460509277200005,-6.658555462639999
508,254.24744778000002,-5.19233648068,5.403595166100001,-6.36461471562
509,254.748740636,-4.0602107483052,5.38185138242,-7.324314010419999
510,255.25003366,-4.46892083126,4.9526339447200005,-7.03016669296
511,255.751326992,-3.830495443748,4.96286367182,-7.28885874
512,256.25262032,-5.22212453622,6.380397894280001,-5.88533538204
513,256.753913834,-4.542552713014,5.26033108526,-7.198129413059999
514,257.25019451632653,-3.7798051608,4.775656725795919,-7.331325858081633
515,257.74647524200003,-4.02785403440594,5.30993193968,-7.2315070039
516,258.247769086,-5.671439181539999,5.17885551458,-5.9422679900599995
517,258.74906285599997,-4.5243984649782,5.44407698364,-7.06491842646
518,259.25035688,-4.2535007996,4.119709020959999,-7.39598197646
519,259.7516515,-4.1170505493256,5.440732937499999,-7.37910307616
520,260.25294578,-4.648999356068,5.82242720032,-6.11367355032
521,260.754240272,-5.1071037231626,5.4434033842,-6.41516759016
522,261.2505218142857,-3.697632162891837,4.750744245836734,-7.602931459510204
523,261.74680316,-4.506950747656,5.2626123413200006,-7.2507599672000005
524,262.24809788,-4.38938822023214,4.8822443207,-6.53911883226
525,262.749392832,-5.43635304572,6.31734002376,-5.93992685866
526,263.25068784,-3.980354809552,4.8198121490800006,-7.40094864816
527,263.75198257200003,-4.3360900542952,5.14084056692,-7.28379028004
528,264.25327776,-4.066503662102,5.55293062136,-6.8853099244800005
529,264.7495603387755,-5.466326592877551,5.088701663877551,-6.110296634020408
530,265.24584276,-4.3262285613676,5.25067616276,-7.05294033486
531,265.74713879,-4.191508712791999,4.59366841738,-7.3550421112
532,266.24843442,-4.174297503688,5.31411424248,-7.3416898771
533,266.74972964,-4.76616969914,6.022294574,-6.1117485534
534,267.25102542,-4.9302524872358,5.12811403206,-6.7635650941400005
535,267.752321992,-3.9393610565,4.7609006561400005,-7.4253808411
536,268.25361809000003,-4.633461666864,5.36046086426,-7.271117633039999
537,268.7499005428572,-5.074206296904082,5.079048268918368,-5.680072921510203
538,269.24618368,-5.0500483703186,5.9594522552,-6.53661903094
539,269.747480134,-4.102578643816,4.18391650084,-7.5341596342
540,270.248776482,-4.3440505005162,5.42374326786,-7.33774707634
541,270.75007281,-4.869071713286,5.9055343781,-5.88860458364
542,271.2513692,-5.11238773501,5.18479216922,-6.58908492762
543,271.75266565000004,-4.1607297180486,5.209433926420001,-7.34166892088
544,272.25396218000003,-4.447479418956,4.70076770318,-7.06689132404
545,272.75024606938774,-4.015351054920409,5.011278991693877,-6.965333881102041
546,273.246529826,-5.2586096649,6.51984491274,-5.819277749599999
547,273.747826568,-4.883106527708,5.43927197592,-6.65175061338
548,274.24912338,-3.796797518944,4.7033213928399995,-7.25353519582
549,274.750419936,-4.132848696872,5.6415313751600005,-7.40809778134
550,275.2517168,-4.829502996784,5.40305029904,-5.9265776184000005
551,275.75301379,-5.355167871154,5.98762966002,-6.43432774668
552,276.25431072,-3.9087497130999997,4.51928509834,-7.60478277292
553,276.75059481836735,-4.310937400366939,5.341290688020408,-7.116611135040816
554,277.246878868,-4.80551088872,5.9585541229,-6.13368393878
555,277.748176204,-4.62204341128,5.7520705078,-6.52627853384
556,278.24947332,-3.6279306793301798,4.79282327268,-7.61612019648
557,278.750769912,-4.550504177834,5.8832337524,-7.02212840886
558,279.252067,-4.41514665522,5.63041848458,-6.1494910675
559,279.75336464,-4.189242425474,5.62653855284,-7.02217930284
560,280.24964896122447,-4.3412570034510205,5.102534123632653,-7.123179109387755
561,280.745932836,-3.7894058899300003,5.26487264092,-6.968081799379999
562,281.24723008,-5.241793634076,6.2602936524,-6.39107668766
563,281.74852738000004,-4.2983176025,4.6978757171400005,-7.643240798739999
564,282.24982464,-3.992847830208,5.31451840218,-7.1104058349
565,282.7511221,-4.3978037201,5.4855287842400005,-6.91341847226
566,283.252419444,-4.881540783686,5.6087974457,-6.41369165962
567,283.753717288,-3.585269393984,5.4377571259,-7.147112503
568,284.2500017285714,-4.12120541942449,5.927633626530612,-7.056231592816326
569,284.74628557799997,-5.58058710936,5.187468603439999,-6.491544763179999
570,285.24758282,-3.4842714202807796,4.639904269400001,-7.7887801479
571,285.748880498,-4.48410824888,5.00132169804,-7.595289514359999
572,286.25017794,-5.0170270386,5.11372295838,-6.205815939300001
573,286.751475254,-4.3218187316964,5.25593921812,-7.34474352732
574,287.25277268,-4.141551599146,4.37408404544,-7.5087963778599995
575,287.75406973599996,-4.051409051538,4.62569880984,-7.33932180184
576,288.25035419591836,-5.221414461653062,6.227606767897959,-6.142443050571429
577,288.746638838,-3.749567733756,4.5108037354,-7.94833036212
578,289.24793644,-4.53265828854,5.0598889068199995,-7.2447993622
579,289.749233394,-4.73487876894,5.62980775452,-6.47055541076
580,290.25053084399997,-4.60660451658,5.06978033752,-7.08355467212
581,290.751829164,-4.198834478792,4.9788474334799995,-7.28012590006
582,291.253126826,-4.248312588516,5.3360526215,-7.15523461302
583,291.74941121836736,-4.852550905163265,5.775974513448979,-6.322918769693877
584,292.24569586,-3.80184202876,5.05776931454,-7.11892611684
585,292.746993176,-4.83380804442,5.33922302856,-7.4943813538
586,293.24829076,-4.764451272580001,5.161629336480001,-6.4414020355599995
587,293.7495882,-4.25005795902,5.3012350250199995,-7.34797979734
588,294.25088575999996,-4.34677184144,4.81878229062,-7.40055646358
589,294.75218274400004,-4.851710815360001,4.9457063507,-6.581624441500001
590,295.25348026,-4.3222767791839996,5.4288985474,-7.38274350574
591,295.7497652,-4.259355889122449,4.814120617306123,-7.323514550836735
592,296.24604992,-4.4942391815,5.268453195199999,-6.42182574452
593,296.74734691599997,-4.67726058654,5.52637883608,-7.29526541738
594,297.24864438000003,-4.06743472596,4.4255470276199995,-7.482717608520001
595,297.749942004,-4.232370739738,5.1109686859,-6.87979239798
596,298.25123954,-4.775204910239999,6.0105110778799995,-6.73115449218
597,298.7525375,-4.01640883478,4.06030056154,-7.83045049428
598,299.25383504,-4.3995221465959995,4.82043485406,-7.57554856538
599,299.75011969999997,-4.898111264020407,6.041012140408164,-6.153403930653061
600,300.246404246,-4.34450555424,4.2338855896,-7.847919168260001
601,300.747701474,-4.094034411636,4.61134665534,-7.432254546919999
602,301.24899888,-4.217377917532,5.3809203186,-7.04431826502
603,301.750295984,-5.17482888792,5.45876743474,-6.1837099091
604,302.2515934,-3.4562347228342,5.04612353212,-7.7213393919
605,302.7528908,-4.76844197388,5.02055669858,-7.22276817638
606,303.25418836,-4.470076428142,4.8194199646,-6.46873519604
607,303.7504726612245,-5.034880931585714,6.022270501591837,-6.6200814290204075
608,304.2467572,-3.858939294462,4.376856280519999,-7.69429662778
609,304.748054642,-4.130369851652,5.2365066284,-7.3942725313
610,305.24935222,-4.438519052114,5.64411200864,-6.372859570299999
611,305.75064962,-5.059682336388,5.4858251679,-6.65792078222
612,306.25194712,-3.77110794073766,5.143972055100001,-7.461476779240001
613,306.75324495,-4.620217208864,4.79292506106,-7.088296811
614,307.2495295510204,-3.635584660657143,5.057135673081633,-7.431314868428572
615,307.74581379800003,-4.8289072357,6.117418762160001,-6.02978200364
616,308.24711120200004,-4.9108169037,5.460662493979999,-6.6077121919
617,308.74840851600004,-3.649126602116,5.06105049132,-7.634016980039999
618,309.24970592,-4.473914447084,5.02860097042,-7.15272882382
619,309.75100376800003,-4.027096609492,4.7594756196,-7.0883327358
620,310.25230128,-5.24501493532,6.33290166318,-6.05861205146
621,310.753598554,-4.6019342285319995,5.51575393072,-6.92553128348
622,311.24988296734693,-3.683766099589796,4.624022051816326,-7.516460256693877
623,311.746168002,-4.38975346072,5.360278244,-7.252987335059999
624,312.247465546,-4.740075961284,4.90159607852,-6.377413101319999
625,312.748762704,-4.834275073190001,6.05554343258,-6.52672460626
626,313.25006006399997,-4.056519424499999,4.2243264679,-7.66756521594
627,313.7513574,-4.201948004132,5.28989760132,-7.3296908294000005
628,314.25265484,-4.319779971398,5.62043125304,-6.70426441036
629,314.753952584,-5.29401104738,5.48386723932,-6.1154548461800005
630,315.25023729387755,-4.275115973020408,5.230689052632654,-7.220644795979592
631,315.74652182,-4.700626995838,4.512579043580001,-7.26355835248
632,316.24781948,-4.0688597626448,4.4663461853,-7.549326095920001
633,316.74911734,-5.47805033572,6.25368639222,-5.84147059938
634,317.25041496,-4.244097354094,4.90764649672,-7.53637502774
635,317.751712526,-4.13467789299,5.03172048338,-6.988002374200001
636,318.253010022,-3.9207098419134003,5.53827908936,-7.34835102536
637,318.75430764,-4.855494946276,5.11502225642,-6.097375442520001
638,319.2505923346939,-4.759413972200204,6.020938577428572,-6.865320431326531
639,319.746876654,-3.86516335148,4.541076782299999,-7.50482064498
640,320.248174244,-4.254494732712001,5.29899568174,-7.43567343774
641,320.74947288,-4.039484848014,5.558969064299999,-6.9197323421800006
642,321.25077072,-4.92884840702,5.54309906612,-6.15391885992
643,321.7520681,-3.8902032805945996,5.4703174163799995,-7.32009278922
644,322.25336574,-4.243516561876,5.09291921994,-6.9932684235
645,322.74965095102044,-3.955386975341429,5.132890385183673,-7.27755400355102
646,323.24593568,-5.325562435939999,6.21030061346,-5.79436056508
647,323.74723266,-4.189703466826,5.442008285419999,-7.2304202637
648,324.24853018,-3.96033544,5.14397804258,-7.23608747868
649,324.74982827,-4.316016796924,5.780894567840001,-6.70628820168
650,325.25112616,-5.4208961883799995,5.466943432639999,-5.8643071106799995
651,325.752423882,-4.4080334472,5.31461420292,-7.31748521124
652,326.25372166,-3.980049444604,4.95641508182,-7.28563145128
653,326.75000703265306,-4.261326281485714,5.054022758632653,-7.356873751244898
654,327.246292,-4.9848768952,5.99569488832,-6.1814226653599995
655,327.74758978,-4.275121838377999,5.5171400482,-7.24422755122
656,328.24888768,-3.8378002533360003,5.05375166932,-7.181564858860001
657,328.75018544799997,-3.946144949286,5.925404058839999,-7.09002721252
658,329.251483342,-4.86926630858,5.706906427060001,-6.17063908998
659,329.752780796,-3.5578134887456203,5.131167681859999,-7.609905120920001
660,330.25407862,-4.3588816589,5.4973990997,-6.92173218372
661,330.75036378163264,-4.288340513244898,5.6013519286938775,-6.223015295571429
662,331.24664888,-4.887130160476,5.94768672176,-6.8588449586
663,331.747947132,-3.90510628962,4.43864179694,-7.86001701052
664,332.24924532,-4.32566573182,5.07295673218,-7.0754086121
665,332.750543136,-4.67587147524,6.02948562016,-6.4156645568199995
666,333.25184118,-3.9842646789560003,5.02926858212,-7.62044320708
667,333.75313959600004,-4.256458648652,4.98046706542,-7.22994724714
668,334.2494248857143,-4.156021793834694,5.331563976081633,-7.185782598265306
669,334.74571058000004,-5.18889364016,5.4881932434,-6.24599239188
670,335.247009044,-3.4536930084160002,5.208469931020001,-7.3347173767200005
671,335.74830706200004,-4.622411645496,5.29399907222,-7.418686761699999
672,336.24960526,-4.8835585876,4.99538504338,-6.3062241394
673,336.750903588,-4.9233668060380005,5.7245457458199995,-6.84042426436
674,337.252202,-3.926583627306,4.4669988281799995,-7.5356116144800005
675,337.753500996,-4.2085732269800005,5.00577044672,-7.33524428096
676,338.24978665102043,-5.067549731204082,6.097432568591837,-6.126267504040816
677,338.746071944,-3.9376516113399997,4.5379452942,-7.9382413423200004
678,339.2473704,-4.450844421378,5.1523546235,-7.209050702
679,339.748669044,-4.70102516786,5.708696704139999,-6.44005184324
680,340.24996786,-4.683574456840001,5.28576619266,-6.8317513001600005
681,340.751267288,-3.64610588376,5.270623681660001,-7.32002991942
682,341.25256636,-4.4502247102000005,5.34144440914,-6.84375633546
683,341.753864508,-5.01945199586,5.666499453819999,-6.59723098756
684,342.2501502142857,-3.654925054444898,4.810176777734694,-7.4937778333061225
685,342.74643647,-4.40298893738,5.48281343084,-7.37469324658
686,343.24773544000004,-5.0277118195,5.201410610939999,-6.41258995054
687,343.74903387,-3.60868669742,4.784689187640001,-7.59542423404
688,344.250332704,-4.508950589006,5.56810007628,-7.32496665336
689,344.751632428,-4.9447243928199995,5.33146915284,-6.3962439423
690,345.2529318,-3.9975091369199998,5.219870223939999,-7.30514487308
691,345.75423133199996,-4.28641136164,5.25915153808,-7.31069533076
692,346.250518,-4.778222818183673,5.334722713530612,-6.321146943959183
693,346.746804318,-4.414314385926,5.295358245879999,-7.2662826872799995
694,347.2481037,-4.328518798779999,4.9032785797,-7.018706524540001
695,347.749404144,-3.8946041289432003,5.1870883942,-7.0804022274
696,348.2507043,-5.44764556274,6.38140679622,-5.9359361572600005
697,348.752003634,-4.16785789488,4.4529879639,-7.69167707542
698,349.2533042,-4.0541154235432995,5.3364687560799995,-7.26764784866
699,349.7495916204081,-4.537526410204082,5.824751652346939,-6.538443033714286
700,350.24587964,-4.914699829096,5.3311158874,-6.524605014
701,350.747179952,-3.4016552215966,4.9206304962,-7.60903692636
702,351.24848056,-4.257907635476,5.43495794678,-7.41144781516
703,351.74978201799996,-4.530335119638,5.15552503042,-6.151041842680001
704,352.25108314,-4.8287335968162,6.137893185399999,-6.567377069299999
705,352.75238422,-3.9779358399,4.54495072638,-7.470970037780001
706,353.25368536,-4.0360300322804,5.15901277768,-7.3614577698
707,353.74997325714287,-5.24366309344898,6.429445206,-5.77501833855102
708,354.24626151999996,-4.804217578128,5.12236299134,-7.03176836242
709,354.747563368,-3.74847201233,4.578480999736,-7.53669536124
710,355.24886516,-4.406596435532,5.163374706979999,-7.3122580808999995
711,355.750166992,-4.4285108642984,4.723373693759999,-6.3721260955000005
712,356.2514689,-5.28939764098,6.6013683838,-5.97706463016
713,356.75277089199994,-4.54317242435,5.0169761443,-7.01873047498
714,357.25407293999996,-3.633981097372,4.79328730772,-7.44119994526
715,357.7503619959184,-4.582026728406122,5.423063497714286,-7.158612567734694
716,358.24665108,-4.510190011612,5.06126903708,-6.0856937346799995
717,358.747953136,-5.502371759024,6.21586903378,-6.19227210402
718,359.24925528,-4.173138912972,4.22243739616,-7.48277748412
719,359.750557708,-4.5684219176978,5.0842432616,-7.38426134942
720,360.25186008,-4.36220175466,5.336256198126,-6.3620131257
721,360.753162492,-4.78981153562,5.26949203496,-6.8819209717000005
722,361.24945203061225,-4.492479269897959,5.848796548714286,-6.384398065489797
723,361.74574228,-4.7537934356400005,5.617530285400001,-6.62516589658
724,362.24704544,-4.3589535095539995,4.699169027726,-7.212765976220001
725,362.74834840000005,-4.35140321043,4.9276029968,-7.21459816606
726,363.2496515,-4.0246327331880005,5.333421093639999,-7.378189975100001
727,363.75095461999996,-4.385235855107,5.8541192963599995,-6.28607304364
728,364.252258048,-5.164449472044001,5.57855433654,-6.28703105156
729,364.75356122600004,-3.861549865692,5.0428393615400005,-7.52778289482
730,365.2498516918367,-4.385323529961224,4.733096251204081,-7.189393456714285
731,365.746142836,-4.200972033674001,4.69291802672,-7.1470107149399995
732,366.24744686400004,-5.379136029108,6.503935995540001,-5.69101547244
733,366.74875072199995,-4.582594445794,5.20516779782,-7.2167237457999995
734,367.25005474,-3.768132128886,4.671497570800001,-7.3042407532
735,367.75135927,-4.42689721983,5.59845395512,-7.25498118912
736,368.25266376,-4.68904707643,4.88357056272,-6.29271622922
737,368.75396811999997,-4.997319021596,6.310277709959999,-6.297712838600001
738,369.25025957142856,-4.0264677336326535,4.385555700244898,-7.462114086530612
739,369.746551072,-4.1067669342224,5.42755134876,-7.48904944164
740,370.24785576,-4.215578659046,5.85796330266,-6.4131048797000005
741,370.74916034,-5.12113853754,5.2113948486,-6.3431433655000005
742,371.250465128,-4.0895796753186,4.8594197846,-7.59101739816
743,371.751770282,-4.50634899896,4.86677249458,-7.0603798647
744,372.2530754,-4.254776147407401,5.01137479248,-6.89036042168
745,372.7493675163265,-5.947646091979592,6.122131207530613,-5.873889266061224
746,373.24565966399996,-4.520419738719999,5.10312200324,-7.18730392456
747,373.74696435600003,-4.599030267314,5.1157227997,-6.99273852532
748,374.24826942,-4.23427777412,5.61749136656,-6.637871475240001
749,374.749575304,-5.23496483462,5.48762442622,-6.107823715119999
750,375.25088094,-4.0685064972496,5.36173621216,-7.430326556380001
751,375.75218576,-4.396202050734,4.81700099486,-7.17256856696
752,376.25349090000003,-4.272071182236,4.8722032013,-7.21528373998
753,376.74978354285713,-5.374225261408163,6.103624793795919,-6.05928943867347
754,377.24607604,-4.236855413832,5.46477593998,-7.3228710113
755,377.747382068,-4.307768948390001,4.395696102900001,-7.26691437384
756,378.24868782,-4.130651266516,5.39656278992,-7.29163696288
757,378.74999312,-5.08946739798,5.47958614196,-6.19002976682
758,379.2512986,-3.9763491394279997,4.7594187378,-7.75959683534
759,379.75260406399997,-4.820180383328,4.57528664252,-7.112124261400001
760,380.253909684,-4.7270290924800005,4.75485023806,-6.656795123319999
761,380.75020304285715,-4.392719374624489,6.039499978775511,-7.155850964
762,381.246496,-3.827127447488,4.4314567383600005,-7.7210190580799996
763,381.74780174,-4.3755001007139995,4.72757096556,-7.42046506348
764,382.24910738,-5.2965677307400005,6.211590930160001,-5.85598741152
765,382.750412354,-4.23765475163,4.93546165472,-7.7022959929
766,383.25171766,-4.36204907226,4.94085344236,-7.06321496878
767,383.753023816,-4.2544558136,5.25768159486,-7.1801667663
768,384.2543297,-5.0607810516,5.24997561952,-6.472498370539999
769,384.75062219999995,-3.8294590479632653,4.575712308265306,-7.563315881244898
770,385.246914682,-4.486706845078,5.3371004425,-7.48729209568
771,385.74822051800004,-4.93820993956,5.0631910399999995,-6.232918579160001
772,386.2495263,-4.729037915096,5.58513165888,-6.965034136960001
773,386.750831886,-4.1264480072200005,4.3151515961,-7.71751035434
774,387.2521375,-4.224751583886,4.92202559504,-6.978335476780001
775,387.753442994,-5.182885134939999,6.1848086242199996,-6.2533031890999995
776,388.24973544897955,-3.87471391944898,4.724893920244898,-7.628577108591837
777,388.74602750400004,-4.3601121002254,5.11963266902,-7.3375105682
778,389.2473328,-4.275720593204,5.22746243586,-7.0633317260599995
779,389.748638538,-5.59697802434,5.125581298739999,-6.19491860052
780,390.24994412,-3.5712405670132,5.18419640814,-7.4029155581
781,390.75124952600004,-4.518569586114,4.49690962822,-7.58899061288
782,391.25255496,-4.222093112232,4.75602978522,-6.75341021136
783,391.75386010200003,-5.16177004398,6.4908711639800005,-6.29321020216
784,392.2501523183673,-4.039258481938775,4.3074823402857145,-7.604822425122449
785,392.746444876,-4.5320415711184,4.99568442084,-7.23336014994
786,393.24775034,-4.01230137632,5.39706275022,-7.1927286434
787,393.749055464,-5.3397768768,5.251598245159999,-6.110727676400001
788,394.25036068000003,-4.3270698119572,5.469554003941999,-7.1924861481
789,394.75166580800004,-4.364087832716,4.1067100524199995,-7.51785553888
790,395.25297101999996,-3.9344512663988,4.72221210946,-7.498081658759999
791,395.754276914,-5.1548095183400005,6.055935617039999,-6.23371192932
792,396.25056944897955,-4.844003373748367,4.978970667,-7.085286478959183
793,396.74686117199997,-3.7539087066048,4.79522128598,-7.26000474264
794,397.24816614,-4.433585311894,5.209553677400001,-7.415737893719999
795,397.74947203999994,-5.10302021482732,4.8292275696,-6.160804540939999
796,398.25077762,-5.273021694904,5.63809452202,-6.704698507660001
797,398.752082584,-4.310852535976,4.36715645144,-7.60554618516
798,399.25338768,-4.5351341400658,4.94389212346,-7.28784983832
799,399.74967972857144,-4.071267429216327,5.083493107346939,-7.018005981469388
800,400.24597186,-5.29010417174,5.3147579041,-6.025303317200001
801,400.74727755,-4.7447881622652,5.399927792318,-6.8718409333
802,401.24858312,-4.17460286862492,4.5744394043,-7.40315505958
803,401.74988852,-4.2590542511166,5.3708552491,-7.22678582132
804,402.25119400000005,-4.471920593212,5.37748346554,-6.66965039078
805,402.752499672,-5.425928723108,5.43722722772,-6.254374960476
806,403.25380535999994,-3.6772231750319997,4.9727012146,-7.61524900812
807,403.75009719999997,-4.4512751583700005,4.640771914183674,-7.340689040142857
808,404.24638941999996,-4.1149100006404,4.88205271916,-6.77203747568
809,404.74769543200006,-5.690692144780001,6.27780723266,-5.900654525879999
810,405.2490014,-4.1482516662012,4.95225972288,-7.554226904020001
811,405.75030718,-4.3911365844959995,4.8907077209,-7.25039472664
812,406.251613,-4.198636889672,5.1501781494,-7.1969019654399995
813,406.75291869399996,-5.73626337894,5.1124326416,-6.266161450199999
814,407.25422457,-4.1887095337354,5.21229896854,-7.0393306366
815,407.7505174755102,-4.802356305873469,4.729329594183674,-7.071279891632654
816,408.2468105,-4.410350628673999,4.58967472232,-6.841454122799999
817,408.748117032,-5.56577091974,6.5448998107600005,-5.89095769038
818,409.249423466,-4.167774069212,4.37473968194,-7.57098605342
819,409.75072974,-4.36282745369276,5.3247481292,-7.31022231426
820,410.25203604,-4.40250993338,5.76086322328,-6.661767782639999
821,410.75334215000004,-5.29924117126,5.25116115418,-6.181787905899999
822,411.24963539795914,-3.677170631253061,5.13510211244898,-7.527415027285714
823,411.74592914,-4.541025888034,5.13960713198,-7.0602720886
824,412.247236,-4.2907643097,5.1177016846,-6.4446802185
825,412.74854280799997,-4.897030572512,6.24005573734,-6.4060036472
826,413.249849582,-3.8017971222440003,4.1743962982400005,-8.09843521706
827,413.75115619999997,-4.3246867675714,4.91791813666,-7.34105819092
828,414.25246294,-4.298841513088,6.11150905152,-6.57603506468
829,414.75376966999994,-4.4516108277,5.2069670563,-7.143214608859999
830,415.25006354285716,-3.9122399653285713,4.804455002734694,-7.400356797346938
831,415.74635764,-4.30326032406,5.51874471136,-7.01281777048
832,416.2476649,-5.04716835936,5.625394931040001,-6.12225670168
833,416.74897288,-3.8465091430540004,5.04518648074,-7.328169992299999
834,417.25028076,-4.7870303192,5.25235567018,-7.3144944307
835,417.75158816000004,-4.96498326416,5.59931316834,-5.5561818604
836,418.2528957,-4.6998246643099995,5.7098882262799995,-7.0637149292200005
837,418.75420352000003,-4.37563781433,4.4908172973400005,-7.31740437956
838,419.25049830408165,-3.5780858628281633,5.387251234979592,-7.297034921367347
839,419.746793278,-5.126736895740001,6.6081762268,-5.9305204192600005
840,420.24810146000004,-4.219650192204,5.2919183991,-7.0231852112399995
841,420.749409178,-3.827028652932,5.49977615664,-7.2211994381
842,421.25071714,-4.47818955682,5.20623956908,-6.67209031674
843,421.75202592,-4.88983952638,6.094393643219999,-6.2156534822200005
844,422.25333472,-3.84656901852,4.90509280698,-7.52131035476
845,422.7496305489796,-4.465238977510204,5.5207949580612246,-7.147196512142857
846,423.24592638,-4.72320604244,5.65226705026,-6.0354013183
847,423.747234972,-4.524575097632,5.70575681764,-7.03552554926
848,424.24854378000003,-4.03601506348,4.452981976219999,-7.4054303285000005
849,424.74985334999997,-3.7845769318348,5.175867727679999,-6.92837536934
850,425.25116293599996,-5.1773825775199995,6.585537304760001,-6.21838979184
851,425.75247232000004,-4.0412302185,4.49340092468,-7.83246231094
852,426.25378178,-4.4237627380382,5.08418638004,-7.0829529235
853,426.7500776673469,-4.200329655212244,5.497736785265306,-6.804427670755103
854,427.24637376,-4.90639210514,5.62008996286,-6.47344739686
855,427.747683596,-3.668017318724,5.0432584899799995,-7.4845288421
856,428.24899339999996,-4.25230927734,5.06971148078,-7.576877801739999
857,428.750303452,-4.7228647522,5.208436999540001,-6.32788409726
858,429.25161354000005,-4.39420520334806,5.559995928959999,-7.229085040779999
859,429.752923286,-4.12374462888,4.33227897942,-7.480936312720001
860,430.25423328,-3.8441320862020003,5.17395171202,-7.4699341919
861,430.7505304857143,-4.918053467387755,6.570561956244898,-5.77787464377551
862,431.24682776000003,-4.11528122868,4.1993344391,-7.83786307968
863,431.748137948,-3.9928807616519997,5.178675888080001,-7.46581176468
864,432.24944826,-4.7819438964800005,6.1552151642199995,-6.10991336982
865,432.750758684,-4.4210174468600005,5.3348191864,-7.163745913740001
866,433.25206916,-4.059591036992,5.31002175296,-6.85861144404
867,433.753379668,-4.075467022698,5.51037711192,-7.34251615908
868,434.24967715510206,-5.151485390204082,5.509794364326531,-6.132310040469387
869,434.745975232,-4.0036583495698,4.89257583612,-7.662032720979999
870,435.24728634,-4.52589834594,5.12225521546,-7.1512019987999995
871,435.748597296,-4.7156198180799995,5.457593875,-6.1652892151200005
872,436.24990826,-4.7064828186,5.79900989686,-6.8701883697
873,436.751218828,-4.27655885014,4.23179593514,-7.6006124451
874,437.25252958,-3.7980339477616,4.71691911614,-7.118444119099999
875,437.753840788,-5.54538032218,6.3029429627399995,-6.31970510558
876,438.2501389020408,-4.283095298244898,4.689750674469388,-7.5222858972244895
877,438.74643721,-4.1946881011538,4.60335627129,-7.27378508598
878,439.24774864,-4.110305575532,4.92003473504,-7.65508117696
879,439.749059678,-4.6289410674932,4.63610816343,-6.3967049836
880,440.25037076,-5.3054801972079995,6.14286285096,-6.633234118640001
881,440.75168172400004,-4.364462054428,4.6911876251,-7.50486854538
882,441.25299270000005,-3.555268780472,4.96489045712,-7.58047033102
883,441.75430424,-4.06673717646,5.33382525326,-7.18617227784
884,442.25060271632657,-4.900023613714286,5.291138856877551,-6.170248494122449
885,442.746900724,-4.9338659728994,5.37866001892,-6.88706128238
886,443.2482119,-4.0537771270416,4.54847140502,-7.52040922884
887,443.74952351599995,-4.0810084990838,5.600576541100001,-7.21556515488
888,444.25083512,-4.210037182654,5.075576284806,-7.01086283586
889,444.75214654,-5.34859653626,5.0190238861,-6.55204595038
890,445.25345802,-4.293111428763,4.97805408318,-7.7435771485
891,445.7497564306122,-3.659128558122449,4.839864022428571,-6.857151704244898
892,446.24605486,-5.117587921182,4.3790447295799995,-6.289114718626
893,446.74736618000003,-4.55425238354,6.50126854246,-9.582494100834
894,447.24867758,-4.267323056082001,5.26452835668878,-6.937266879123601
895,447.749989294,-3.2362431974249,4.2471450165398,-6.5635001308574
896,448.25130094,-5.6039804625,6.0563547454222,-2.911023495494
897,448.752612964,-6.486799630956,7.336648361647081,-6.254889889649999
898,449.25392496,-2.921690313698,4.893375173742,-7.359607617026
899,449.7502233571429,-5.0523028656518365,5.781830702791837,-1.6408694271612245
900,450.24652182,-5.9049116724542,7.322200405848,-6.6488586270639995
901,450.747833716,-3.0968710234788,5.442466332880801,-7.646022014935999
902,451.2491457,-4.9185917359906,5.0730196017444005,-1.935615866092
903,451.750457272,-5.2792966457742,6.6040867307802,-8.7760940183218
904,452.25176888000004,-5.474963754394,5.788447860482,-3.136478659352
905,452.75308094,-3.5886912781860003,4.582438769758,-7.8530594784000005
906,453.24937989591837,-5.665620323336734,6.668061246152653,-3.647523099905306
907,453.74567832,-5.4165462342162005,7.2146550477448,-5.278641009668
908,454.24698992,-3.421189599658,4.6406646879,-7.669044140626
909,454.74830220999996,-5.083716357469,5.3964430390696,-2.223140954584
910,455.249614492,-5.979076446410001,7.821376364132,-6.35368444503
911,455.750926472,-3.5296660219619995,4.7337561034722,-7.9312089664
912,456.25223851199996,-4.207690063528,5.193396276952,-2.11364365541422
913,456.753550198,-5.8873771366114,6.668991760988,-6.932494802904
914,457.2498488265306,-4.403619157481632,6.444371309906122,-7.304684320146938
915,457.74614821,-4.153023742689999,4.8656797669458,-2.12255312805
916,458.24746078,-4.89339912451,5.8601307954,-6.787626058922
917,458.74877293,-5.534743441703999,7.422177501648,-6.962767849726
918,459.25008514,-4.3136217776078,5.117417276059999,-2.4102608367846
919,459.751397414,-4.102503799182,4.827116958586,-7.5341746036220005
920,460.252709754,-6.248989160083999,7.998407226932,-5.9885068358788
921,460.75402192200005,-4.879304434530599,5.382752508623001,-2.5530818388992
922,461.25032097959183,-3.7070717170040814,4.42109607951,-7.971232919612245
923,461.74662017,-5.758944213823799,7.4643118834754,-3.901516754204
924,462.24793239999997,-5.792812783568,6.184437395974,-4.2374511749020005
925,462.74924488,-2.6675218596706,4.108302740558,-8.246061227228001
926,463.25055714,-6.434791781696,7.2669622740188,-3.072959747286
927,463.75186969000004,-5.934606921536,6.2731638884278,-4.142413806212
928,464.25318206,-3.3901651154500003,4.0793080349654005,-7.893017386378
929,464.74948136734696,-5.507304643908163,6.3386238658124485,-2.5326964957632656
930,465.24578076,-6.255518582334,7.185325039838,-5.357431164692
931,465.747093144,-3.9483753111940003,4.61828323079496,-7.75018740214
932,466.24840556000004,-5.63932196977884,5.650883926353999,-2.1996308440458
933,466.749718012,-5.724860092268,7.283335226648001,-5.876285202056
934,467.25103068,-4.0092716767756,4.428768328832,-7.70760395488
935,467.75234296,-4.5686075316382,5.2465447542448,-2.6572262694360003
936,468.253655332,-6.3846460600679995,7.760414135447999,-5.772988009617656
937,468.7499551326531,-3.8654454385959185,4.945544259386531,-7.7778228733897965
938,469.24625502000004,-4.1688967342858,4.960621334864,-1.846030160569
939,469.747567768,-6.0824365081680005,7.085794015542,-6.518288150388
940,470.24888054,-4.500214755227,5.883841488895319,-7.382950076524001
941,470.750192964,-4.117508596914,4.8968359769642005,-1.694593075546
942,471.25150535200004,-5.103089071474,5.9775017210872,-6.84004106155
943,471.752818482,-4.8796636869814,6.8985154633066,-7.387623358043999
944,472.25413163999997,-3.8222865143068,5.082210488984,-1.9265596984848
945,472.7504311816326,-4.171671902292653,5.185281437433877,-7.1609006673183675
946,473.24673064,-5.611225396871999,7.566058300586,-6.761631115837999
947,473.748043472,-4.1108085301978,5.349662320292,-1.8936042297244
948,474.2493563,-3.8739560667118003,4.911017486644,-7.319832330372
949,474.750669304,-5.7081338744300005,7.5821139126578,-6.791452102838
950,475.25198237999996,-3.94648623992,5.584913113188,-1.874833264166
951,475.75329544400006,-3.480101092374,4.30462548522538,-7.95392572612
952,476.2495954489796,-6.349331191083674,8.153168867240817,-5.756151450261224
953,476.745895134,-4.4555506350446,5.799554763490001,-2.4443479522836
954,477.24720804,-2.9310219082574003,3.8005247679376,-8.158529251160001
955,477.748521026,-5.990566552916,8.02727020562412,-3.72747367879
956,478.24983406,-4.8057144651728,6.236448238947999,-4.477066891522
957,478.751146894,-2.670066568126,3.870013265732,-7.990746157632
958,479.25245978,-5.588861902131999,6.5513064886337995,-2.7353308501094
959,479.75377246999994,-6.262497070184001,7.654033355876001,-4.598383611862
960,480.25007199183676,-3.3823663330313267,4.632077749006939,-7.837405093318368
961,480.74637209599996,-4.798499469078,5.5496853698476,-2.0737396362833
962,481.24768537999995,-6.37323977936,7.942977493477,-5.8678277895022
963,481.748998182,-3.3732293331344,4.641188598736,-7.7380326784
964,482.25031102,-4.212522015849999,5.4366584104128,-1.825325216638
965,482.75162413799995,-6.042194192464,7.61203070058,-6.6286656188899995
966,483.25293726,-3.5492692565879995,5.5104998564662,-7.48142130456
967,483.75425005600005,-3.732338561972,4.9979656771359995,-1.4936599182099999
968,484.2505497428572,-5.239294626881633,6.919587174763061,-7.195689548244897
969,484.746849592,-4.9561067227852,6.6562981563772,-7.0428872405508
970,485.24816262,-3.8134249418658,5.491923486327639,-1.6813516113372
971,485.749475876,-3.7981087919788,5.1421099274282,-7.4001972106239995
972,486.25078922200004,-5.69035684221,8.222060137997401,-5.59918443609
973,486.752102592,-4.9983788174348005,5.550379925707801,-2.25781484964
974,487.25341608,-2.60180551763228,4.5178181490916,-7.9978683469292005
975,487.7497164653061,-5.602332542471428,7.962297419279591,-4.676828566661224
976,488.24601693999995,-5.3270084290240005,6.041236184340001,-3.641022454602
977,488.74732996,-2.949403683544,3.9896804166918,-8.0951869723866
978,489.24864292,-5.880515405346,6.853402276438779,-3.6553027588819997
979,489.749956564,-5.3747501496006,7.290211926045999,-5.0714239195288
980,490.25127026,-2.9887328981092,3.9355260313258005,-7.742472445560001
981,490.75258414800004,-5.476727087322001,6.375272552782,-2.7166796357424
982,491.25389814000005,-6.1006087187230005,7.4130854094066,-5.242006192062
983,491.75019848163265,-3.5287282986510204,4.020846769278265,-7.925357908979592
984,492.24649877999997,-4.0733743747782,5.6578354707784,-2.3090024048471802
985,492.74781248200003,-6.1070962279989995,7.975256368634,-6.174153780980601
986,493.24912623999995,-3.5207775055479997,4.424789602702,-7.8291032959899995
987,493.750439764,-4.2382864379388,5.2864906860233996,-2.089950924692
988,494.25175329999996,-6.30259269084,7.50963762794,-6.463912225358
989,494.753066988,-4.1353215543060005,4.7465993958544,-7.6823604492260005
990,495.24936748163265,-4.3051331436757145,4.969109540986122,-1.7459570188122449
991,495.745668452,-5.9473753694266,6.755233419952,-6.6743865417396
992,496.24698266,-4.6572472045938005,5.6017800383792,-7.318937191664
993,496.74829656,-3.8951430084060004,4.8570487158088005,-1.3670861297799999
994,497.24961054,-5.7164745301166,6.682149399008,-6.432492562704
995,497.750924502,-4.25780884077246,5.965649368294001,-7.646650708332
996,498.25223854,-3.8217147035974603,4.9341863063208,-1.8155206054694
997,498.75355251599996,-5.2665401733278,6.360058191040121,-6.86985905444
998,499.24985326734696,-5.108335325175714,7.162003475974408,-6.945153397857917
999,499.74615422000005,-3.8728573514240003,5.126054315309,-1.92344916689
1000,500.2474684,-5.5550891329451995,6.166450799754,-7.202030300993999
1001,500.748782334,-4.780803268202,6.739474191215001,-7.327933483639999
1002,501.25009632399997,-4.302703482386001,4.6047064638352,-2.016938754246
1003,501.751410508,-5.93169098518,7.223651339709201,-7.17661016217
1004,502.25272470000004,-4.813489297778,5.467491293432,-7.234150506866
1005,502.754039004,-4.115772207686,4.515060882605,-1.2126432952919999
1006,503.2503402469388,-5.003684580177551,6.436999903916327,-7.358352309144898
1007,503.74664151999997,-5.1001102662224,6.97771277115374,-7.258633593546
1008,504.24795606,-4.3079455809736,5.0259155550824,-2.17225577088118
1009,504.7492702,-4.399926306286,5.058649484242,-7.156722518673
1010,505.25058418000003,-6.3158970246822,8.100375183129,-5.501102398662
1011,505.75189836,-5.4299134368713995,5.562208328296,-2.8022267395038
1012,506.25321234,-3.2281570128073995,4.5783223296978,-8.0939116237
1013,506.74951338367345,-5.498301936516326,5.5843760060061225,-2.1201543816159183
1014,507.24581438,-6.649011309776,7.770425317394,-6.02930299986574
1015,507.74712877999997,-3.542709896916,5.106612744108,-7.915294061482
1016,508.24844332,-4.9211693750886,4.7699628110802,-1.570067028796
1017,508.74975767999996,-5.6429414428344,6.9820507505605995,-7.110268121314
1018,509.25107214,-4.531320071422,6.268149316302,-7.383234485002
1019,509.75238618000003,-4.42281071797672,4.8504803743592,-1.6833604339274002
1020,510.25370018,-3.6794655119734,4.472199014406,-8.05119046347
1021,510.75000147142856,-6.217351563255306,8.247402498876285,-5.438643343991225
1022,511.2463029,-4.8564290041742,5.89867863476208,-2.8199618589762
1023,511.74761736,-3.0007259583735997,4.41725127846384,-7.96059286184
1024,512.24893198,-4.559832778923,5.958117032052001,-2.6923582122756198
1025,512.75024602,-5.9226467923412,8.226347222895999,-5.647908114498
1026,513.25155988,-3.348548657293,4.6793951474814,-7.973945095898
1027,513.75287452,-3.8852964843398,5.23995545691218,-1.732808605941
1028,514.25418936,-5.018712533494,6.943895095688,-6.93554246515
1029,514.7504907367347,-4.308670685115102,6.1733186405244895,-7.517489748228571
1030,515.2467921799999,-4.31588806450407,5.218684689255,-1.369687719748
1031,515.748106782,-4.0024159331338005,4.5789779662924,-7.47720307646
1032,516.24942142,-6.1968106656251996,7.97725321678628,-6.5351311251726
1033,516.750735912,-4.440189578208,5.5514037962580005,-1.6566350097426
1034,517.25205032,-3.6079801668380003,4.021363531648,-7.934286566344
1035,517.753365444,-5.7906303221622,8.334413497541,-4.6568550200468
1036,518.2496676938775,-5.195637452720408,5.713487109546939,-3.754064810627551
1037,518.745969652,-3.821029129096,4.6794280790362,-8.06843161005712
1038,519.2472850199999,-4.583986550864,5.44301718772,-2.129804049636
1039,519.748600064,-6.647885650596001,7.880230975162,-5.9468275088632
1040,520.24991512,-3.3661909700759995,4.6877687346698,-7.9432529209098
1041,520.751230402,-4.3452779480178,5.192809497452,-1.995395553608
1042,521.25254574,-6.532469659118,7.958596014318,-6.2617995203520005
1043,521.75386111,-3.7443795227148002,5.342857470517799,-7.382010030978
1044,522.2501632326531,-4.492763372882041,4.975393412156878,-1.5853135276506123
1045,522.746465984,-5.2542477357436,7.061742031819801,-7.058314160302
1046,523.24778208,-4.98807723977228,6.58376499042,-6.871266128402
1047,523.749098,-4.593345089782,5.028744671654,-1.3302447418425998
1048,524.250414,-3.484486971965,4.629806268224,-8.164415011766
1049,524.751730034,-6.231535455278,7.68632121287986,-5.651635363737601
1050,525.253046062,-5.398921884313999,5.2272408966246,-2.4707021484819998
1051,525.7493494142857,-3.893479997034694,4.343059377568253,-8.111805902508163
1052,526.2456530200001,-4.545531518592,5.645569976542,-2.634009549058
1053,526.746969072,-6.5034929168536,8.023375305096,-6.15650847506
1054,527.24828524,-3.0691337036701998,4.9389853267548,-7.939699309944
1055,527.749601972,-4.3441403136584,5.3221435455728,-1.0864826476996
1056,528.25091876,-5.495590859965801,6.952615960714001,-6.92018440197862
1057,528.752235368,-5.1003318052542,6.744572589092001,-6.8999704371902
1058,529.25355224,-4.887447500768,5.4289703979536,-1.63161603699836
1059,529.7498560897959,-3.07966519078449,4.183692823382858,-8.619840256148573
1060,530.24616016,-5.911851242272,7.75841429436,-3.959099011176
1061,530.74747706,-5.1274404328288,6.506360952562,-4.114646548562
1062,531.248793842,-3.49366588456662,4.0452538514712,-8.0372245054482
1063,531.750111406,-4.7154821043456,5.7701409299826,-1.91435707397328
1064,532.251429306,-6.107150115965001,7.6795522891886,-6.114835135098
1065,532.7527466380001,-3.7955431273968,5.398122545979399,-7.9330082247366995
1066,533.2540640999999,-4.1114911104546,5.0462013702042,-1.459482989496
1067,533.7503680836735,-4.243886017964898,5.615923667618368,-7.156483322871429
1068,534.24667192,-5.663484722852001,7.3612242551008,-6.6645819306944
1069,534.747989344,-5.063361685029,5.7801850433816,-1.971211843964
1070,535.24930668,-2.584250024417,4.3336800662142005,-8.24850414738
1071,535.750624422,-5.6864529599399996,6.9350065797684,-3.269983035232
1072,536.2519423,-5.30784527938024,7.527387716442,-4.542447931073042
1073,536.753259932,-3.288981527714,4.5340653626836005,-8.09174712515
1074,537.2495644040816,-4.335877374210204,5.292220281530612,-2.1247153052697962
1075,537.7458690899999,-5.88664066778,7.7160344239339995,-6.262368338554
1076,538.24718719,-3.9919586790559998,5.4431758578254,-7.6741126007239995
1077,538.748504932,-4.150434127528,4.8476602388845995,-1.885281536897
1078,539.2498225200001,-6.0387753019620005,6.848483505118,-6.251009958046
1079,539.751140416,-5.080845328042,6.18868256820256,-7.337591400086
1080,540.25245852,-3.7698774995612,4.751260702604,-1.784972131354
1081,540.753776332,-5.729057363764,6.736157089154,-6.56635020412
1082,541.2500808918368,-5.020593296028572,5.9923113738571425,-7.321938236786939
1083,541.746385496,-4.004472656322,4.923202148082,-1.750980816632
1084,542.2477031999999,-5.5151881073114,6.18504812612,-6.536119070541201
1085,542.74902128,-5.461653432788,6.5066393738579995,-7.246206436124001
1086,543.25033956,-3.82631314062,4.693522769156,-1.7637372894480001
1087,543.7516575,-5.950979873710599,7.3590477812574,-6.2407083801839995
1088,544.25297546,-4.2549647549344005,5.61913494889,-7.3587723541062
1089,544.7542933919999,-3.63651383079,4.9402606751608,-2.0355690124646
1090,545.2505980857143,-6.285117785506123,7.394213449470204,-6.292391435755102
1091,545.746902972,-4.1355580626094,5.526483617854,-7.668783682483999
1092,546.24822108,-3.7563127073639997,5.035118417168,-1.7740837738052
1093,546.749539032,-5.2825808168072,7.019041827188,-6.3508433534472
1094,547.25085686,-4.563658823038,5.720716708385799,-7.3944761077596
1095,547.752174888,-3.8584602905328,4.9336983214079995,-1.75754317015
1096,548.2534929,-5.20459598687,7.21884333795496,-6.437150875734
1097,548.7497978795918,-4.5100050697095915,5.96038185307347,-7.461396192020408
1098,549.246103,-3.7101996001927002,5.427054382533999,-1.3720498077144
1099,549.74742101,-4.2861718599118,5.4570011080156,-6.9621092192292
1100,550.24873888,-5.143537957705999,7.387814959545199,-7.068049914832
1101,550.750056916,-4.102437936494,5.4040202819158605,-1.488004678344
1102,551.251374924,-3.9650236908594003,4.650987222568,-7.310626473914
1103,551.752693218,-6.300763494604,8.0700183104162,-6.1690943023522005
1104,552.25401188,-4.71223984692266,5.4051519285286,-2.2672602079652
1105,552.750316922449,-3.450899328189796,3.9087665760367347,-7.891567971042858
1106,553.24662196,-6.1850481262552,7.95950013397,-3.840003671224
1107,553.747939954,-4.917241543138,6.54764210804,-3.6416960539
1108,554.249257766,-2.997585488904,3.6455191041384,-8.0459064514714
1109,554.75057596,-5.794713830516,7.432871264528,-2.6239115478898
1110,555.251894164,-5.155216671837,7.112172162226,-4.2584584900752
1111,555.753212362,-3.196970864944,4.2991169402830005,-8.02001329692
1112,556.2495173734694,-3.921664245100612,5.588894161166327,-1.8105400646
1113,556.745822332,-6.0841968472331995,7.90389975579,-6.048603863556
1114,557.247140144,-4.60844269398,5.84007550034,-7.567408493269999
1115,557.748458694,-4.5525339568434,5.1168215147291995,-1.8448655822853999
1116,558.24977758,-4.1115899049318,5.0498837126968,-6.934359924271999
1117,558.75109576,-6.2123932619894005,7.9845490441311995,-6.390157598656081
1118,559.25241384,-4.688259713528399,5.454079184068,-2.412712738138
1119,559.7537321,-2.70636907650858,4.642520828148,-7.92851157532
1120,560.2500372061224,-5.729451869873469,7.059561403002245,-3.073436307322245
1121,560.746342312,-5.53001926601,7.401343826174,-4.4309627655552
1122,561.24766054,-3.2158436186284,4.121544204826,-8.191445800912
1123,561.748978748,-4.854941097994,5.783918279603999,-0.85629133302322
1124,562.25029682,-6.0720421240454,8.331374816934,-5.69316200869
1125,562.7516152000001,-3.431371425988,4.7930238556886,-8.036434149236001
1126,563.2529336,-3.653686120648,5.137544421823,-1.51964588013772
1127,563.75425225,-5.104310531521,6.239367169266,-6.9262647586518
1128,564.2505578591837,-5.4971166462581635,6.76671222292898,-6.8231631996444895
1129,564.74686334,-4.222024255384,5.7606297088956,-2.16223261405
1130,565.24818232,-3.3182097475276,4.540397195466,-7.491734857023999
1131,565.749500816,-6.253791174274199,8.3902144595708,-3.84157839659
1132,566.2508192,-4.987762893913921,6.33328785956,-3.754127252196
1133,566.752137804,-3.3377710694864,4.2564646361774,-7.954766976956
1134,567.25345638,-4.624884503399,5.6376544374758,-2.1706361388952
1135,567.7497617061224,-5.877784227468367,8.03171632744898,-6.115291349538776
1136,568.2460669,-4.0996896512372,5.2715038514162,-7.73619450049
1137,568.7473856060001,-4.126696490374,5.2405122983800005,-1.416249893214
1138,569.2487044,-4.0974323454994,5.006252444264,-7.3367142242012005
1139,569.750023176,-5.820113012555799,8.1491138305812,-6.172947290255401
1140,570.251342044,-4.4939188478080005,6.150086828254,-1.8841618653388
1141,570.752660882,-3.2692465669778,3.999598791576,-8.00114653024
1142,571.253979986,-6.085085998484,7.524355022978,-3.54805677792002
1143,571.7502854959184,-5.474626679661224,7.457467626665307,-3.9686787225067346
1144,572.24659088,-4.1519340086942,4.5530458922848,-7.6033427674042
1145,572.747909544,-4.1072489318473995,6.149763501024,-0.9855954437228001
1146,573.2492278999999,-6.038209478595999,7.75422899799,-5.7567348081906005
1147,573.75054696,-4.46967825606384,5.714393856636,-7.765099392754
1148,574.25186652,-4.295955514626,5.450301040556,-1.1314012390419999
1149,574.753185098,-4.6670937283736,5.073830914134,-7.24274862668
1150,575.2494901367346,-6.185244859810204,7.861443880668571,-6.147205595863878
1151,575.745795668,-4.5824118255204,5.990491707954,-1.88951772769
1152,576.24711438,-3.540581323225,3.5132331937754,-8.061749505506
1153,576.748433264,-6.1276335205796,7.312171261748,-2.9803054230096
1154,577.2497524,-5.2887030851772,7.027457326973,-4.2540217161658
1155,577.7510712139999,-3.4819243010820005,4.913181985154,-7.95191989738
1156,578.25238994,-3.9465610840173,5.4094210505980005,-1.5698305205642
1157,578.753708794,-5.836488958428,7.197306124878001,-6.723607186618
1158,579.2500143979591,-4.836537266863266,5.927667230208775,-7.416901983011632
1159,579.74632027,-4.402764404156,4.8936775450758,-1.37613630976
1160,580.24763968,-4.1995380156438,5.317473257774,-7.150564324780801
1161,580.74895844,-6.8381340276934,8.0861367917754,-4.17602191774
1162,581.250277,-5.3927846466214,6.323884414458,-3.1893696715880004
1163,581.7515958079999,-3.7892532073656002,5.1536808654624,-7.7046670623438
1164,582.25291456,-4.5048101990068,5.4498100616728005,-1.08003106387
1165,582.754233528,-4.72488555002,5.6638589446652,-7.045171490304
1166,583.250539155102,-5.65246298969796,8.318339678772858,-5.572950785208164
1167,583.746844952,-5.473173477248,6.054399811040001,-3.283838223245
1168,584.248163866,-2.827458270382,4.023168777342,-8.3042392459
1169,584.749482412,-4.1817879272530005,6.0194295315658,-1.4474929229840001
1170,585.2508007,-5.2612621490796005,6.932946862464,-6.80807653179986
1171,585.75211896,-4.5880760468199995,6.673500384673,-7.43960126987
1172,586.25343708,-4.2291614137139995,5.39256909499702,-1.6694812957971998
1173,586.7497419795918,-3.968040254570408,4.51819212637551,-7.975253130771429
1174,587.24604704,-6.130202178932,7.8301571045162,-4.461873486366
1175,587.747364898,-4.689241672035,6.262401269585999,-3.9351997100261
1176,588.24868252,-3.4036191376267997,4.9082542327084004,-8.003906790092
1177,588.750000156,-4.322782727088,5.3412677767178005,-1.5894756683272002
1178,589.25131764,-5.7100708466206,6.849974404916001,-6.6797154599528
1179,589.752635262,-4.495316940358,6.7709716919896,-7.215939376992001
1180,590.2539528000001,-4.461858517808199,5.570405282298,-1.3342623871132
1181,590.7502572285714,-3.266372848697551,4.432842061643061,-8.46859355053347
1182,591.24656152,-5.9624909361578,7.4085797795363995,-3.3380584717239996
1183,591.747879292,-5.28160783999734,7.255870340228,-4.379329137954
1184,592.24919748,-3.069570795038,4.5306584473568,-8.07900562102
1185,592.750515062,-4.2758762694174,5.4867891638901005,-1.6879379150100002
1186,593.2518321599999,-6.135444278174,7.6401661923135995,-5.9714812408684
1187,593.753150212,-4.597108264359401,5.8093354247256,-7.5731056455562
1188,594.2494554387755,-4.230563721897959,5.461930632414286,-1.3445101990591837
1189,594.745760266,-4.1122515291442,4.6925527864008,-7.215598086458
1190,595.24707834,-6.29040204132014,8.2312180939006,-5.791908664053199
1191,595.7483967339999,-4.745889871334,6.263170669523401,-2.2373015076374
1192,596.2497155039999,-3.199731124859,3.7814514314051597,-7.994955404646
1193,596.751034006,-4.93174937454754,6.62437853414584,-2.379134564172
1194,597.252352626,-5.814397897479999,7.604468426719199,-5.119994915958
1195,597.753671096,-3.4704252135581997,4.60936477665582,-8.002155432450001
1196,598.2499758979592,-3.879445915877551,5.478689659408163,-1.1186574131816327
1197,598.74628192,-5.984962206974,7.5586397276176,-5.719788638338
1198,599.2476018,-4.432510547008,5.312856857033999,-7.8272711061108
1199,599.7489212199999,-3.9507284178827002,5.1982881043433995,-1.2445419617456
1200,600.25024094,-4.816420202657,5.926526724752,-6.950556243834
1201,600.7515605,-5.5068923583738005,7.02246371144,-6.7950146941859995
1202,601.2528801,-4.264305331538,5.4093971009862,-1.412393911794
1203,601.75419999,-3.6167938386359997,4.205911761406,-7.952156405562
1204,602.250506522449,-6.4300622901,8.639553344272654,-4.549715349070612
1205,602.74681392,-4.38781648863484,6.48741036042536,-2.8169141968639995
1206,603.2481352039999,-3.0034622683539998,3.8309684600062,-8.17894679226
1207,603.7494560060001,-4.5402505003596,6.6726441650412,-1.9971948119854
1208,604.2507768400001,-5.9156293854206,7.8594631625022,-5.578195083348
1209,604.7520981800001,-3.5465748600355997,4.8955007537302,-7.97558269044
1210,605.25341996,-4.05403459172138,5.101292807136,-1.43127265327372
1211,605.7497284816327,-4.965254292567347,6.445739892634694,-6.920573898881632
1212,606.24603676,-5.7903489072156,7.4846964935698,-6.485440456978999
1213,606.747359214,-4.863036264070001,5.3461476283126,-1.273854007056
1214,607.248682184,-3.015123019462,4.289339272938,-8.129824941689
1215,607.7500051080001,-5.99842521037,7.9936112003318,-3.451522521878
1216,608.25132824,-5.0491442506644,6.7526258422002,-4.033721832263001
1217,608.75265186,-3.436906915398,4.9251510958592,-7.736853131016
1218,609.25397592,-4.0520137939804,5.729850714003684,-1.9850670318580002
1219,609.7502868938775,-5.585298577099388,7.38449895772449,-6.33440508791449
1220,610.246598248,-4.598557251168,6.547103228577201,-7.49647699575
1221,610.747922914,-4.243396810958,5.69622763375604,-1.1438583344166
1222,611.24924748,-3.7968783509499997,4.328482873532,-7.900920950485999
1223,611.750572934,-5.71436990627,7.605707849189801,-3.5523169189582
1224,612.25189884,-5.2699500821230005,7.326349777458001,-4.23464301462
1225,612.753224748,-3.621458138932,4.9511370575726,-7.891873763877999
1226,613.2495374959184,-4.367027902528571,5.274691426424489,-1.511098470862245
1227,613.745850864,-5.2403536285264,6.469336944246001,-6.835912646644
1228,614.2471777200001,-5.1057235933,7.4733081759446,-6.9679141480672
1229,614.748505112,-4.2892494600214,5.5336926267376,-1.89796915283
1230,615.24983308,-3.160850976534,4.404934890686,-8.099336343164
1231,615.751160928,-6.150514938295999,8.1748782528876,-3.8494550171024002
1232,616.2524889,-5.0664243168898,6.654720437674,-3.8701419982279996
1233,616.753817688,-4.0191840636802,4.3737128174092,-7.843359649508
1234,617.2501339020408,-4.485401131744898,5.701954968541633,-0.6197143585714285
1235,617.746449808,-5.8192957121780005,7.752678222598,-6.217207251482
1236,618.247779368,-4.569739178534,5.87424644160108,-7.6159285950352
1237,618.749109098,-4.2767654201902,5.617027331245801,-0.75058415223394
1238,619.2504390199999,-3.17064960001208,4.314756418,-8.207267898336001
1239,619.7517694080001,-6.807570584112,8.4983046841358,-4.48942519246316
1240,620.25309984,-4.7995532773096,6.0802480591179995,-3.3510634275948004
1241,620.7494176020408,-3.3514327003714284,4.368384265838776,-7.9669347153877546
1242,621.24573574,-4.3469454806417795,6.0654049254518,-2.0506935608236
1243,621.747067644,-5.9433846681284,7.992293939098,-5.719905395333
1244,622.24840052,-4.03569173548604,5.5092604337508,-7.62291307079
1245,622.749732936,-4.2338556515454,5.276228027386,-1.616311862208
1246,623.25106542,-4.47522272645552,6.321675009514,-6.595524536062
1247,623.752398614,-5.933343548481999,7.5544993380322,-6.267667318822
1248,624.253731826,-4.470280004828,6.0331559875608,-2.276193631002
1249,624.7500523857143,-3.879806390989796,3.9380505777543267,-7.736166640183674
1250,625.2463734400001,-5.019856155918,6.994025848845601,-2.01279237662
1251,625.7477080140001,-5.966562469454,7.874976901202,-5.075070336468
1252,626.2490430400001,-3.7695751282094,5.247424923562201,-7.839297097318
1253,626.75037824,-3.817481506084,6.1744172329158005,-1.1534114685508
1254,627.25171342,-4.6227110228316,4.382858798147399,-7.4008378785394395
1255,627.75304942,-6.672898635983601,8.0882054898786,-3.7359700104096
1256,628.2493727142856,-4.898994121855102,7.582576848151021,-2.831023060986735
1257,628.745695886,-3.1457713348599996,4.846301065154,-8.777423254662
1258,629.24703276,-4.496882684194,6.3024968902700005,-1.2102961762364002
1259,629.748370114,-4.310879479841,4.838813635454,-7.2218221437581995
1260,630.2497077200001,-5.7055203096112,7.85367619651,-6.024001025308
1261,630.7510455099999,-4.906029858334,6.358962469644,-2.871203301886
1262,631.25238318,-3.491866625908,4.475213745383,-7.953006637702
1263,631.753721608,-4.19647538477132,5.326915621849,-2.0203576445996
1264,632.2500472163266,-5.994373412040408,7.792907830002041,-5.926857688791836
1265,632.7463729440001,-4.489266522062,5.7879179626074,-7.735523895382
1266,633.2477124000001,-4.1619721342116,5.3436657898211,-0.9113827697460001
1267,633.7490523280001,-4.1997894927010995,4.659744012528,-7.6714391603488
1268,634.2503927,-5.807338577188,8.425546984918,-5.390168087674
1269,634.751733144,-4.7177124661068,6.145239908164,-3.1567016055419996
1270,635.25307374,-3.6761813413168,3.77453581247352,-7.807482256906
1271,635.7494015530613,-4.240498165382041,6.159189857953346,-1.839750749202449
1272,636.24572984,-6.179338998465401,7.974061852907999,-6.3557441618774
1273,636.747071828,-4.6808381467614,5.328882531664,-7.6169195343554
1274,637.24841454,-4.7526707702332,5.066400366382,-0.9546038910242
1275,637.749757164,-4.7165778260062,5.2789224243852,-6.828042013769
1276,638.251099944,-6.779192596712001,8.04092181712238,-4.267903848054
1277,638.752443232,-5.746879302899999,6.067796951122,-3.5405424042803997
1278,639.2537864000001,-3.970023294114,4.7878476195316,-8.0788349764902
1279,639.7501170836734,-4.948434167648486,5.916431411521837,-0.7352526667836735
1280,640.24644862,-3.9135906462939998,5.19608768028,-7.377504400806
1281,640.747793176,-6.1066531493354,7.9347206631688,-5.129667801061999
1282,641.249138,-5.376696102705999,5.92076969614,-3.6548117795682
1283,641.750483232,-2.756179495453,4.360127068924,-8.140306146196
1284,642.251828924,-4.196385571094,5.9274338376796,-1.4873460479432001
1285,642.753174784,-5.9839592922680005,7.7727754300430005,-6.4175027341340005
1286,643.2495074795919,-4.179455715447551,5.429607033335837,-8.247766029225103
1287,643.745840494,-4.117787017882,5.3481205258524005,-0.8832382964268001
1288,644.2471867600001,-3.7683267241819998,4.6817452604438,-7.6435910710522
1289,644.74853379,-5.876994726382,8.430854946732099,-4.7469646364124
1290,645.24988164,-5.048817929056,6.0761914946226,-2.9500862642404
1291,645.7512291959999,-3.1025232695019995,4.5738945373352,-8.13672559218
1292,646.2525768,-4.432525515886,5.8600290070689995,-1.9668918274148002
1293,646.753924856,-6.003583483914,7.6769686616189725,-6.245429562294
1294,647.2502600816326,-4.396919823379592,5.434384853134694,-7.891512983914898
1295,647.7465950999999,-4.392540664783,5.1244107328244,-1.29970824279
1296,648.24794362,-4.2851928955412,5.7030115264740004,-7.11095070164
1297,648.74929292,-5.998568911736,7.345902117785999,-6.4258344083752
1298,649.2506425,-4.4957809750280004,5.7293238098448,-2.275807434066
1299,649.75199211,-3.2151909762461997,3.852308084166,-7.825873013220001
1300,650.253342762,-6.3377246341613205,7.9716159393406,-3.9459413727868
1301,650.7496797163266,-5.205584115578163,6.683014844184285,-3.8361339430867343
1302,651.24601724,-3.461378027362,4.4537932893142,-7.843560233024
1303,651.74736833,-4.079784045544,5.83386341862,-1.7457656616078001
1304,652.24872008,-6.47957265929998,7.75853404550042,-5.8701389831999995
1305,652.7500716239999,-4.411063147316,5.3253079651899995,-7.707795556170001
1306,653.25142338,-3.9792261565128,5.430649905345,-0.7906797728582
1307,653.7527756000001,-4.683529550216,5.2703452606064,-7.007758291709999
1308,654.25412806,-5.8974122677417995,7.7656442601448,-6.802157840208
1309,654.7504674571429,-4.637704822457347,5.7012584578677545,-1.6465453789577553
1310,655.24680736,-3.2538136597914002,3.9833485837958,-7.663059585714
1311,655.748160944,-6.2539079318912005,8.524682831027,-4.443758157104
1312,656.2495146599999,-5.071420925712,5.9971139376584,-2.755407101532
1313,656.75086882,-3.012817813506,3.689530581254,-8.073074954119999
1314,657.2522228800001,-5.285167437578,7.222103558016,-2.3190914246072
1315,657.7535777,-5.1589409274768006,7.443786566298001,-4.57354127204284
1316,658.249919,-3.3557125759897954,4.500421936899592,-7.930551191361224
1317,658.746260806,-4.045663998506,5.89371196261,-1.8872843718940002
1318,659.2476166600001,-5.813832073966,8.160717700052,-5.73104523018
1319,659.7489724799999,-3.5538138061400004,4.61587922977938,-7.8675373719782
1320,660.2503286199999,-3.7435083342294,5.514643240462,-1.5365876495239998
1321,660.75168504,-5.446546847436,6.756236334146,-6.60166476749
1322,661.2530421600001,-4.929441174134,6.472130136355999,-7.229462255685
1323,661.7493855530613,-4.194363490720001,5.186989110676122,-1.1702603087502041
1324,662.245728906,-4.2966620451364,5.05654186722,-7.221352120960001
1325,662.747086424,-6.36600981464,8.0045444640322,-6.194322839369599
1326,663.2484439,-4.847223147548,5.31864382334026,-2.2712598907756
1327,663.74980194,-3.4537947966859996,3.9813996370778,-7.605444396568
1328,664.25116072,-6.2938987698940005,7.928143340919999,-3.4279405608199998
1329,664.752519248,-5.035226193515,6.591162606924001,-4.2267604066114
1330,665.25387762,-3.2830807981815,4.4986789490304,-7.7156242766304
1331,665.750223065306,-4.378660854556735,6.2886767110977555,-1.5275733947915102
1332,666.2465686600001,-5.739101477261399,7.941495575148,-5.956829708878001
1333,666.7479282319999,-3.715324941974,5.860394247353799,-7.6976586363278
1334,667.2492882,-4.0198067689444,5.38837781027,-0.6734256042482
1335,667.750648278,-4.0046492890174,5.258289330927999,-7.5357223845686
1336,668.25200882,-6.273514159934,8.2366488006688,-5.6612513671358
1337,668.753369386,-4.871709228906201,5.7035084931084,-2.858054644856
1338,669.2497166530612,-3.296148684589796,4.122066893125918,-8.002352899387756
1339,669.7460640740001,-5.352308816676,6.692199499434,-2.3142145660724
1340,670.2474252,-6.1007823574438,7.88038964508,-5.546320367583999
1341,670.748786718,-3.0530152221124003,4.3734613402286,-8.13560292652
1342,671.250148732,-4.1686632201114,5.4174114349184,-1.6523359497366
1343,671.751510554,-6.0158280210960005,7.335492764097999,-6.715027029563999
1344,672.25287168,-4.598254879888,5.5939812558122,-7.515511413592
1345,672.7542341479999,-4.261302575754,4.915274633557,-1.0425909210326
1346,673.2505839408163,-5.000779397385714,5.74432909641653,-7.064565283718367
1347,673.7469332439999,-6.274071002158,7.174221130711399,-5.870629962077399
1348,674.24829606,-4.930518933171999,6.161175768988,-2.15140712566248
1349,674.749659508,-3.4347334349052,3.7248750823062,-7.857241782
1350,675.2510233940001,-5.351539416432001,6.7947452545182,-2.0395597136874
1351,675.752387334,-5.9529138520732,8.0957887206668,-5.1887768826246
1352,676.2537514800001,-3.099167248345,4.5831003935126,-7.834794461294
1353,676.7501023061225,-4.0226735828673466,5.771578552932653,-0.9588998350859184
1354,677.24645318,-6.386026189992,7.2718032074300005,-5.996826535144001
1355,677.7478181280001,-4.4023632386214,6.2652423613246,-7.477532391427001
1356,678.2491835799999,-4.077308193956,5.5574991211166,-1.18780095522
1357,678.7505491239999,-4.47337257378117,4.92366618346,-6.910607317906
1358,679.2519150200001,-6.1030636139944,7.9720679997232,-6.18473677385912
1359,679.75328108,-4.612568115228,6.3198607818940005,-2.2495969391012
1360,680.2496337061225,-3.8222953730673472,3.7798418192185714,-7.732564946428571
1361,680.7459866859999,-5.78568161291,7.8178526916918,-1.906758874612
1362,681.247353406,-5.654617163092,7.7928935945942,-3.691518447574
1363,681.748720496,-2.644526678648,4.499175915594,-8.490565777308
1364,682.25008754,-4.52309317955322,5.699859081994,-1.2718302154824
1365,682.7514551639999,-5.5009018158959995,7.033519720794,-6.6242168705046005
1366,683.2528235999999,-4.6668093202614,6.63536269239,-7.2305370211161994
1367,683.754191896,-4.4329865572976,5.2565170164840005,-1.0132130126768
1368,684.2505468183673,-4.109450272534286,4.746116114861224,-7.596592600604082
1369,684.7469021620001,-6.3597348630646,8.2039058897532,-6.0263780821596
1370,685.2482717800001,-4.847699157608,5.4608930143824,-2.0798409483589
1371,685.749641618,-3.3623858826579998,4.1224004243122,-7.793782745074
1372,686.25101178,-6.274645807263999,7.270333263948399,-3.34933901366
1373,686.7523824399999,-5.230255627492199,6.988885537284,-4.5620212280858
1374,687.25375346,-3.6984849609542,4.83890644214232,-7.92649975904
1375,687.7501111714286,-4.27169757135102,5.135557288317347,-1.2995638695918366
1376,688.24646943,-4.9405929839376,6.416676452333999,-6.919241363706
1377,688.747841472,-5.9115129456140005,7.6243500825614,-6.440348226797
1378,689.24921314,-4.6790927761239995,5.070301254786,-1.696994082826
1379,689.750585904,-3.672148727504,3.91718916314586,-7.6876624238168
1380,690.251959142,-6.0134389895654,7.70833144232364,-2.992370333644
1381,690.7533325100001,-5.318509103364001,7.310066638557999,-4.0649109739738005
1382,691.2496925938776,-3.0850814787889798,5.124275646746939,-7.975818282283674
1383,691.7460528400001,-4.000107733038,5.6525394839839995,-1.5599450774939998
1384,692.2474267399999,-6.024285433864,7.591532327192,-6.325911199888
1385,692.748801468,-4.267017691182,6.154152374116,-7.8066769316534
1386,693.2501764799999,-4.622055386324,5.286311059702601,-1.2178225250274
1387,693.75155187,-3.6673197695488,4.7083479396948,-7.53658159772
1388,694.25292766,-6.393157361256,8.4851500398702,-5.3965987150606
1389,694.754303334,-4.5540727569652,5.932598098622,-2.8220006195304
1390,695.2506652632652,-3.3703790157183673,4.200320490578368,-8.154146426510204
1391,695.7470276600001,-4.18691027537,5.615153228474799,-1.5091077941737998
1392,696.24840372,-6.1755488802339995,7.131862216115399,-6.483195126316
1393,696.7497805,-4.153113555776,6.009553070018,-7.495333373918
1394,697.2511582399999,-4.1551882416399994,5.22004086921788,-1.3761482849084001
1395,697.752535598,-3.9896953858144,5.7604919952336004,-7.3292657133392005
1396,698.25391218,-5.318086981215,7.876114536192,-6.43282487184076
1397,698.7502762836734,-4.810555581943265,5.792122566087755,-1.9445175793418366
1398,699.2466417400001,-3.0314001709539995,3.832031250064,-8.119867648224
1399,699.74802008,-6.275966061628,7.967909647002,-3.5251484163091997
1400,700.24939862,-4.920561639052,6.4410817018004005,-3.93542424313234
1401,700.75077746,-2.8928632597887995,3.9024238678038,-8.028617404268
1402,701.25215566,-5.70531373884,6.679838204866001,-2.2489233398936
1403,701.7535349999999,-5.2393926268808,7.44365184625,-5.1654463992420006
1404,702.2499009306122,-3.444630731284163,4.113919549987143,-7.974235858693877
1405,702.7462669600001,-4.49436192621,5.656554135232,-2.197541189572
1406,703.2476469,-6.406794003238,7.976810137664001,-5.3838751738334
1407,703.7490270399999,-3.9549137144834,4.3476011168852,-7.570869296140001
1408,704.2504079,-4.3598456542560005,5.919042288509799,-1.5963403931
1409,704.7517883800001,-6.13247445359,7.875111621645,-5.268911242325999
1410,705.2531684,-3.6830281035446,4.3935286101078,-7.852167333820001
1411,705.7495353387756,-4.140307533082245,5.843068664147551,-1.4553348402253061
1412,706.245902714,-6.0953875760186,7.7061220368251995,-5.520843346862
1413,706.74728374,-3.698284378025,5.4185879883114,-7.91434802836
1414,707.248664842,-4.1686662140924,5.3047616912334,-1.401816906718
1415,707.7500462,-5.747478057585999,7.168898199477599,-6.186452206328999
1416,708.2514277780001,-4.692681518718,5.9716848173149195,-7.32184414649
1417,708.7528095,-4.092732119456,5.08272242416,-1.60803407591
1418,709.254190732,-4.6203399535158205,5.960991055473401,-6.770384912288
1419,709.7505588551021,-5.634005453881632,7.410712812839388,-6.72902121412653
1420,710.246927612,-4.4069556884128005,5.162964560249,-1.341387570122
1421,710.74830994,-3.4775923093507997,4.691019973858,-7.599453854301399
1422,711.2496928099999,-6.1241607420524,8.365629583436201,-5.577500527792401
1423,711.75107544,-4.864224792664,5.858529125961599,-2.527077914406
1424,712.252458612,-3.3596495728728,3.9516415191264,-7.78427451772
1425,712.75384142,-5.516682000994,7.2667856412792,-1.9517732666929999
1426,713.2502101346938,-5.769800617353061,7.46632064504898,-5.269265974269388
1427,713.7465794000001,-3.9131296050984004,4.787443460236,-7.546308371186
1428,714.2479621159999,-4.12554388740594,5.2836226500176,-1.3887221374360001
1429,714.74934534,-6.0213215972,7.343938201783,-6.436228793472
1430,715.25072924,-4.8919830690608,5.922018100118001,-7.3529135378707995
1431,715.75211284,-4.2174647371708,5.525420827846,-1.3883119903834
1432,716.2534959559999,-3.9451839481022,4.653594800177999,-7.4180939939958
1433,716.7498657632653,-6.490353241157143,8.309242269922857,-5.073024061495919
1434,717.246235784,-4.700746746704,6.1723485349576,-3.0884555235532
1435,717.747619504,-3.406624887086,4.27854072880734,-7.823409137146
1436,718.249003412,-4.315630599723,6.0080831263295,-1.7670843292122
1437,718.75038718,-6.0278001253624,7.2845057921382,-6.282621222187999
1438,719.251770296,-4.803612835908,6.00014962465,-7.0843779602976
1439,719.753154204,-4.832592572034,5.51960093052,-0.8188362212935999
1440,720.2495248081633,-3.3946133139204084,4.838642073734694,-8.174568244810203
1441,720.7458950800001,-5.8340370573680005,7.85315228586,-4.0852955838696
1442,721.2472791060001,-5.379938360841001,6.887495379858,-4.1910566527984
1443,721.7486633200001,-3.600848995764,4.177527786067,-7.867196081762001
1444,722.250047224,-4.762631057882,5.670475186173199,-1.880084344458
1445,722.75143156,-6.188610717849801,8.279295117692,-5.955272946112
1446,723.2528165560001,-4.403435009928,4.5985602447418,-7.469577932979999
1447,723.75420112,-3.41358840636,5.453698973854,-1.7438735961622
1448,724.2505724387754,-5.620078293031837,5.938117946726531,-7.2773768205938785
1449,724.74694332,-6.188377203382,7.067220639202,-8.450428244084002
1450,725.248327952,-4.382313931268,4.353265338106,-4.968776376372
1451,725.74971284,-4.431043597358,4.815581946168,-5.1411130007148005
1452,726.2510973359999,-6.1769050598219994,7.1424691587539995,-7.322176455593199
1453,726.75248242,-5.435365100218,7.242323510764001,-7.693233838098
1454,727.2538680900001,-3.8022970826174003,4.2485341279030004,-4.680323217960201
1455,727.7502395918368,-3.992457845189796,5.122516040425306,-5.2730509603
1456,728.246611348,-6.064096646046,7.0554790559524,-6.9976572968481445
1457,728.7479968399999,-5.551194231994,6.9380572357879995,-7.993162134234
1458,729.249382212,-4.417628494158,5.121892968988,-4.965596988232
1459,729.75076786,-4.766436145126,5.08239310924,-4.987604223313999
1460,730.252153674,-4.801684844876,5.390584222257799,-6.33642234202208
1461,730.75353938,-6.46173575146042,7.153031194824,-8.1314266114954
1462,731.2499114918368,-4.924300680161225,5.78881414004898,-7.110531939931632
1463,731.74628346,-4.569445788314,5.2192505126474,-5.011740032856
1464,732.247668564,-4.1982686554591995,4.91952279974,-5.172823059180572
1465,732.74905438,-5.2880863678736,6.40268355105,-6.326800350944
1466,733.2504406280001,-5.58092540566,6.643095611376,-8.947634298786001
1467,733.75182658,-4.61727133473,5.56846232299,-7.403646038768921
1468,734.253212138,-4.3947470764804,5.4608540954338,-5.0993827790526804
1469,734.7495842122449,-4.49015451228,4.393770250497959,-5.581687718421347
1470,735.2459560240001,-4.572517401016,5.7660544282299995,-6.239702472494
1471,735.7473419600001,-5.7926900394239995,7.150118252684,-8.896563500944
1472,736.2487281640001,-5.382779452677999,6.039966824368,-6.57906775814
1473,736.75011424,-3.3664693909648005,4.235280688458,-4.8049750029839995
1474,737.251500084,-4.811794820963,5.075755911252,-5.2249835901749995
1475,737.75288624,-6.298293630934,8.2275297637962,-8.975955404484
1476,738.25427288,-5.246544754346001,5.860229589692,-6.4777494508672
1477,738.7506452918368,-4.0663735244593875,4.231199135344898,-5.245434919074081
1478,739.24701795,-4.1269090485160005,5.2166758665794,-5.0296158598608
1479,739.7484042399999,-5.289218014454,5.837518817346,-7.136780987688
1480,740.2497907119999,-5.76624004226348,7.5213642426028,-8.810723006932
1481,740.75117726,-3.986321401824,4.8283174623219995,-6.380733197086
1482,741.252563514,-4.723628164452,6.101710428123999,-1.8032161926462
1483,741.75395024,-3.42838363930568,5.106495987278,-7.2001292541696
1484,742.2503230979593,-5.830901109092449,8.276674281587246,-3.5898471191673473
1485,742.74669608,-5.8397701353248,7.169038906734,-3.6298437011881997
1486,743.24808281,-3.1901360779398,4.7968349306938,-7.736395083600001
1487,743.7494696,-4.4503684110736,5.99256340043,-0.8289911041119999
1488,744.25085658,-4.9311146943779995,5.8280884280134,-7.4575818786762
1489,744.75224342,-5.56345373882864,8.080661178307999,-4.11849654247
1490,745.2536304,-3.1876063383624,5.1254465790352,-8.140761200156
1491,745.7500033081632,-3.9166573099302044,5.623875498750612,-1.382748030062449
1492,746.246376478,-5.55744822675,7.170392093158,-6.239235443489401
1493,746.7477631879999,-5.47961009213,7.228752731403801,-7.038986352186
1494,747.2491494620001,-4.9879215637278005,5.472371145826,-1.7449633301463998
1495,747.7505361079999,-3.155528045882,4.3782873048574,-8.200840264898
1496,748.2519229000001,-5.279745712166,6.7132397458408,-1.811050900265
1497,748.75330952,-5.422713409346,7.553861663566599,-5.8027581026336
1498,749.2496817163266,-3.8433067817387756,5.575296926422326,-7.7180329207857135
1499,749.74605436,-4.3060535153976005,5.6091596920710005,-1.5143169617339998
1500,750.247440988,-4.0628752074498,5.0126591216646,-7.46747031526
1501,750.74882744,-5.756567157161999,8.339203537188,-5.239042355435999
1502,751.25021394,-4.800155026226101,6.172357516986,-3.10639122611812
1503,751.75160034,-3.0258167814687997,4.4621070006388,-8.182165099679999
1504,752.25298678,-4.7371270934680005,5.9513271516984005,-2.0631955628728
1505,752.7493593775511,-6.181603453067347,8.185471082112246,-5.731788846906939
1506,753.245732252,-3.7546032623564,4.886118264849,-7.94910574942
1507,753.7471187,-3.7329552794398,5.160847961564801,-1.452546414216
1508,754.2485051479999,-5.6418068029013,7.006312298254,-6.409769815112001
1509,754.74989142,-4.9183492398042,6.738788616848,-7.0383127532582
1510,755.251277708,-4.235466302248001,5.155572930841999,-1.110654382344
1511,755.7526639600001,-4.412652841084,5.1278894987234,-6.90056021112
1512,756.25404966,-6.080888727343599,8.304311096558001,-6.3650248629320005
1513,756.750421844898,-4.425742539648979,5.405525478528776,-1.4412671552632652
1514,757.24679361,-3.7573066406227995,4.394169277844401,-7.555589071692
1515,757.74817954,-6.4218077820692,8.844082635651999,-4.2763642546480005
1516,758.2495664800001,-4.65091537137,5.9077108518121,-2.877113012758
1517,758.75095256,-3.326768948138,3.7724970518200003,-7.79407912912
1518,759.252338432,-6.622420605186001,8.38645128486,-3.2965078764712
1519,759.7537243600001,-4.8797714630439994,6.374087017934,-3.479643045034
1520,760.2500963387755,-3.3829773071040816,4.310683845902041,-8.140536972816326
1521,760.74646836,-4.7498206967044005,6.136141827334,-1.540506500216
1522,761.247853824,-6.3513193631842,7.6054683472294995,-5.52341200564
1523,761.74923962,-4.136543014446,5.1285601038942,-7.5425062774219995
1524,762.250626168,-3.9880757536480003,5.351144238385,-1.180511114484
1525,762.75201212,-5.729949508728001,6.5840464050204,-6.3649560060204
1526,763.253397404,-5.658482125514,6.7360523070288005,-6.944538757654
1527,763.7497692530612,-4.2889698170644905,5.443528084376123,-1.1756674318757143
1528,764.246141524,-3.667002429368,4.1659508606402,-7.602567379718
1529,764.7475272800001,-6.7645590274380005,8.843920972020001,-4.293886816092001
1530,765.248913172,-4.587471304288,6.13175894166,-2.692178585798
1531,765.7502988800001,-3.5105687347959997,3.6095578857871997,-8.045933394978
1532,766.251684328,-5.33848656013,6.435923428154,-1.37333413699
1533,766.75306996,-6.051630569726,7.660122693056199,-5.964391982777999
1534,767.2494416285714,-4.281632014670796,5.023361009809592,-7.892811304353062
1535,767.74581334,-3.8266035371062004,5.506901340138,-1.083228414886
1536,768.247198564,-4.8600544648324,6.022231704224001,-7.05749386613
1537,768.7485839999999,-5.6589042478438,7.9282630923986,-6.295973455772001
1538,769.249972364,-5.203015274079,5.559007983410001,-2.2812111971244
1539,769.75135828,-3.108112646582,4.48288978269104,-8.178030697422
1540,770.2527415500001,-5.754495465014,6.644209295463001,-2.2566382965236
1541,770.75412656,-5.886362247171999,7.4339011231272005,-5.508874237183001
1542,771.2504974979591,-3.230490324124286,4.671965210411428,-8.035018644144898
1543,771.74686886,-4.1075872284308,5.580422451862799,-1.4670901703219998
1544,772.248254016,-5.9265297177858205,7.913090643248,-6.04605316798
1545,772.74963922,-4.162699621506,6.450973132530001,-7.44443920881164
1546,773.25102446,-4.0260398072151995,5.4573423978851805,-1.6039625427780002
1547,773.752409684,-4.5991230746152,5.273428848182,-6.939317614909999
1548,774.253794648,-6.391977814014,8.007226885865201,-5.4347573641392
1549,774.7501659306122,-5.064326841238776,6.0326906694183675,-2.5082178077512247
1550,775.2465373,-3.334049807584,4.260167935226,-7.65601523447
1551,775.7479224599999,-4.8811935059828,6.2019509768968,-2.211740661552
1552,776.2493083319999,-6.014896957204599,8.110994100906,-5.495782461411199
1553,776.75069358,-3.810976034396,5.367654904080999,-7.722027960192
1554,777.252078404,-4.00335897232,5.402729965045,-1.5658158691638
1555,777.75346346,-4.2359483001600005,5.4520164732336,-7.061789931982
1556,778.2498346551021,-6.318082907653062,8.484411677674695,-5.255522106065102
1557,778.74620588,-4.6101581268256,6.4557601774492,-2.3446223330456
1558,779.2475909199999,-3.484247470074,4.0221838255128,-7.762695391974001
1559,779.7489759599999,-5.161527548424139,7.1279912660687,-1.7218004974449999
1560,780.250360796,-5.4312007600428,8.343798980654,-4.672365765588
1561,780.75174572,-3.41726476132612,5.3379686370372,-8.103740185478
1562,781.253130696,-4.1044347838946,6.139366122676201,-1.054958203124
1563,781.7495017877551,-4.714296569665306,6.010478696469387,-6.502245857032653
1564,782.2458732059999,-6.2671434086564,7.4404095890356,-6.9752249450859996
1565,782.7472583,-4.94834386602636,6.588617898237399,-0.8421786803340001
1566,783.248643484,-3.5784196382699998,4.7555028808660005,-7.764919766787321
1567,783.75002854,-5.1702873317939995,7.496533877568001,-1.4344400664880002
1568,784.251413148,-5.1411399440870404,7.787414987334,-5.2919154054540005
1569,784.75279804,-3.9530366178999996,5.091700753716,-7.94190871569
1570,785.254183692,-4.702150826898,5.239979406438,-1.066526147404
1571,785.7505550836734,-3.9479666915946936,5.107580772186735,-7.573891847485715
1572,786.24692616,-6.6093048796134,8.2576531219184,-4.971584536797
1573,786.7483113000001,-4.764565035863,6.143557406298,-2.486667947104
1574,787.249695938,-3.807778683586,4.502457092148,-7.9903509793362
1575,787.751080924,-4.521114294678,5.69844003285,-1.6255865753374
1576,788.252466656,-6.2147313992858,7.6068544646600005,-6.4335343963872
1577,788.75385188,-4.4584366333254,6.067443685652,-7.1762509092842
1578,789.2502229795919,-5.053588966963674,5.5013598636293874,-1.0216927259391633
1579,789.7465942399999,-3.464090386978,4.76373276673296,-7.6046121277576
1580,790.2479793,-6.162840307456,7.657868380522,-3.0861473236
1581,790.7493641599999,-5.634681619306,7.048132333518001,-3.9445941743177597
1582,791.2507486,-4.8146359131662,5.425383856232,-7.417243762006
1583,791.75213314,-4.8088818786607,5.09509868781,-0.9985944122579999
1584,792.25351788,-4.9460206966604,6.4077759610824,-6.128307119498
1585,792.7498887408162,-6.994715638239388,8.186818280904081,-5.1958512941791835
1586,793.2462596400001,-5.927607476752001,5.61362041587,-2.6067841643880003
1587,793.7476444480001,-4.3933190461262,4.861287899862,-7.4995096893660005
1588,794.249028982,-4.660255947994,5.6928955632066005,-1.555358615172
1589,794.7504137599999,-5.87983881211,7.014030249148,-6.8733138701
1590,795.2517986800001,-5.1851065153642,6.708045547238,-6.7557094300522
1591,795.75318352,-4.6849785370914,5.749453949396,-1.460458959986
1592,796.2495545795919,-3.585967432267347,4.139030596469388,-8.482013602714286
1593,796.74592556,-5.536372055026,7.117291516352,-2.262137860156
1594,797.247310672,-6.026725360008201,7.7541212219978,-4.817731475616401
1595,797.7486955400001,-3.811727471888,4.7708609436602,-7.57099204072
1596,798.250079618,-3.8879968690094002,5.7163517849701995,-1.4965968109899999
1597,798.7514642000001,-6.015615463512001,7.4698563539968,-6.2626647214374
1598,799.2528495800001,-4.835828841866,6.0392902314959995,-7.313284945287
1599,799.7542345,-4.041424813822,5.632936248678,-1.3999787292619998
1600,800.2506052918368,-3.6452624948469388,4.707676662761837,-7.474303025453061
1601,800.7469762000001,-6.241953790138,8.67059340869032,-5.09672730113
1602,801.248361418,-4.794718331682001,6.102794174276,-2.625399453568
1603,801.74974634,-3.2712134765706002,4.3322819731172,-7.75981837446
1604,802.2511303599999,-4.753098880104,6.3179836855,-1.897502124048
1605,802.75251494,-5.9508361727354,7.851996688977799,-5.6374718172103995
1606,803.253900384,-3.80871274098904,4.907972818034,-7.908480231033
1607,803.7502714897959,-3.9680127608673468,5.377988863547653,-0.8809883833834694
1608,804.24664168,-5.333439056457999,6.446407626781999,-6.747192141908
1609,804.7480262,-5.611354129566,7.1269105135016,-6.87697226267814
1610,805.24941178,-4.21250704648,5.758246664547199,-1.26401646426706
1611,805.75079672,-3.456327529868,4.036428204458,-7.739412808108
1612,806.252181108,-6.0296233338506,8.83848128387,-3.892322872886
1613,806.75356576,-4.750802655096,6.621687130456,-3.0110784301400004
1614,807.2499367918367,-3.3672294428938776,4.649805170164286,-7.854081638632653
1615,807.74630768,-4.1428508971738,5.9540095734382,-1.5808985046480002
1616,808.24769272,-5.243089938289399,7.269330349682,-6.204750155442
1617,808.7490775,-4.426834350686,6.619980679391279,-6.9704947813724
1618,809.250461456,-4.230197259816,5.6838184387918,-1.3657568939020002
1619,809.75184592,-3.2979478819638,4.6741889740026,-7.4292218536374
1620,810.2532305000001,-6.124070928484,8.9328959472423,-4.7926077209216
1621,810.7496013163264,-4.8072777043931225,6.155966967944899,-3.10528640127551
1622,811.2459726320001,-3.8489939756680003,4.476435204872001,-7.6088093994363994
1623,811.74735738,-4.4018572906582,5.7056849674102,-1.4345119171051999
1624,812.248741944,-5.938307226711601,7.659308386116001,-6.481309048501999
1625,812.7501265000001,-4.598575213302,5.7343862820022,-7.5841706359746
1626,813.251510704,-4.1467877103860005,5.191183877708,-1.1509296295402
1627,813.75289518,-4.437351480516,5.382701614324,-7.057430996773999
1628,814.254280332,-5.981863650819999,8.2274848573522,-6.180341912654
1629,814.7506513020408,-5.103621657930612,5.493441635497959,-2.643224814132041
1630,815.247021694,-3.0788455078652,4.208181042545,-8.12350807797
1631,815.74840624,-4.7166257265201805,6.3518522554624,-1.2068084289722
1632,816.2497908639999,-5.9637094024446,7.681932339187999,-6.179312053944
1633,816.7511754399999,-3.9347027432638,4.9529961913138,-7.8661123354599995
1634,817.252559984,-4.7437852477024,5.4776222259964005,-1.113139215058
1635,817.7539445399999,-4.3473945461662,5.0357860286296,-7.433511932341999
1636,818.2503154938777,-5.977192812156123,8.056491337889796,-6.032266042159592
1637,818.74668628,-4.5620721224782,6.000140642748001,-2.8271798493766
1638,819.24807037,-3.1777777772205598,4.1093804992466,-8.26067683406
1639,819.7494548,-4.909867877148,5.893475454617399,-2.380583551062
1640,820.2508398539999,-6.0352665987880005,7.9420284668128,-6.2785796266146
1641,820.752224502,-3.470775485204,5.0298254244646,-7.710717480462
1642,821.253608462,-3.846362447816,5.345503967112,-1.4435441344879998
1643,821.7499790306122,-5.333537423287755,6.175316526311184,-6.853018462320408
1644,822.246349988,-5.27653039839,7.2736773099444,-7.07598940415
1645,822.7477347,-4.27438536992128,5.298636428912,-2.0522503235580003
1646,823.2491189839999,-3.44750188299,4.39855216375,-7.540835751512
1647,823.75050352,-6.358004461948,8.6828589020948,-5.585823220813
1648,824.2518881999999,-4.387906301922,5.831597131050599,-2.2529709228588
1649,824.75327286,-3.061161282358,4.041966687014201,-8.03306016524
1650,825.2496438306122,-5.693639607308163,7.3842301291000005,-2.7770343110918367
1651,825.74601474,-4.931435028148,7.6567996032600005,-4.86466787132
1652,826.2473993680001,-3.1619047850179998,4.30588586409676,-7.82084047852
1653,826.74878402,-4.479399042114,6.59100992397428,-1.7012452422300002
1654,827.250168896,-6.2597607602526,7.593104058858399,-5.3602273496079995
1655,827.7515536999999,-3.6212695311039997,4.827883364982,-8.02212690124
1656,828.252937856,-3.7792809449640004,5.536171472364,-1.695721728482
1657,828.7493084857143,-5.391674689400347,6.831435793123061,-6.385329801385714
1658,829.245679568,-4.893372180236,6.4567930295708,-7.28372441693
1659,829.7470643400001,-4.0632733795460005,5.615440631388,-1.2452874115256
1660,830.2484488360001,-3.23449782725918,4.2718167111954,-7.974166635215999
1661,830.7498334,-6.559081320004,8.864269656441799,-5.026855600098
1662,831.2512181320001,-4.4716481594248,6.319106350729999,-2.3167443053439998
1663,831.75260282,-3.1408765137019996,3.9054715299282003,-8.21732398678
1664,832.2539877080001,-4.356579446254,6.378272314423,-1.7948126678404
1665,832.750358655102,-5.542145457451021,7.586349615310204,-6.42927718789898
1666,833.24672928,-4.497259899894,5.4470737514400005,-7.63983388368
1667,833.748113948,-4.25971288132808,5.1227581692866,-1.3468302520553999
1668,834.249498658,-5.019607672226,5.2116762630719995,-6.743611587156
1669,834.75088338,-6.46739697881296,7.7033318390534,-6.643347088668
1670,835.2522677920001,-4.6431345518996,5.3658227145716,-1.62839772944
1671,835.7536524,-3.66751735838,4.1184546296454,-7.491543255936
1672,836.2500235632654,-5.966635175406836,8.113492192058347,-3.121975166089796
1673,836.74639454,-5.5085239651166,7.224896750662,-4.5706612609462
1674,837.24777894,-3.4130914396508003,4.948595342729201,-7.625604474046001
1675,837.7491635800001,-3.884566003519,5.511933874876999,-1.678396755946
1676,838.25054905,-5.5351056885814,7.444106899862001,-6.8840734955498
1677,838.7519341999999,-4.83863999625,6.026566690012399,-7.321481899932
1678,839.25331863,-4.284519296661601,5.7241236234698,-1.3726246124400001
1679,839.7496894408163,-3.483681157826898,4.2844883200493875,-7.936728142081632
1680,840.246060628,-5.880392660480001,7.597028897001399,-2.9098020357579997
1681,840.7474456200001,-5.461614514254,7.733024094096001,-4.8948211671786
1682,841.24883053,-3.64834822115424,4.329743252541999,-7.9570362576
1683,841.7502155200001,-4.055471603318,5.34475552358462,-1.5000935394601997
1684,842.25160071,-5.8700880892298,7.056505920736,-6.754751422446
1685,842.7529858,-4.6179239774568,6.8048642122776,-7.319044967565199
1686,843.2493569122448,-4.427969540897959,5.492308278063673,-1.5537475368412244
1687,843.7457281,-3.1573841857695997,4.281974587884,-7.961335318400001
1688,844.247113968,-6.740803427276001,8.8128186490168,-4.968444067446399
1689,844.7484994600001,-4.5418072628204,6.0139090119912,-3.273060635378
1690,845.249884146,-3.3045132292635997,4.0196989927988,-7.6369478852
1691,845.75126906,-5.4974140683408,6.6858018037482,-2.4228676208828
1692,846.2526544699999,-5.8524068574194,7.77427231773,-5.1796368899078
1693,846.75403978,-3.6558835512316,4.732621462966,-7.81910708276
1694,847.2504106163266,-3.970493316979796,5.541800256988571,-1.3793876710987756
1695,847.7467817739999,-5.433844262479999,6.4874582609522,-6.66045052215
1696,848.2481675519999,-5.496659637286,6.95294826994,-6.936284921448
1697,848.74955304,-4.1766386353384,5.4453613129138,-1.3304692749456002
1698,849.2509378159999,-3.9553058989204,4.4232478086126,-7.389219039926001
1699,849.75232294,-6.358220013507999,8.8118815982062,-5.1073522064685
1700,850.253709116,-4.8643385559726,5.855831735281999,-2.144246017644
1701,850.7500810326532,-3.313537015355102,3.922027774910612,-7.986159023632653
1702,851.246452322,-5.4950549747686,7.2643517028960005,-1.8214961792468
1703,851.74783766,-5.4188664091978005,7.615683105272,-5.055407226542
1704,852.249222964,-3.4445500212780003,4.669255233738,-7.78559177858
1705,852.75060836,-4.019863650762,5.759788458416,-1.6267212158069
1706,853.2519940440001,-6.3903252501594,7.579081219424,-5.450729150521999
1707,853.7533796600001,-4.403162576316,5.9380976623586,-7.727770019716001
1708,854.2497513632653,-4.166179243053062,5.699703527899592,-1.1165312226091837
1709,854.74612306,-3.732404424902,4.6557233732521,-7.313907651068
1710,855.2475079999999,-6.802711688248,8.722430612476,-5.366669952326
1711,855.7488933400001,-5.040614986934,5.97298411518726,-2.826847540278
1712,856.25027972,-3.998649765104,3.9656793272874,-6.324713690386
1713,856.75166576,-4.26343713669442,4.9683392852912,-5.4090288665244
1714,857.253051216,-6.614247601271,7.818158056648,-6.802466198608
1715,857.7494230244897,-5.9385272993220415,6.817481138604081,-7.827067407715306
1716,858.245795336,-4.97336882599,4.825090173369586,-5.334705423202
1717,858.74718136,-4.6983637026566,4.765918222055401,-4.63371015049982
1718,859.248567094,-4.820922839184,5.84561398342,-6.066620397658
1719,859.74995294,-6.663593985047201,7.073280038364,-8.081068331946
1720,860.2513386420001,-5.465659103186,5.939594549638,-6.71440731804
1721,860.7527244600001,-4.291991757374,3.867821823106,-4.348370516904001
1722,861.25411038,-4.5820555661102,4.9533674194098,-5.8037011413588
1723,861.750482510204,-5.93514861094551,6.549972120133368,-8.014120265434695
1724,862.246854508,-5.516032351543999,6.8592101990184196,-7.793411517780799
