Time_interval,Time,Acceleration_x,Acceleration_z,Acceleration_y
0,0.25415463520061227,0.0510308442322449,-0.9276278613391837,0.223066050320449
1,0.75040817,-0.518387753785,-1.0094904826534,-0.03755885960139999
2,1.25167392848,0.002898659848200007,-0.8645131709004,-0.17616686857799999
3,1.7529397119999999,0.37809191944,0.8799772274416,0.6238492092898
4,2.25420554268,0.6578559708788001,0.2491427776774,0.31110626796400004
5,2.7504587602040815,0.897760242161796,0.5509520250102041,-0.7289194272228571
6,3.2467126050000004,1.622364606576,1.1516079043818,1.0495167626408
7,3.747979075,0.5730791343504,-0.1905791118998,0.26925482859072203
8,4.249246345,0.1993119722234,0.34342893028728,0.009568302911659998
9,4.750513885,-0.44679721471519995,-0.04739657923639999,-0.0210363790116
10,5.251779195,-0.1410424616872,-0.20243742574559997,-0.17547096208772
11,5.753044255,0.008323330400759997,0.30443071192048,0.01695717474204
12,6.254310845,-0.6668294512126001,-0.0642335082782,-0.31346089475823996
13,6.750564798469387,-0.3129271858093878,-0.32181428896938774,-0.31217629654534695
14,7.2468188375,1.2975348590526,0.08801406850240001,0.25175668704268
15,7.74808559,0.09112468918359999,-0.41230818818579995,0.1306779956439
16,8.249352225,0.095637039143238,-0.44302920692439995,-0.37998094036479996
17,8.75061902,-0.010691514035039998,0.12760240653572,-0.183229597114
18,9.251885715,0.2542424720061,0.2057088558264,-0.16093234459068
19,9.753152385,0.4546319860272,-0.5618313444412,-0.4543085382582
20,10.249407382040816,-0.17861745077765306,-0.23178932170020408,-0.03176589208367347
21,10.745662560000001,0.2203342768564,0.060690106593599996,-0.006527131147119998
22,11.246930368200001,0.17446988068872,-0.15759195976106,0.0957822369952
23,11.74819825,-0.1750620430409,-0.1177570862356,0.1191599562388
24,12.24946611,0.27755245945886,0.035525359992,-0.021350523179260002
25,12.75073405,0.1099431924362,-0.07790689132940001,0.10657225742358
26,13.252002319999999,-0.2062701074772,-0.150505276581,0.357443284296922
27,13.753270829999998,0.32468698723364,-0.13625176364762,-0.01950097189224
28,14.249526225510204,0.09558337907268774,0.05041481326714286,-0.07618341150989795
29,14.74578165,-0.1004904758532,-0.16684889804788,0.3347874858606
30,15.247049922399999,0.19727462760578,-0.11425729112848,-0.10378133489579999
31,15.7483181208,0.02384000783886,0.061439994799399995,0.021388991534220005
32,16.2495871752,-0.0726225823194,-0.1589026308223,0.3196833007716
33,16.7508564502,0.22324174225380003,-0.220741640700952,0.02484659054018
34,17.2521252546,-0.055034733992340004,0.041335859311400006,0.089375563242792
35,17.75339402,0.0408560363586,-0.0111832090498,0.11199607673199999
36,18.2496507,0.13532243250959186,-0.13051073929969387,-0.006344386007306121
37,18.7459075,-0.13625650022483998,-0.12611817346432,0.03720098915414
38,19.24717692,0.06309376678286,0.06406322357948001,0.0384978354678
39,19.748446429999998,0.1555372407591,-0.16624071807876,0.01350647061522
40,20.249715762,-0.125201385411,-0.02904380663478,0.066472104275
41,20.75098501,0.12278500221832,0.016397110851600005,0.056356410563141994
42,21.252254602399997,0.2037377529938,-0.1482817673523,0.10502516767190001
43,21.753524210000002,-0.19221673251041999,-0.006741977071399999,0.096598281383
44,22.249781198979594,0.2945891563174082,-0.043917476360204086,0.051827337662142856
45,22.746038159999998,0.11161372333420001,-0.042393255123799996,-0.0006467718181199983
46,23.247308048,-0.21444871742464,-0.10299552874522,0.28074245097112
47,23.7485781204,0.353197415616,-0.12406831258183999,-0.01030702220264
48,24.2498483808,0.11311847719543999,0.08852436560919999,-0.0037959929569800007
49,24.7511187506,-0.16001839630439998,-0.22275651421702,0.272305113968
50,25.2523902306,0.1211726423394,-0.16051281318474,-0.03829409474868
51,25.7536623704,0.042253940742800006,0.14816206148654,0.07943892467461999
52,26.249919023061224,0.0960312487067,-0.16082571850204083,0.24778051020440814
53,26.746175159999996,0.0938899191486,-0.38825019573712,0.17557766768939997
54,27.247445625199997,0.0255382792584,0.0013766856513400016,0.04832187105108
55,27.748716100000003,0.2482176508826,0.060113902949480005,0.0350336635896
56,28.24998678,0.14038328436932,-0.20626471242218,0.1757405520895
57,28.751257609999996,-0.21073038502326,-0.053668267597780005,0.1231809510314
58,29.252529094,0.26998313447758,0.04569009629656,-0.047542376369259995
59,29.753800849999998,0.1342238873972,-0.0449766848232,0.12008084778402
60,30.250059198979592,-0.3709428155657143,-0.13902940951938775,0.21411747962518368
61,30.746317610000002,0.35028848538908003,-0.01895510206284,-0.12493989430079999
62,31.24758913,0.10638182196879999,-0.05809728030446,0.10167316001139999
63,31.74886079,-0.2188761491324,-0.059732459377199995,0.19334642663899998
64,32.2501325558,0.2239064253898,-0.021832858402,-0.17556346781364
65,32.7514045104,0.011616363951739993,0.0625390925208,-0.0357748618756
66,33.2526763758,-0.09426320964638,-0.02824403237986,0.21999272479136
67,33.75394828,0.10551390574140002,-0.23400531986356,-0.0628457628083
68,34.25020764734694,-0.01427717131653061,0.13731482131081632,-0.07196048768959185
69,34.74646701,0.056384251676799994,-0.06834785771904,0.17486515459238
70,35.247739545,0.12958601978440001,-0.25336665083259996,0.05769520576882
71,35.74901224,-0.162745255493,0.07110659143164,0.0007033914391800034
72,36.2502851946,0.14251812426701999,0.1137269601964,0.0069017649488000024
73,36.75155837,0.085111717804,-0.2338087690976,0.11264371003839999
74,37.2528310264,-0.2430722546502,0.010321790127920005,-0.040049105548199994
75,37.7541035904,0.13955651381906,0.037571673190999993,0.08166149372702
76,38.25036427836734,0.17493357223938777,-0.04181650855381633,0.05166466937346939
77,38.7466253204,-0.2792242366124,-0.015318482074599994,-0.07262700266880001
78,39.2478986874,0.17126545074176,0.03731969961604,-0.060583992097900004
79,39.74917223,0.0669908637836,0.10815187476600001,-0.08781936049551
80,40.2504458012,-0.290171527847,0.057802295868,0.09888632116690001
81,40.75171953,0.13795360060574,-0.13825322819702401,-0.12486244259457999
82,41.252993294999996,-0.0692855385265,0.2155934488932,-0.15805809930032
83,41.75426714,-0.007244357036600002,-0.010687334927320002,0.09353795982879999
84,42.25052974653062,0.1404478983671837,-0.21707406605623059,0.004032472810571427
85,42.74679307,-0.18720808442359999,0.042703491385600006,0.004781441228339996
86,43.2480662832,0.1079015526944,0.09767651710080001,0.0015790973562000027
87,43.74933872,0.10830947639897999,-0.12593699970164,-0.0264093215683
88,44.2506132988,-0.28529465824326,-0.03085017537654,0.15153655526919999
89,44.75188825,0.26713370666332403,0.01797746883932,-0.0005524251767600013
90,45.2531628888,0.1199249190888,0.0290416265986,-0.08078777810969401
91,45.749425164897964,-0.27019276985736734,0.029469957232448978,0.041340152863265305
92,46.2456882122,0.14698815916114,-0.11860771312964,-0.09298657515502001
93,46.74696475,0.011397511874340002,0.07511928970304,0.01693559600764
94,47.2482391708,-0.0563988874096,0.0768116947272,0.11750720825040001
95,47.7495127114,0.022132165797599995,-0.26399480332908,-0.005267749346
96,48.250788638,-0.1391698340446,0.09899510711174,-0.04480852856539999
97,48.75206491,0.19165818375596,0.07565981491264,0.11028869258796
98,49.253340678799994,0.06408544254700967,-0.19067130044266,-0.07518472284248
99,49.74960366836734,-0.28072925749836736,0.004383926152653062,-0.02697033601011429
100,50.245867090000004,0.28124195910108,0.1116243191456,0.024252780263360002
101,50.747143290000004,0.0759946605756,-0.058143498238799995,0.05876938095973801
102,51.2484196014,-0.28208192381848,-0.0001034186086000033,0.125024852797882
103,51.7496959116,0.296868782861,-0.030865197870460003,-0.15886564410583198
104,52.2509726082,-0.0347860035226,0.1067821574946,-0.073645091494636
105,52.7522495,-0.179060635709,0.021114661545440002,0.10787526717552
106,53.253526573,0.0555010501286,-0.2270982756824,-0.10066844483014
107,53.74979117612245,-0.1113130500087755,0.1311057432207959,-0.11052356322979591
108,54.246055649999995,0.10160238661099999,0.030212719622000003,0.168126231473212
109,54.74733293,0.148035148332,-0.17818071074695202,0.0822200765278
110,55.2486104322,-0.2988029804056,0.0017746995369999979,-0.036979282675539994
111,55.74988813,0.2525885211726,0.06362169514059,-0.11560634514338
112,56.2511657772,0.10220205983296,-0.00910239495974,-0.0185518935328
113,56.752443549999995,-0.3224998227302,-0.060842926054920005,0.14506003748626
114,57.2537212128,0.31849834655266,-0.1011152615794,-0.07821822829191999
115,57.749986057755095,0.01767074159922449,0.023811170905795924,-0.03009735302708164
116,58.2462514556,-0.2055580752318,0.07353359165659999,0.28810529501062
117,58.74752994000001,0.0633557356876,-0.276527167214419,-0.07993225418642
118,59.2488082184,0.14110622111724,0.12601551113874002,-0.039192307030471996
119,59.750086400600004,0.0877486360116,-0.032498360056080006,0.17101767584560001
120,60.2513650416,0.055351343201740004,-0.27922331106000003,0.016873729474639998
121,60.7526437,-0.1948154738421,-0.03247591507639999,-0.0243557678928
122,61.2539227478,0.3154283602168,0.1068683437284,0.1025780080256
123,61.750189394489794,0.16324482223612244,-0.15017201005714287,0.10627380933163266
124,62.246455475599994,-0.2826490417462,-0.10175973374,0.15346974104320002
125,62.747734300000005,0.33018679203886003,-0.10842326246258001,0.004047396385620002
126,63.2490135984,0.21326293544674002,0.014103849694799995,0.0485818339142
127,63.7502929906,-0.1115980757557,-0.18406540557433998,0.3019226301375
128,64.2515727264,0.1048737864598,-0.26384112480780003,0.003909967730480001
129,64.75285282,-0.014061045365059992,0.13574936377256,0.024305630532
130,65.2541327446,0.2745416388338,-0.07120982906772,0.21712539988046
131,65.75040016653061,0.10428397669673468,-0.3454483357832653,0.21310235149571427
132,66.246667235,-0.17423099165338002,-0.1861325607506,0.0976570899644
133,66.74794706,0.364528475143,0.07918910212862,0.123469176037946
134,67.249227201,0.3067757704418,-0.10449563309360001,0.1276172388532
135,67.75050737,-0.20928266055159997,-0.12043173918344,0.17148947379548002
136,68.2517876172,0.183336359517,-0.22229117456606,0.06679751766492
137,68.75306784,-0.12318845142138439,-0.08464632329079999,0.04233089514919999
138,69.2543484728,0.26807515222972517,0.0312266917854,0.19837666769079998
139,69.75061661142857,0.28886659895411226,-0.11032053124938776,0.1436524766647449
140,70.246884294,-0.21103291846159997,-0.157045409307,0.2352772869182
141,70.7481646,0.1935786266826,-0.29050915137059996,0.03760714639288001
142,71.249446249,0.023945756019163406,0.09672450046591999,-0.043910809535999996
143,71.75072909000001,0.1834614331446,0.0034419142280399996,0.258180686834
144,72.252009375,0.14901947846039998,-0.35458271020209997,0.166686894375
145,72.75328884,-0.242043496286,-0.1416107108106,0.08691324388404001
146,73.24955695020408,0.3285232953351837,0.05161271393326532,0.040958728427408164
147,73.74582500000001,0.21300409505572002,-0.049845124379580004,0.062966699378
148,74.247106358,-0.1662067740842,-0.046000500839044,0.24294117068744
149,74.74838794,0.13450465793650002,-0.187162949739,-0.009649377657120001
150,75.2496700464,-0.0749094224702,-0.01998255280448,0.027105952961058
151,75.7509533006,0.1881229919214,0.02357796678294,0.11906962370264002
152,76.2522340308,0.16251369334932,-0.24329621015800001,0.16255174518368
153,76.7535138406,-0.3416316933964,-0.08497478873522,0.04855307988720001
154,77.24978257591836,0.3782298096842408,0.07002574454806122,-0.04180776240681633
155,77.7460513,0.1225251615254,-0.011503417096399998,0.04004770131740001
156,78.2473329812,-0.16304311860160003,-0.06186369533732001,0.23943855289626
157,78.74861461,0.034913770368380004,-0.25936293806068,-0.0943276485656
158,79.2498963826,-0.06681304396374,0.1043915095619584,0.0464832929556
159,79.75117814000001,0.28856030223342,0.0643421673432,0.060318751601599996
160,80.2524599768,0.05581454389333999,-0.12066146552939999,-0.005917036072040003
161,80.75374173,-0.3283935381078,0.022684305249060004,0.1845144676156
162,81.25001125367348,0.2592469033800204,-0.05581380660357143,-0.2117792607234898
163,81.7462812002,-0.0497847233022,0.1013275774886,-0.187046942855
164,82.24756322019999,-0.0243610872022,0.027072572533620002,0.14613534424539998
165,82.7488451208,0.16490187742652002,-0.21020447254859997,0.12573994915578
166,83.25012746460001,-0.317172490077478,-0.0181280113922,0.0826002195008
167,83.75141002000001,0.30591448574434,0.13187686507878,-0.29436220544094
168,84.2526923824,0.0306321917114,0.0085825136316,-0.08390547292839999
169,84.75397484,-0.217731759809035,0.01219498860439999,0.1458543971878
170,85.25024446979592,0.08113059323383674,-0.18166579336489797,-0.054483180411673465
171,85.74651386,-0.20002486141826,0.10402689100138,-0.0412354738318
172,86.24779652080001,0.25747272664987997,0.049876760539180005,0.042381978769846
173,86.7490792806,0.1386613416062,-0.0612421639645742,0.04911292977106
174,87.250361954,-0.3493533596418,-0.022047891665644005,0.1506192578674
175,87.75164449,0.34852943254,0.0341731618874,-0.15974806462996
176,88.2529275762,-0.021490201938379996,-0.0012953448235999976,-0.097645552120426
177,88.75421088040001,-0.12682417549643998,0.015077483045459993,0.1724101533728
178,89.25048129183673,0.06791094689722449,-0.15600962311857142,-0.05814669235134694
179,89.74675176000001,-0.1989612758118,0.03479330885426,-0.0034550206178599985
180,90.248034732,0.1892513781824,0.141702706737,-0.02519228745484
181,90.74931728060001,0.079082512371,-0.15506940072288,0.0379965321132
182,91.2506008598,-0.31724473996946,-0.0189560305352,0.04536477431344
183,91.75188487999999,0.36201616106914003,0.022196542999400003,-0.10801659878518001
184,92.2531682188,-0.00048025948179999836,0.040501332445199996,-0.1294870112492
185,92.74943842,-0.21053838277020406,-0.008179764369285716,0.2638899107973469
186,93.24570920800001,0.14394490808154,-0.08807347638232,-0.09170145612418
187,93.74699287060001,-0.19290058233338,0.0721779969534,-0.08073234953366
188,94.24827680419999,0.15455180199678,0.07230465591096,0.002390779751000003
189,94.74956105999999,0.028643187356780002,-0.2352481438895,0.09321016252362
190,95.2508447788,-0.2471521019046,-0.0037250669046399957,0.041558894625
191,95.75212824,0.27920536049121997,0.12103666311364,-0.0352682911692
192,96.25341227220001,0.0828812155888,0.0016629779198400008,-0.024856914954359998
193,96.74968360000001,-0.38373232221204084,-0.07795044811714286,0.15405049358163264
194,97.2459549204,0.33292673838932,-0.0044543202778800015,-0.11914457573595999
195,97.7472394206,0.06666116099792001,0.0845598440464,-0.05121307300472
196,98.24852349119999,-0.21081307356219997,-0.007650724697999999,0.06574940200648
197,98.74980740999999,0.1155997452946,-0.19413788307525998,-0.036241200619716
198,99.25109159920001,-0.14160300408298002,0.0767514987073512,-0.023645130398400004
199,99.7523757602,0.18412425893519999,0.0813976264134,-0.0025457467187999985
200,100.25366003200001,0.1276162359126,-0.2504388079946,0.14623332690134
201,100.74993146122449,-0.3125904894116327,-0.027241329724995923,0.08314256503061225
202,101.246203224,0.36834803134460004,0.034009624949564,-0.09168832532089599
203,101.74748828,0.0846649126606,0.011100946182600005,-0.057522961542502
204,102.24877276,-0.1301367029558,-0.015241141200850001,0.20886299758478
205,102.75005724,0.10895850883319999,-0.30794273153458,0.08198646472909
206,103.25134181600001,-0.1087054231844,0.006366610768308006,0.06885713919047999
207,103.75262670000001,0.2445589992426,-0.0019385933094000008,0.06942122332839999
208,104.253911096,0.1999782991394,-0.1123752054938,0.18273935694108
209,104.75018237142856,-0.2676664555928572,-0.13570592754040817,0.20443546198346937
210,105.246454204,0.33170492097759996,-0.08870524220208001,-0.016177796191679996
211,105.74773907999999,0.16177659390006,0.014623573944,0.03722358220914
212,106.24902382,-0.06841789790160001,-0.10347790652160001,0.2868865394022
213,106.75030871999999,0.08545302914993201,-0.37674043062979995,0.1171563239358
214,107.251593548,-0.08962503224820001,-0.0390627781464,0.1737010928254
215,107.75287840200001,0.3038402955972,0.08499858759840001,0.05410234513542
216,108.25416337200001,0.17976683961248,-0.177148684894,0.20414738528686002
217,108.75043534081632,-0.34627630897014283,-0.06951088527318366,0.14796723346571428
218,109.246707682,0.40826960275040003,-0.044617241477200004,-0.14961175522102
219,109.74799304,0.130406089019272,0.038402953350372,0.043568581116199996
220,110.249278598,-0.0506751673594,-0.0929916707916,0.272293417063
221,110.75056476,0.06543956053328,-0.27415948578956,-0.0012808700306400022
222,111.25185014200001,-0.0553811942834,0.029780195798599998,0.041634403905140005
223,111.75313512000001,0.0924149479533,0.020391131187000006,-0.05405503288864
224,112.24940811428573,0.1600283001897959,-0.25201267809081634,0.22929192512959182
225,112.74568164,-0.19001616514401998,-0.010042418525539998,0.1167633697408
226,113.24696739999999,0.3568829936618,0.05671183008642,-0.0910527361916
227,113.74825286,0.04173773226844,-0.012598714159,-0.0253877559278
228,114.24953909199999,-0.09416806295180001,-0.018077277584900003,0.20424418198980798
229,114.75082574,0.1432883241206,-0.3469197319226,0.1284269385766
230,115.252112024,-0.023749459237800002,0.02488663813196,0.1075841247964
231,115.753398526,0.27956113458936,0.019538058191799993,0.08098543392566
232,116.24967198367347,0.12993979311029155,-0.29408766473163267,0.20847495648981632
233,116.74594514,-0.2240158204014,-0.0610449724268,0.14492835269861998
234,117.24723178,0.3482799179114,-0.0483988779964,-0.07714732657646
235,117.74851874,0.10384673416831999,-0.006768218520659996,0.1741666094088
236,118.24980554,-0.053122460243000005,-0.0800123641902,0.25956567152486
237,118.75109264000001,0.0452799641398,-0.28282774709520003,-0.0058615235584
238,119.25237929999999,-0.03562503749824,-0.027572123182302,0.163085311962314
239,119.75366558,0.33176047385220003,0.050460252994200004,0.07508354909454
240,120.24993959795918,0.13409315222571427,-0.26673904373040813,0.18916154886387757
241,120.74621358,-0.3065756092888,-0.09027090428264,0.19720878466146
242,121.24750060000001,0.4213724535342,0.05493863585828,-0.12258444633558
243,121.74878776,0.049126747864420006,-0.03744831884882001,0.06137014451006
244,122.25007502,-0.26855325577632,-0.2078175084432,0.253804100153508
245,122.75136242,0.28385121046756,-0.066254759885,-0.17666314870392
246,123.25264994,0.0751956461016,0.1168868868372,0.060435204890399996
247,123.75393786000001,-0.006080827418200003,0.041007377911,0.10632020335482001
248,124.2502124489796,0.038794878337591834,-0.25335989923834695,0.07315741080038775
249,124.7464871,-0.20788039424739999,-0.05095735340124,0.04629224868761999
250,125.247774706,0.2635138395414,0.165723326582,-0.11768166108456
251,125.749062182,0.053602433411,-0.09170509495414,0.10973047065159999
252,126.25034996599999,-0.2698186967122,-0.06933827961016,0.0688522771366
253,126.75163769999999,0.3458854808991,0.14168593961526,-0.10399160252066
254,127.252925642,0.0087973509743,-0.0454041215608,-0.18031019236896
255,127.754213466,-0.30401692151874005,0.05204425075802,0.20651105093442002
256,128.2504887142857,0.15026244145442857,-0.10663877032244898,-0.07348194256055102
257,128.74676398,0.029708306453659995,0.05372612697156,-0.10769289899460001
258,129.24805234,-0.0906198890872,0.0247336693892,0.14211707386692418
259,129.74934074,-0.0027653967623999963,-0.21974840586648,-0.003007764408160003
260,130.25062935399998,-0.1236824846148,-0.019722738496819995,-0.010929981401599993
261,130.75191816,0.24489242371878,0.1687441585422,0.025037173427800003
262,131.253206838,0.11073773564586001,-0.10934059879286,0.027428395264359997
263,131.7494827653061,-0.32158492619185713,-0.036585713452428566,0.05236974321306122
264,132.24575865999998,0.3034700068834,0.041457475722199995,-0.07665804061779999
265,132.7470475,0.0242482203014,0.0379669905494,0.0260267218216
266,133.248336552,-0.2552300168154,0.01822705868456,0.15040155471458
267,133.74962592,0.12298700965960001,-0.13643441583319998,-0.16093188339222
268,134.250914944,-0.07651790058045799,0.161383724175524,-0.07287559980378
269,134.752203924,0.02805446711948,0.0031028929808540025,0.0475303161198
270,135.25349315,0.135554167564,-0.2338813886104,0.17717162689074
271,135.7497693367347,-0.2649249479241429,-0.04999089157816327,0.04697509081407551
272,136.246045912,0.2942179647912,0.1586446480428,-0.12676319648329998
273,136.747335888,0.014191853294279997,-0.009440682365520002,-0.011048911506500003
274,137.24862523800002,-0.30796816192568,0.04895624666274001,0.0033748847615600003
275,137.74991442,0.20096994689540001,-0.0745167392678,-0.049914617306600004
276,138.251204024,-0.02806626468300001,0.10663517979711999,-0.1169117161045288
277,138.75249394,-0.011737528927400001,0.0210977174648,0.12357465722307999
278,139.253783452,0.08636982289616,-0.2187375242174,0.06096617691546
279,139.75005958367345,-0.20678514778430612,0.009362760714897963,-0.05158236924581632
280,140.246336476,0.172326124092362,0.10927180781108,-0.053454204162079993
281,140.7476264,0.12852866864079998,-0.103446236892388,0.001112667099200001
282,141.248916288,-0.34112533610762,0.00574682834399361,0.10015299096659999
283,141.7502065,0.380351866633,0.07542118335435999,-0.12270198236023999
284,142.2514969,-0.047285039426400007,0.046047664149999994,-0.0955942373708
285,142.75278906,-0.204575258648,-0.0106620540581136,0.19641560497034
286,143.254078832,0.062824943472076,-0.23041114184925998,-0.04144907529908
287,143.75035420408165,-0.13335320399163267,0.11680592601348162,-0.06438467590346938
288,144.246631402,0.19255881622353999,0.06099732827340001,0.048492413381528
289,144.74792108,0.1304169728602,-0.1598689799118,0.09574556128088
290,145.249211376,-0.3542525737722,-0.03845630673794,0.1268460839782
291,145.75050208000002,0.36094593495280003,0.08645103167770399,-0.2188000664856
292,146.251792372,-0.05447459565582,0.04369870271622,-0.0551238276625
293,146.75308248,-0.18808858787706,0.037787589984640005,0.20443412565536
294,147.24936000204082,0.14278990303816325,-0.18240818538710205,-0.1355082259634694
295,147.7456379,-0.08103252456108001,0.12130190199857999,-0.023252362191999998
296,148.246928244,0.1352951133204,0.05887639538586,0.004327162289759998
297,148.74821828,0.08771051446113999,-0.21483966180590003,0.04326057586198
298,149.249508778,-0.30625247855326,0.052847454775279995,-0.0451193758886
299,149.75079974599998,0.3004755342895,-0.009509019441260001,-0.025981969247200004
300,150.252090084,0.07748847343479999,-7.341498138000002e-05,-0.079614686961632
301,150.75338019999998,-0.1712185747134,-0.01971324103244,0.2716191866474
302,151.24965765510203,0.12338009210469388,-0.11872427547369387,-0.06203191039142857
303,151.7459356,-0.06992218894806,0.102223463879,-0.1343543254592
304,152.247225872,0.12540213057224,-0.0386097030478,0.13179697417888
305,152.74851546,0.09502039142206,-0.2497117276398,0.19741459676784
306,153.249805834,-0.2068321308522,-0.11175442740239999,0.07417119130119999
307,153.75109622,0.29629425179200003,0.0720882176924,-0.05833753178099999
308,154.25238663,0.15482599087260002,-0.08418675373991999,0.09841163693962
309,154.7536774,-0.2100686508556,-0.10532629292168,0.2929086702302
310,155.2499547857143,0.36956961892959184,-0.10389259938383674,-0.05112122348736735
311,155.746232288,0.06430082480022,-0.0599340261132,0.1348554687816
312,156.24752249,-0.0536024343646,-0.09155630638984,0.209671820414194
313,156.74881208,0.1473607758072,-0.24432454601184003,0.051915880045760004
314,157.250102456,0.0127074216678,-0.053275699023800006,0.19132770716834
315,157.75139302,0.25589876607400003,0.009835946707999997,0.07208660540696
316,158.252683344,0.1320866439548,-0.234096344599,0.1444232338698
317,158.75397426,-0.17419418745188,-0.2527311444312,0.27867218242592
318,159.25025145306122,0.5509334685536734,-0.07655842172489796,0.052388534117489796
319,159.74652846,0.2173212006658,-0.15767482237798,0.316568433495
320,160.247818688,-0.03184849048322,-0.2258706239274,0.3958272110696
321,160.74910921999998,0.31985562490756,-0.28647176200116,0.16031425414622
322,161.250399556,0.33132780547240004,-0.0519548526732,0.2664786699473
323,161.7516913,0.0461200687386,-0.33742784634061995,0.526671307528236
324,162.252981128,0.218970595725696,-0.3529547536419,0.1522113894676
325,162.75426950000002,0.1366836921116,0.0586048489355,0.14499516703404
326,163.25054661836734,0.16061113510910904,-0.08308867966959184,0.27423169636157146
327,163.74682376,0.19412929345160002,-0.29158454494546,0.1908677119768
328,164.24811381,-0.1565716473762,-0.1810634446246,0.0989075315714
329,164.7494039,0.22545809415777998,0.08074436906780001,-0.0299776107278
330,165.25069382,0.20013205467158,-0.16369534017482,0.1931136753792
331,165.7519831,-0.2553275313268,-0.0290246794366,0.24819092235919998
332,166.253273112,0.38725413949,-0.03773741587384,-0.1273043811474
333,166.74955063265307,-0.017124202388653063,0.01383890978387755,-0.055395576704693875
334,167.24582769,-0.133206599946,-0.049048945255599996,0.23919584699080002
335,167.7471176,0.10361586565179999,-0.056997506673899995,-0.10652257449668
336,168.24840758,-0.16025641961485998,-0.0010875504095999976,-0.0299875730342
337,168.74969732000002,0.1599802358762,0.0778913061178874,0.0396216162334
338,169.25098709999997,0.11049009989532,-0.20874287323944,0.145166882221604
339,169.75227686,-0.19332230981394002,-0.05994768472136001,0.0881977235868
340,170.25356664999998,0.1598293412504,0.07206470594788,-0.11039608535357999
341,170.7498440367347,0.1651458103165306,-0.11099419427318367,0.13649668507779592
342,171.246120656,-0.3237698377394,0.025701703532279997,-0.0801087794844
343,171.74740948,0.25134644323658,0.059370230065599994,-0.0298597423544
344,172.24869909,0.059716325407980005,-0.0163562674227,-0.04321637592108
345,172.74998878,-0.20089566608763998,-0.010524674574719999,0.106942025868
346,173.2512785,0.24185041555647602,0.01183228473616,-0.022434301117100004
347,173.75256856,0.0643756455572,-0.015735478557132,-0.11713866132648
348,174.25385827,-0.227578780795,-0.07159920864,0.14550993345750002
349,174.7501350653061,0.23350067572922448,0.004235014890204081,-0.030212581337387752
350,175.246412036,0.0033772571166,-0.13569770055616,0.09753569799616
351,175.7477021,-0.21643504372900002,-0.048692166133859995,0.19928220867899998
352,176.24899208399998,0.25856081423254,0.0729550440816,-0.11707502065499399
353,176.75028193999998,0.0308577962984,0.036769222339239994,-0.11957781685586
354,177.25157209199998,-0.34120353773140005,0.03350314604422,0.0370448733466
355,177.752862144,0.227551703414,0.057811259216619997,-0.18801793664199998
356,178.254152324,-0.100974198528322,0.048218473193999994,-0.06314822695820001
357,178.7504295612245,-0.1867578183212245,-0.032336607872653064,0.07997625301628572
358,179.246706992,0.08295302241046,-0.11188768395828,-0.0488648007807
359,179.74799776,-0.02905519172338,0.220948994667,-0.12652802657262
360,180.249288204,-0.007768649965199996,0.0454471056864,0.09356509095328
361,180.75057848,0.08175285267002,-0.13959266893400002,0.0044308764669600004
362,181.25186912,-0.300957053677,0.020179962684465997,0.08585370178062
363,181.7531602,0.27051594668914,0.1408690633962,-0.1889625110851
364,182.24943798367346,0.06186457154383674,-0.0788855017489796,-0.0485668251955102
365,182.74571568,-0.273186077138398,-0.001816452675600006,0.1554587271842
366,183.247006462,0.2565528903936,0.003613254167200004,-0.1374392104664
367,183.74829706399998,-0.0027243146646799975,0.12728738517176,-0.1249768131052
368,184.24958797600002,-0.20374680220123997,-0.013682729948340001,0.15107000815214
369,184.75087846,0.0516277313644,-0.2096214097356,-0.17777177605360003
370,185.25216960400002,-0.14771046844326002,0.116812401791,-0.0244153650848
371,185.75346140000002,0.07305385642234,0.1374987106694,0.04758075034812
372,186.24973965918366,0.12259381484571429,-0.19193995945367348,-0.11276966585636938
373,186.74601802,-0.28152124899464,0.08365111418059999,0.18851349081479998
374,187.24730910999997,0.17402564776826002,0.09846933450184,-0.15638602404898
375,187.74859988,0.08728748105159999,0.04458164202276001,-0.11374374481414
376,188.24989117,-0.348325932622,0.0757916508654,0.018363283278260006
377,188.75118292,0.10666137320826,-0.0825999665838,-0.19944233145832002
378,189.252474154,-0.08608174255349199,0.22906053760557998,-0.21598253877878001
379,189.75376534,-0.07256085107139999,0.05065543209192,0.07070046715542
380,190.25004375510204,-0.062448510727367346,-0.09743970535389591,-0.10307300433112244
381,190.7463221,-0.1530116686466,0.1956510841794,-0.21639283777846
382,191.247613408,-0.0175160716842,0.23571383058168,-0.12842514612898
383,191.74890404,0.025655087470500004,-0.12340191697731999,-0.076916265911676
384,192.250195452,-0.25244025798586,0.1261659792008,-0.1750219321996
385,192.75148716,0.11848607637160001,0.21070485473005998,-0.02057066755298
386,193.252778692,0.1158419872812,-0.014926553190120005,-0.18279889044
387,193.75407044,-0.35900165753262003,0.07417177602540001,0.03910765839566
388,194.25034916326533,0.14011303426763264,-0.031376831293979585,-0.10214181194571428
389,194.74662772,0.007737490627499999,0.13342738759161998,-0.2236080978436
390,195.247919404,-0.224376482907852,0.12169694011561999,0.009201048612399999
391,195.74921117999997,0.0425008226162,-0.1414223537015,-0.14559119560912198
392,196.250502848,-0.07394435679602801,0.1314296166212,0.0784288456445
393,196.75179484,-0.007965925058059991,0.0972296762854,-0.06722163397924
394,197.253086548,0.034599928532979995,-0.146068346277,-0.04282498275368
395,197.74936559387754,-0.265776516090449,0.056235270702857144,-0.0532274002922449
396,198.24564442399998,0.20243671523508,0.2601105657626,-0.05709867765224
397,198.74693634,-0.014344970377499999,-0.16500827165554,-0.1681140413912
398,199.248228148,-0.430596845328284,0.1401392812706,-0.0232144108336
399,199.74951924,0.1914216447582,0.25790484990926,-0.16055883742740001
400,200.250811168,-0.059549562146939995,0.07249264176406,-0.29114304315760003
401,200.75210374,-0.4424554662366,0.13182066115122,-0.03210936192208
402,201.253395676,0.13852706404254,0.1419858210918,-0.22350307214985998
403,201.7496750755102,-0.018771308555483673,0.1569502881335551,-0.24765280079346938
404,202.24595405,-0.314749410969672,0.1626573180584,-0.10824654939600001
405,202.74724544,-0.06924842241658,-0.0565079872246,-0.0774030790739
406,203.248537358,0.1382975629366,0.226370100466,-0.1001423906253
407,203.749829202,-0.17437919207180003,0.005835534294600003,-0.018190542178640003
408,204.251121168,0.03759402229214,-0.02590194343454,-0.1513152985474
409,204.75241372,-0.08081947814688001,0.1733333375304,-0.27767202097862
410,205.25370568,-0.1537089754658,0.04131853716418,0.12375439151604001
411,205.74998376938774,0.041585488455436734,-0.0848670788219796,-0.10644754954344898
412,206.246262906,-0.14010918398799999,0.2181188106574,-0.2960415243746
413,206.74755516000002,-0.09712339656838001,0.12077281601288,-0.06601245660712
414,207.248847194,0.05230774416108,-0.11829583934014,-0.05871496313852
415,207.75013891999998,-0.26152001418268,0.13214195570596002,-0.15614220060348
416,208.251430922,0.02506049324213,0.16827560233862,-0.18304198811642
417,208.75272398,0.15249572253408,-0.0611273228386,0.06191791271546
418,209.254015926,-0.32472282337773994,0.10257994717400001,-0.0427430484544
419,209.75029425510206,0.27898281353726534,0.07816624656953265,-0.12049340877893878
420,210.246573306,-0.08156808095039998,0.046246084713600005,-0.1289880612899
421,210.74786542,-0.231918151978,0.047020569953419994,0.09656813263964001
422,211.24915733400002,0.18041492732162,-0.09157537911366,-0.12747122854334
423,211.75044898,-0.11901843932846001,0.1077487296308,-0.023991345469559996
424,212.25174087399998,0.0322827889764,-0.021469339615599995,0.0009917416929999976
425,212.75303344,0.1522115714646,-0.23528035767016997,0.16236715231412
426,213.254325326,-0.234613303203,0.039389502972,0.051004197365599996
427,213.75060355918367,0.25111101612165304,0.10808519756489796,-0.13837205952414286
428,214.24688254,0.0615499683138,-0.06947277385624,0.008324063362638
429,214.74817424,-0.28846972944308,-0.02053406837016,0.1560311893338
430,215.24946604000002,0.2923440230544,-0.021929852766799998,-0.11318620337212
431,215.75075791999998,-0.06073888460366,0.07995651625040001,-0.10847525170359999
432,216.25204974,-0.10931524470519999,0.0126282826414,0.14547404650358
433,216.75334139999998,0.13760746328394,-0.19325120791854,0.03489167718712
434,217.24962025510203,-0.22715970511918365,-0.03699337412122449,0.02441652168669388
435,217.745899286,0.1361633631568,0.1588537912048,-0.0795775442128
436,218.247191026,0.1507468946211,-0.09525561401844,-0.0005023386731339996
437,218.74848310000002,-0.29222370773899997,0.04377692354328001,0.061548646910200004
438,219.24977478,0.20957105740786003,-0.05294208852582001,-0.1033944356495
439,219.75106631999998,0.040943190298799996,0.1178706626246,-0.11398107676880001
440,220.252358,-0.0395156282268,-0.006335395135187998,0.18002395359187598
441,220.75364957999997,0.0815152127122,-0.2263217371149,0.052929391074974
442,221.24992828775513,-0.25286678911734695,-0.016936626359999995,-0.023051434792
443,221.74620701799998,0.2449966706444,0.1267631804016,-0.04426158187774
444,222.24749867999998,0.07157517073976,-0.043414596893808,-0.060962711228720004
445,222.74879016,-0.3098900502554,0.020205140361880005,0.16590106389066603
446,223.25008183999998,0.2209598524694,-0.023863356059560005,-0.08422289570593999
447,223.75137331999997,-0.024748409923099998,0.09441996881895999,-0.04513057073342
448,224.2526649,-0.09300702275079999,0.0125181143368,0.1137339007896
449,224.75395618,0.12513003544626,-0.18429666868258,-0.017720153144999997
450,225.25023478163266,-0.2429635480901633,0.023483724230734693,-0.09767301226759184
451,225.746513914,0.0959590910334,0.08526369089796,-0.0267961376316
452,226.247805402,0.1818858540786,0.006894351938960002,-0.067674207727596
453,226.749096724,-0.3271807944742,0.05119067803183999,0.007769446224940002
454,227.25038818000002,0.16298691321188002,-0.009956863932312,-0.015490546021799998
455,227.75167921,-0.0143698450944,0.09632014848440001,-0.1278550106155
456,228.25297063999997,-0.14321576071492,0.04224125470202,0.059435880741744
457,228.754262022,0.0284785810813,-0.1195940662682,-0.137328272707882
458,229.25054052244897,-0.18039063694959184,0.13738289209408164,-0.07241812139612246
459,229.746819374,0.11414213992660001,0.09392551622332,0.0217267302346
460,230.248110806,0.0943258674444,-0.178496719187622,-0.055137627869800004
461,230.749402848,-0.30237307727064,0.20104775370088,0.02915085621612001
462,231.25069424,0.14417468909208,0.17953830122279998,-0.18715694126264001
463,231.75198506,-0.08959568144094,0.05550108326652001,-0.282545305992464
464,232.253276466,-0.41230484723832,0.2087724579059,-0.15491312202174
465,232.7495542959184,0.14902047060285714,0.1154146314827347,-0.2657411931162449
466,233.24583277999997,-0.07501345569242,0.0548256576042,-0.1739869968982
467,233.747125004,-0.2868705295042,0.15693959003511762,-0.078786796070456
468,234.24841636000002,0.06831999530736,-0.027886726694851996,-0.024786917463
469,234.74970724,-0.020299760453999997,0.1468289793272,-0.2275604406358
470,235.25099854,-0.16070096540484802,0.1180021070644,0.008478915428559998
471,235.752290534,0.03168321943666,-0.1873090431698,-0.038080624900368
472,236.253581906,-0.17697109145679998,0.187140335647,-0.1045864213212
473,236.74986002857145,0.12366352453067347,0.18292973163755102,-0.10040614244122448
474,237.24613850000003,0.0590184622762,-0.15649685704928,-0.09406478910826
475,237.74742984,-0.32107615995011995,0.033913220423739995,0.07878250302822
476,238.24872126,0.24046037740182002,0.16059670617392002,-0.17032101586282
477,238.750012776,-0.0035626626212739974,-0.050775229074099995,-0.08710364728276
478,239.25130420000002,-0.3066300671838,0.049712121704599994,0.115092880429
479,239.75259562,0.2645023381742,0.06866794496146,-0.07165438760922
480,240.25388708,-0.0073630560710199995,-0.0617233721763,-0.1573850527242
481,240.7501657142857,-0.2570036589492204,0.050259597217142855,0.05389567750061224
482,241.24644434,0.14672204376876,0.0839518252018,-0.09365199151516
483,241.74773563,-0.05490861345458001,0.023652623672,-0.1831646848712408
484,242.24902716,-0.2743153549638,0.07476505096768,0.015433053974399997
485,242.750318262,0.09695481274558,0.06446237676122,-0.1398193125854
486,243.251609524,0.011781543326200003,0.12101756619569999,-0.1346137997144
487,243.752901376,-0.2325021150672,0.10263266690398,-0.07030379817273999
488,244.25419266,0.0105279010515,0.058334330691599996,-0.21576878528920002
489,244.7504711,-0.14637172290366735,0.132963074767,-0.05660513096638776
490,245.2467495,-0.20282469010829998,0.24321991372662002,-0.2016492089214
491,245.748040464,-0.003977425056700001,-0.0460463476713,-0.24810641681886
492,246.24933182,-0.1330423008642,0.2112324799767,0.04383428103758
493,246.75062373,-0.114798549381926,0.09783143142114,-0.20674955684898
494,247.25191518,0.0492396761084,-0.06455166978400001,-0.20016848366093998
495,247.753206746,-0.180603597524198,0.18824288010674,-0.032876975689744
496,248.24948549183674,0.11090559125367348,0.142887448726,-0.06645289158536734
497,248.74576437200002,-0.002812484948200006,-0.15224044071994,-0.0522559220669
498,249.24705622000002,-0.41293710825806,0.06430722228754,-0.10306504443299999
499,249.74834731399997,0.2892429565664,0.20650167662056,-0.1457971907954
500,250.24963928,0.0781172772105,0.006809232581999997,-0.1165171556156
501,250.75093252800002,-0.31572387200838,0.02697033537646,0.07171945307308
502,251.25222482,0.11468766273946,-0.050551752004506005,-0.18813991505379998
503,251.753516838,0.002422668934600001,0.099631524191054,-0.06269338731058
504,252.24979630612248,-0.07261317451932653,0.02502066411506122,0.09487921201087755
505,252.746075052,0.056362083105979996,-0.1742448418196,-0.0206191578902
506,253.24736764000002,-0.2459098781558,-0.0525936834862,0.07599979815209999
507,253.74866091200002,0.19534174265289997,0.19984240574456,-0.15464182323254
508,254.24995378,0.137787375663482,-0.05445706747839999,0.03353232911792
509,254.751246636,-0.263440067630556,-0.014464476612600006,0.11899583213244
510,255.25253966,0.17235192235348,-0.06579029047814,-0.0631128434677
511,255.75383299199999,-0.026702026739439996,0.10601707746974,-0.1203145670154
512,256.25011339591833,0.0076897886351020486,0.07525290365918368,0.07880897212683673
513,256.746393952,0.10132000032519999,-0.242949109088118,0.070557661653
514,257.24768758,-0.27841373035579997,-0.07001602336703999,0.035684502272
515,257.748981244,0.245632384193,0.13649971572676,-0.15589607346326
516,258.250275088,0.1572996340698,-0.008163889978400006,0.0029977361162000006
517,258.751568856,-0.2640900471595,0.008346476603800007,0.1515476468594
518,259.25286288,0.10667072773094001,-0.062144127343599996,-0.06469745967099999
519,259.7541575,-0.1461395555306,0.0011160218535999978,-0.019391504400059996
520,260.2504388367347,0.19006224687857143,0.12062796524510204,-0.014836166645673471
521,260.74672039,0.11114980846276,-0.20511064012766,0.0606434395602
522,261.24801486,-0.3405558006196,0.081032939785,0.093403194769
523,261.74930916,0.30008716881468,-0.0835218849276,-0.19573053304205998
524,262.25060388,0.009029109443380003,0.1013136394506,-0.049836776847
525,262.751898832,-0.1478587001115,0.035558672109999995,0.12703912984725
526,263.25319384,0.08172467563508,-0.22266748413919998,0.0802076488728
527,263.7494756163265,-0.1978079714278367,-0.021982317841836733,-0.01284528714895919
528,264.24575786,0.3089595519026,0.184823758916,-0.19929652495195999
529,264.74705338,0.067410439257,-0.018055433936199995,0.054983369174499995
530,265.24834876,-0.29238537156868,0.02386940988100001,0.0841215998396
531,265.74964479,0.11921636815879999,-0.1469968931026,-0.0700494231318
532,266.25094042,-0.08301482618308001,0.1006751394646,-0.04321739012609999
533,266.75223564,0.10525899902096,0.04691531222562,-0.0032327727770000004
534,267.25353142,0.13308725023816,-0.19777240898262,0.05799508678509999
535,267.74981502857145,-0.3592921367664898,0.04093086446285715,0.04718571429530612
536,268.246098168,0.2386797023572,-0.03244123826686,-0.10531193010618001
537,268.747393596,0.104745736457954,0.11946869355140001,-0.13136349069210002
538,269.24868968,-0.18046720068799998,0.004266506662275998,0.20519111152640002
539,269.749986134,0.023579878333979995,-0.2131317798722,-0.101081355605646
540,270.25128248199997,-0.12130332825722,-0.0321945045284,0.068195746874
541,270.75257881,0.23345189966393998,0.206201543968,-0.03234781866714
542,271.2538752,0.17107961576,-0.1237625955008,0.06489802117874001
543,271.75015869387755,-0.33336513237965304,0.02112246856122653,0.19718876333673466
544,272.24644224,0.23188352981558003,-0.03024991053246,-0.22335845485774
545,272.747739098,-0.10394879889085999,0.0713451354608,-0.09748564337179999
546,273.249035824,-0.03737986300117999,0.05043971906556,0.0343603451658
547,273.75033256800003,0.19535519180752,-0.17114214278374,0.16396966189429998
548,274.25162938,-0.395634309884306,0.010348468564140002,0.028777539618
549,274.752925936,0.2945184095972,0.09384710122,-0.1207336078152
550,275.2542228,0.027991661170305805,0.018100742537004,-0.24000367797864
551,275.7505068142857,-0.20480022543138776,0.09628179307238777,0.13738822588557142
552,276.24679078,0.054016646879856,-0.15653688537264,-0.04352282065092
553,276.74808785,-0.11752269760859999,0.154990378689,-0.058356839978379996
554,277.249384866,0.1432572767136,-0.041794072466000004,0.07680499293040001
555,277.750682204,0.14465146870502,-0.19573035485982002,0.1142328265075
556,278.25197932,-0.34199012862525996,0.08069514720454,-0.0038097437152000025
557,278.753275912,0.21888911948419998,0.078713948418,0.02491610334596
558,279.24956003265305,0.06639519942265307,0.06038030717738776,-0.17143299769008163
559,279.74584469,-0.29412493535518,0.044443737270600005,0.007605582842559999
560,280.24714198000004,-0.001295483600199998,0.08009868971477495,-0.1862174547106
561,280.748438836,-0.04977403814700001,0.2257791853701,-0.31520701444798
562,281.24973608,-0.11418085619380001,0.1685326290858,-0.014201264718800002
563,281.75103338,-0.06361878905888001,-0.04313136670832,-0.25112074848538
564,282.25233064,-0.285960088703,0.162910942572,-0.11342989541814001
565,282.753628102,0.051951821522,0.254298105475,-0.14640158315340002
566,283.24991247755105,-0.005888209058048982,-0.12869419076918368,-0.15356980021365305
567,283.746197316,-0.37004115765698004,0.15595680049634,0.024873897654199995
568,284.24749476,0.11354518415993999,0.2914688922866,-0.38225216736753603
569,284.748791578,0.057229261812,0.07637602106225999,-0.21531034443340002
570,285.25008882000003,-0.391802073197,0.076459161342,-0.12902951995108
571,285.751386498,0.26168249640524,0.1380036458,-0.11127121789293999
572,286.25268394,0.035721940847600005,-0.031163921124199998,-0.1097223790534
573,286.753981254,-0.2781780159594,0.045764573552999996,0.09682968880637599
574,287.25026569795915,0.12063931941728571,-0.0004222808599262356,-0.20061238129483672
575,287.746549796,-0.01379449689766,0.0726612431156,-0.03239192399982
576,288.24784722,-0.135702242874712,0.03680198049780001,0.10244363020564
577,288.749144838,0.10344347955861999,-0.16030292100979998,-0.01971636719906
578,289.25044244000003,-0.1441099232378,0.03473067877673999,-0.029462905396841998
579,289.75173939399997,0.0882216344774,0.11633203082,-0.013592884115679998
580,290.253036846,-0.03427909281474,-0.12753659773759998,-0.10742300255882001
581,290.754335164,-0.2512544281788,0.1017136431786,0.002174939141
582,291.25061985510206,0.1137729786815102,0.13566938743804693,0.021767703315510204
583,291.74690423600003,0.028079290299399998,-0.1853279073204,-0.20177919853854
584,292.24820186,-0.2663819759536,0.1751538265504,0.041570043577736
585,292.749499176,0.1864387664714,0.13081520436321,-0.03675058793112
586,293.25079676,-0.04864017024432,0.0450354702028,-0.2865720102936
587,293.7520942,-0.2999724417192,0.17036126184362,-0.11518622909388
588,294.25339176,0.08854157231160001,0.1564041517711054,-0.20771081552416
589,294.7496757714286,-0.012940487315714287,0.032836890377918364,-0.12139843590669387
590,295.2459603,-0.3475753691,0.11518620975332,-0.09852117539352
591,295.747258224,0.0984428922419,0.10396777830616,-0.16727947528089998
592,296.24855592,0.020394682351440006,0.12239608838275999,-0.1789387903312
593,296.749852916,-0.408350097012,0.068028887655,-0.04464088002286
594,297.25115038,0.1328591409698,0.057096801724262,-0.250518112163014
595,297.752448004,-0.04512259125884,0.20496790971380002,-0.14778268949014
596,298.25374554,-0.20082026343502002,-0.00018776595140000075,0.03274610337626
597,298.75003053061226,0.07195680717591837,-0.03650081080918367,-0.21748893772693878
598,299.24631508,-0.152471614041,0.17869641443749998,-0.162299853823
599,299.747612726,0.020389744345199995,0.053739447037219994,0.013299102076619997
600,300.24891024600004,0.048268152629400006,-0.10737878211752,-0.09145273974346001
601,300.75020747400004,-0.26500660588898,-0.025088444677455995,0.030638767767454
602,301.25150487999997,0.183824716639176,0.12448722121006,0.0286178020964
603,301.752801984,0.16342791445420002,-0.1601602230196,0.025546398463872
604,302.25409940000003,-0.357746985283,0.0323418273472,0.07658891408564
605,302.75038382653065,0.3349137396803265,0.0497995839902653,-0.17104945693928572
606,303.2466684,-0.006978727447400003,0.0026224842401200033,-0.10356653615900001
607,303.74796569800003,-0.19914382800439998,0.022224008934200002,0.192866937087902
608,304.2492632,0.071068774147512,-0.17990841400548,-0.029074851279200002
609,304.750560642,-0.1317210938418,0.0269261800516,0.00027458066164000485
610,305.25185822,0.1754431805031,0.10153462089818,-0.004841662925500001
611,305.75315562,0.0659722773786,-0.0999030514026,0.0240342740519
612,306.24944015306124,-0.2858541156769796,0.06875246951979593,0.013756896693816328
613,306.74572498000003,0.1833787240802,0.002505255244800003,-0.07250968006372
614,307.24702258,-0.1046539747784,0.0493044088738,-0.08994530891319
615,307.748319798,0.1243658566243,-0.011426707560200004,0.005901798529799998
616,308.249617204,0.11765500831041599,-0.18078167185000002,0.12864859273787999
617,308.750914516,-0.26131487886759996,0.08732761010380001,0.08640494791492
618,309.25221192000004,0.21460393210882,-0.0427747073966,-0.107992932513054
619,309.753509768,-0.0568569455006,0.06324215326124,-0.149726489003
620,310.24979430816325,-0.038101471467591845,0.045789966051428564,0.14867034465806653
621,310.7460786,0.12315137894488,-0.23628702082619998,-0.016958457817219996
622,311.24737600000003,-0.302072503241,-0.004321588680379995,0.0674540267199426
623,311.748674004,0.3205552454359,0.040332971066810004,0.004378444219200001
624,312.249971544,0.09584080629172,0.07008191433305999,-0.1361349090904
625,312.751268704,-0.21910447979702,0.0334647113032,0.1436422772874
626,313.252566066,0.0440102204726,-0.154457862674,-0.0479704982062
627,313.75386339600004,-0.18696666083219998,-0.021470454049000002,0.0421806780646
628,314.2501478693878,0.2185146947272449,0.10751032668210203,-0.0864380953487755
629,314.74643262,0.14858663911811,-0.13342425369004,0.067566305193778
630,315.24773032,-0.25658587188938,0.022713693910799998,0.064919238909
631,315.74902782000004,0.2758972818032,0.045597883878600004,-0.16945193611194
632,316.25032548,-0.14800175107958,0.11010717153727999,-0.12719508904777999
633,316.75162334,-0.0738721843804,-0.011652802732,0.14698946580458
634,317.25292096,0.06495276261532,-0.21562808841380002,0.06291333438749999
635,317.754218524,-0.2845030424064,0.11459566861680001,0.004101856729199996
636,318.2505030510204,0.2985423625379592,0.1315217899007755,-0.05963562191222449
637,318.746787682,0.07316264051874,-0.034371967550740005,-0.27665614493109997
638,319.24808536,-0.2357401128118,0.03828632021318001,0.23784297765866
639,319.749382654,0.11812260487878,-0.2331255898398,0.03631591401538001
640,320.25068024200004,-0.1417232951476,0.0895145740176,-0.00653628704016
641,320.75197887999997,0.14948420632401999,0.0480922173736,-0.091541155502
642,321.25327672,0.1015336207348,-0.037765140634719994,0.022079486992999997
643,321.7495611244898,-0.3464666316631224,-0.01718818350548979,0.14935219135857142
644,322.24584578,0.2646393693176,0.031694410661000004,-0.14757677305524
645,322.74714397,-0.115064588608,0.0614094949498,-0.2519490613596
646,323.24844168,-0.08293267801479999,0.038046404648,0.20776921253147201
647,323.74973866,0.09014082909783999,-0.229604950548314,-0.01510443152916
648,324.25103618,-0.17624495413360003,-0.0021822531894600036,0.07744469575480001
649,324.75233427,0.1282251814406,-0.025736962220279994,-0.10189595541023401
650,325.25363216,0.20592045458458,0.035176420372080006,0.031216071773399995
651,325.74991690408166,-0.3032765992159184,0.18377569141585715,-0.08308160371510204
652,326.2462017,0.0922329727816,-0.079063730046,0.0146902325894
653,326.747500048,-0.03258051834214,0.116762172412,-0.174989570679
654,327.24879799999997,-0.0345285099784,0.05116629398592,0.03745530271256001
655,327.75009578,0.08643392431800001,-0.1819822354644,0.023010496241800002
656,328.25139368,-0.26820257049106,0.07211454521720001,0.05619470223760001
657,328.75269144600003,0.13066887851702,0.03590510722184001,-0.0645470569848
658,329.253989344,0.0907850234954,0.0019217154389999957,-0.0428784179877
659,329.75027382040815,-0.39623505741489795,0.19786682808306122,-0.03963558071308163
660,330.24655866,0.18010892994980002,0.10841704891679999,-0.250455901256164
661,330.74785679599995,-0.1227666402006,0.12766656865874,-0.2787253196196
662,331.24915488,-0.2573248979518,0.19189712453435998,-0.10476813938019999
663,331.75045313199996,0.0317857100962,0.056243572497,-0.31631162117842
664,332.25175132,-0.13910420816144,0.21529274758046,-0.08809787979448
665,332.753049128,-0.10953439353894,0.1190280350372,-0.18890198711540002
666,333.25434717999997,0.036346741706219994,-0.14238120157380002,0.005805891444514
667,333.7506326163265,-0.22682130934261227,0.1315663360724694,-0.16047205425979594
668,334.24691789999997,0.101365757779,0.1169512989367,0.008158252871080001
669,334.74821658,-0.012025598751940004,-0.10982319589324,-0.15665013841552
670,335.249515044,-0.30434398119368,0.120969888665836,0.004166521772999999
671,335.750813062,0.29003895836106003,0.17347254571316,-0.15843950646670002
672,336.25211126,-0.0461940692536,0.014750811307499999,-0.21222574543019998
673,336.753409588,-0.27084928609660003,0.0958993754578,0.0668280838818
674,337.2496950102041,0.155856953532449,-0.10978990306612245,-0.10642298242032654
675,337.745981024,-0.04379251761221999,0.1403263830602,-0.06219612006368
676,338.24727966,-0.09034621599579999,-0.0012370213413999975,0.05941104986
677,338.748577944,0.031951732604400006,-0.083625913567,-0.06524211109024
678,339.2498764,-0.1685468310864,0.1102741269366,-0.03940489055212
679,339.751175044,0.016716136010933996,0.095788571303428,0.006411546529519999
680,340.25247386,0.023724330065699996,-0.11934320901510001,-0.1219179900654
681,340.753773288,-0.21619855370792,0.1216038182376,-0.003621311374220002
682,341.25005936326534,0.10409590391116327,0.20911733916130612,-0.14425427168142857
683,341.746344562,0.026280280127800003,-0.1314380122727,-0.09911654153980001
684,342.24764322000004,-0.3749133335426,0.13220940411664,-0.09614813579398
685,342.74894247,0.15727776472576,0.25831434348925997,-0.18468657094148
686,343.25024144,-0.010556152828000003,-0.0521065375224,-0.1589409905259
687,343.75153987199997,-0.45917292684406,0.16302397291922802,-0.0570140163626
688,344.252838702,0.20408764601466,0.23470929495739998,-0.2622046289616
689,344.754138436,-0.0469905154424,0.03759344353836,-0.24226253055299998
690,345.2504248,-0.4189565154369388,0.08614293624610204,-0.0233813443484898
691,345.746711348,0.1832726646976,0.1259304977986,-0.18305969316043602
692,346.24801099999996,-0.013124430362019998,0.0683751089902,-0.1640705084642
693,346.74931031799997,-0.327211581412,0.03620794661006,0.005576157835260003
694,347.2506097,0.11078632376856,0.042522747942340004,-0.1597122488922
695,347.751910144,-0.04476929521294,0.1510116845394,-0.2482256549026
696,348.2532103,-0.13316981839394,0.06255374114718,0.08389866138060001
697,348.74949663877555,0.06523843254967347,-0.1767644700022245,-0.05361103294497959
698,349.24578418,-0.19389206072286,0.09939182557265999,0.017542474788000004
699,349.747084616,0.1373727463754,0.17412603460876,-0.0845012633468
700,350.24838564,0.08919854733799999,-0.10963127704114001,-0.03953655350338
701,350.749685952,-0.3353119985916,0.013758267988200004,0.11494401300162
702,351.25098656,0.29588653871007997,0.040432153699119996,-0.14364529541144
703,351.75228801799994,0.053284414663419995,0.061813922562599995,-0.14179943939776
704,352.25358914,-0.26881124568160003,0.06200463333372001,0.16174320094080002
705,352.74987720408166,0.021142682023469386,-0.22952190414040816,-0.13688048109294898
706,353.24616534,-0.017927092297253998,0.1515017064218,-0.030909414258800002
707,353.74746625200004,0.04457494096812001,0.0556624968902,-0.013019465354800001
708,354.24876751999994,0.1919016495388,-0.2334325567726,0.081016338774184
709,354.75006936799997,-0.3109567084356,0.04064526210700001,0.050730189733980004
710,355.25137115999996,0.29345514514956,-0.013210742349200002,-0.07117063100194
711,355.752672992,0.048007094158399995,0.028615002378800002,-0.10243373778442001
712,356.2539749,-0.072990234548,0.104669111906,0.15169395525958002
713,356.7502638653061,0.090251728897,-0.2556635816102041,0.11515050697022448
714,357.24655290000004,-0.30343038643042,-0.03634947542620001,0.06792168858139999
715,357.74785498,0.33079886123720004,0.119973148258161,-0.2824643267334
716,358.24915708000003,0.034067236224200007,0.0797522795298,-0.0221865199354
717,358.750459136,-0.2087008899506,-0.022973123796199993,0.1598878938121
718,359.25176128,0.056677554804799996,-0.27496200632154,-0.011365152260400002
719,359.75306370799996,-0.20382719594659998,0.09428813010869201,-0.10298855058399999
720,360.24935306326535,0.2503650646097143,0.09621089735580408,-0.07850075132044898
721,360.74564244,0.0189488968356,0.08822618282120001,0.004731921982339999
722,361.246945,-0.019173083433200004,0.03214281610120001,-0.017081914869999992
723,361.74824828,0.18011350396726,-0.1672520132746,0.17757057747219998
724,362.24955144,-0.29723373677534,-0.005136280801000002,-0.048016754570540006
725,362.75085440000004,0.17248125644759998,-0.04552464608299999,0.008238035776199996
726,363.2521575,-0.1052010165882,0.1363547566362,-0.0751251572034
727,363.75346061999994,0.1154072789064,-0.0739238802754,-0.06762509322618199
728,364.2497510142857,0.13299173196304082,-0.023030962292816325,0.09598177688734695
729,364.74604115,-0.35646653350129803,-0.008102796861679994,0.08546112735800002
730,365.24734466200005,0.2857796353448,-0.060090284163999995,-0.1806027505795
731,365.748648838,-0.09400872974879998,0.09384823622958,-0.16547004274606
732,366.24995285999995,0.0277010250462,0.059090387023600005,0.1181745511362
733,366.751256724,0.1176016334242,-0.22689875343372,0.11000396651746
734,367.25256074,-0.33480667543848,-0.10557735387452802,0.0897856818486
735,367.75386527,0.3801703663878,0.10429943922479999,-0.034024308710844005
736,368.2501567142857,0.09007389075612245,0.05417423782365714,-0.1626460904332449
737,368.74644804,-0.2034983576002,-0.042691463896599995,0.27185595568362
738,369.24775252,0.0657934508506,-0.19608997389959998,0.013957858673000001
739,369.74905707,-0.0987077585778,0.05873711841076,0.0194156751618
740,370.25036176000003,0.13617854106979999,0.08348919147538,-0.16162533303343998
741,370.751666346,0.16632758652496002,-0.03508108087796,0.04058780138728
742,371.252971122,-0.34588715833762,0.025635061265799997,-0.0008105159796200098
743,371.754276284,0.182084513307,-0.00269881281912,-0.151635179149194
744,372.250568344898,-0.03545227965816326,0.025214256754897958,-0.21104591337622447
745,372.746860468,-0.16741858295579998,-0.040438665971378,0.216957975344902
746,373.248165668,0.119421560211706,-0.2236316202552,0.051402530860095996
747,373.749470356,-0.1493134465408,0.1032387057732,0.0014990151692000043
748,374.25077541999997,0.12709706927644,0.16936680987504002,-0.1403966253965
749,374.752081304,0.14315781036064,-0.019716743676000004,0.014986354215600002
750,375.25338694,-0.32692144528308,0.051485646519,0.10297385044940001
751,375.7496787102041,0.19241925064585716,0.030982089991,-0.1593139262361653
752,376.2459708,-0.1088151586032,0.1348796169743,-0.26516948735339996
753,376.74727647599997,-0.15465243312294,0.08356324769379998,0.09928706508219999
754,377.24858204,0.1303001649322,-0.16081863757301998,-0.1662318530642
755,377.749888068,-0.23212831316014002,0.0758383970024,0.04538100833676
756,378.25119381999997,0.122217381997548,0.1434050343164,-0.0362064875104
757,378.75249912,0.07122720192298,-0.02998895353808,-0.15647611593728
758,379.2538046,-0.37519332308069997,0.156957667468,-0.10631202402138
759,379.75009699183676,0.09666061386016327,0.1695888239165163,-0.2716535360658571
760,380.246389586,-0.054634007374816,0.11468119938556001,-0.15665829816625998
761,380.74769596600004,-0.2332633864132,0.0723509121294,-0.0215807966207
762,381.249002,-0.013272173289105998,-0.012648687669600003,-0.1201236711254
763,381.75030774,-0.10978282334324,0.195214186496,-0.32303190158354
764,382.25161338,-0.1085051405162,0.0808696858908,0.008626794588999998
765,382.752918354,-0.01995720930254,-0.12059220738580001,-0.10462872665560001
766,383.25422366,-0.227323696500196,0.16181168939549997,-0.11431729968380001
767,383.7505167530612,0.17610683142285713,0.22674290219704896,-0.07769462124624489
768,384.24680958,-0.004834241794136001,-0.1009155841516,-0.1343322334492
769,384.74811515,-0.42540227263768005,0.123983264717512,-0.05412276036878
770,385.24942068800004,0.282598647284,0.15949627197372002,-0.19167098674864
771,385.750726518,-0.1094131192886,0.017598169612260003,-0.18757574817132
772,386.2520323,-0.2148063521788,0.13216067024688,0.076425058366624
773,386.753337886,0.0339556980832,-0.07066334510352,-0.2430710589916
774,387.24963044693874,-0.10568952711465306,0.16035270846571428,-0.044243523619999996
775,387.74592287599995,-0.031902420038062006,0.030614253532540003,-0.026296774385514
776,388.24722840000004,-0.008117015379119998,-0.1669809122434,0.0029524105839999985
777,388.748533504,-0.17847615926860003,0.1052425069066,-0.09969547103324
778,389.2498388,0.13023506002038,0.2366456889936,-0.041144165964
779,389.751144538,-0.023889041773699996,-0.03132983801654,-0.25495116560192
780,390.25245012,-0.31474762954052,0.10131682679,-0.001844985067235002
781,390.753755524,0.12543056241712,0.11611462166628,-0.20201909625460002
782,391.2500479122449,-0.06301356205836733,0.1489344286590204,-0.1322053707082449
783,391.74634000799995,-0.135033544034,0.06809263176526,-0.079941302258
784,392.24764526,-0.08942095673820001,-0.10694682766586,-0.09066784697984
785,392.74895087600004,-0.2694500847152,0.14214948536232,-0.13683101665060002
786,393.25025633999996,0.16718136882054002,0.179178156628,-0.13640085669184
787,393.75156146399996,0.0687104472316,0.019714054263799997,-0.10771313174578273
788,394.25286668,-0.3084988727906,0.1369295161534,-0.063267250801
789,394.754171808,0.030313507394000003,0.04911884548056,-0.28611811947119997
790,395.25046395714287,-0.16279294104959183,0.19638910185106123,-0.1488640867872041
791,395.746756796,0.07024559140734,0.102036544118,0.045618361071919994
792,396.2480624,0.014557837845580002,-0.19989412700158,-0.11174068234796
793,396.749367172,-0.41390747243685,0.10784320858839999,-0.07271659138961
794,397.25067214,0.178433388585378,0.10522542072706,-0.11201369145870001
795,397.75197804000004,0.012198893034819993,0.14121682616108,-0.19173014089555998
796,398.25328362,-0.2068819413102,0.09886315135222,-0.10859459018294501
797,398.7495755367347,-0.09364714944464123,-0.019502278865122447,-0.21987424401459182
798,399.24586758,-0.3095445812684,0.0675002404636,-0.05065679546908
799,399.74717267200003,0.218087104299,0.21275462011760002,-0.05703260518972
800,400.24847786,0.08439782218519999,0.012873621245280003,-0.17936490106676
801,400.74978355,-0.35344701440000004,0.1501318519892,0.020395372076
802,401.25108912,-0.019086905754000003,-0.20187695398518,-0.14557876596114
803,401.75239452,-0.1477232934996,0.1764796800782,-0.13503585730802
804,402.25370000000004,0.07399124235162,0.18729930312834,-0.12510964160486
805,402.74999261836734,0.08550435406163265,-0.018486970123653062,-0.07131110661009592
806,403.24628524,-0.33036162152880005,0.081974261843,-0.0037724899112599984
807,403.747590162,0.146863494422976,0.10970264208734001,-0.1990697959022
808,404.24889542,-0.030168371235338,0.06717227583379999,-0.23083481573387002
809,404.75020143200004,-0.18237831036548,0.1310984334726,0.07276183658456001
810,405.2515074,-0.00579458459766,-0.18305755481038002,-0.04151271074534
811,405.75281318000003,-0.250645183793,0.10844192841196001,-0.210397291180244
812,406.254119,0.1065321765078,0.22225680127142,-0.04671984000186
813,406.7504116326531,0.04298511633714286,-0.07923039739847368,-0.23453153723287756
814,407.246704448,-0.3438180550577,0.11743223695195999,-0.010189241051019999
815,407.748010418,0.15969175630972,0.10648441601940001,-0.1883041033954
816,408.24931649999996,-0.014720087194,0.17874155464845998,-0.22446625484044
817,408.750623034,-0.32363673986666003,0.20349849021459998,-0.08046817779399999
818,409.25192946199996,-0.014071310964180002,-0.18821354470041998,-0.026816499244639996
819,409.753235742,-0.2528365114208,0.1037352941224,-0.0876496185428
820,410.24952897959184,0.04703739190448979,0.2271328528985714,-0.2776380216452531
821,410.74582202,0.12641155691864,0.036086355177780007,-0.02142984974956
822,411.24712833999996,-0.3732253604376,0.0717705337732,0.05532589897779999
823,411.74843514,0.23158044431254,0.10704657810219999,-0.25492396953344
824,412.24974199999997,-0.024624425801600004,0.2172664283252,-0.19805668160300002
825,412.7510488,-0.269533089796,0.10240060683897999,0.0861173192164
826,413.25235559,0.08968696544184,-0.07966312279978,-0.25977219965459997
827,413.7536622,-0.23918106945768,0.10763493689046,-0.1181747268114
828,414.2499558795918,0.06962123642397959,0.1707808893977551,-0.04782326808020408
829,414.74624952,0.05109134670802,-0.13982508992044,-0.03603331106144
830,415.24755647999996,-0.37007088823747997,-0.0215786908548,-0.09640029378334
831,415.74886363999997,0.144203953925,0.24437109223297998,-0.144678548753
832,416.2501709,0.0365331051499,-0.09497646055579999,-0.024835247307
833,416.75147888,-0.3608803232036,0.06311662001434,-0.0699816789452
834,417.25278676,0.2668893675512,0.13553136050759998,-0.1437248819984
835,417.75409416,-0.0384931946598,0.0912620557118,-0.18510938165121998
836,418.25038863061224,-0.31637771823040817,0.08599425586571428,0.11524718327163265
837,418.74668336,0.10130006059895999,0.03231583072538,-0.14711561814386
838,419.24799121999996,-0.15589715246028,0.161981344614642,-0.261287618053
839,419.749299278,0.0037876836555399977,0.12847677861120002,0.10731360515079799
840,420.25060746,-0.0212050169098,-0.227932971934,-0.04747396364479999
841,420.751915178,-0.1575771776597,0.06603050819574001,-0.09178848960930001
842,421.25322314,0.08232378622898001,0.19025515410324,-0.15639241106704
843,421.7495188204082,0.04813354841612245,-0.11281154388428571,0.05165208975818368
844,422.24581456,-0.3757079281674,0.080520017535014,-0.0685208351136
845,422.747123454,0.29459764396848004,0.24229999080540002,-0.2465708640679
846,423.24843238,-0.007264819890400001,0.0524771840881,-0.09600002235796
847,423.749740972,-0.33259760072553596,0.0375884899716,-0.017755865090819997
848,424.25104978,0.12091078910280001,0.042616085429839995,-0.2432487595508
849,424.752359346,-0.12046431645604,0.2502136723742,-0.19789702608940002
850,425.25366892,-0.1282133254976,0.09584910870306,0.0019680123022000062
851,425.749965222449,0.010080851149387756,-0.11564211187020408,-0.09807570249961224
852,426.2462616,-0.21629400051977998,0.09054517583946,-0.1506843270542
853,426.74757058,0.0792005785168,0.2257780481652,-0.166456479407538
854,427.24887975999997,0.0876628609778,-0.08079557202570001,0.05623639114202
855,427.750189596,-0.38477852835242,0.1229593237726,-0.0961395593084
856,428.25149940000006,0.350420058224,0.13043422271538,-0.194066238351976
857,428.752809452,-0.09514794224202,0.002987501922200001,-0.1740325564518
858,429.25411954000003,-0.2926459057294,0.06328092943850999,0.08279092328558
859,429.750416177551,0.11787236496979592,-0.04775345109632653,-0.1216207242502245
860,430.24671307999995,-0.08463401828274,0.12356915688,-0.1966669895498
861,430.748023388,-0.03491559626096,0.08134029706017,0.1413940491466
862,431.24933376,-0.00712347514064,-0.10354578115072,-0.0952121620684
863,431.750643948,-0.1522100971716,0.10901494250180001,-0.14691215456156
864,432.25195426,0.04016443114314001,0.05897123606391999,-0.0317471591056
865,432.75326468400004,-0.018970485809880002,-0.144101457894842,0.0406858032381
866,433.24956204897956,-0.2153928311057143,0.13782919110632652,-0.14460161225204082
867,433.745859468,0.12969516562382,0.1580471154718,-0.059434812429959995
868,434.24717003999996,0.0293452935618,0.013783438225140006,-0.16808722216425998
869,434.74848123199996,-0.306142891402,0.1445632173322,-0.05355145929822
870,435.24979234,0.154244681911102,0.028352830787460002,-0.1721001299498
871,435.751103296,-0.05409312682094,0.055083847793652,-0.0832264733489
872,436.25241426,-0.2572561182094,0.022409895695019992,-0.0433268235204
873,436.753724828,0.12195844700814,0.116679009907,-0.24094316572779997
874,437.2500224795918,-0.12446508946304286,0.2088959735202041,-0.2238098692963265
875,437.74632054200003,-0.14321950897400001,0.11851866647694001,0.006352494394319995
876,438.2476318,0.0078032873536000025,-0.1611361485002,-0.07211788693134
877,438.74894321,-0.33634849340002,0.0930025106523,-0.1387005368582
878,439.25025464,0.287817486445,0.2553796423714,-0.19790342890272
879,439.75156567799996,-0.0672046422208,0.049096854628199994,-0.16851502891666
880,440.25287676,-0.2301179449436,0.14851749054399999,-0.006727842006020004
881,440.754187724,0.049037619644000004,-0.19246031030564,-0.002363423985188761
882,441.2504855836735,-0.28267427228061226,0.0803496249678796,0.01202775763932653
883,441.74678401,0.28241700344000004,0.16522752169146,-0.15257408774651998
884,442.2480956,0.024424685723,-0.027442601118280004,-0.2125913307722
885,442.749406724,-0.2898643051278,-0.001100363655380002,0.19297487605459998
886,443.25071790000004,0.07252442716602,-0.0637364467118,-0.12652251048966
887,443.75202951600005,-0.15020041988484,0.033774214033999994,0.025677695422599997
888,444.25334111999996,0.20221971638039998,0.17404578075498,-0.13612191792356002
889,444.74963943061226,-0.06976111301571429,0.03129508210930204,-0.1896580996497959
890,445.24593778,-0.33049011711608,0.1333856124414,-0.0712729527778
891,445.74724932,0.0795725478609,-0.06113488902956,-0.10356556912534198
892,446.24856086,-0.07162380433682,0.16404576487660003,-0.1552684626386
893,446.74987218,-0.16509605806094002,0.06817939339364,-0.08084591852114001
894,447.25118358,-0.1484425124158,0.149597053733706,-0.0012385633856000023
895,447.75249529399997,-0.48001408662294,-0.20761003863640004,-0.2146981773978
896,448.25380694,0.2119680468872,0.8453848883122,-0.4022181704657
897,448.7501058387755,-0.5523726614914285,-0.5827515994343674,-0.035284495748979586
898,449.24640472,0.2077899503182,0.269230819362,-0.1338492966191
899,449.74771625200003,0.10227547423540001,0.571335756325,-0.04372026386454
900,450.24902782,-0.69494082763788,-0.4792445350316,-0.0641568311962
901,450.75033971600004,0.4280668570896,0.5642189675779999,-0.1960889935502
902,451.2516517,-0.010226829823600006,0.24462424138240002,-0.014726876054499998
903,451.752963272,0.005339903259400001,0.3263241603,-0.51067849058578
904,452.25427488,-0.6979109813654,-0.16019911358656,0.08844154386084
905,452.75057381428576,0.06655953675918368,0.24929213916387752,-0.10480216983993061
906,453.24687278,0.34731733776,0.7106256440440001,-0.37359642546612
907,453.74818430799996,-0.7171198377754,-0.3639026671582,0.07764888886612
908,454.24949591999996,0.1666888763016,0.17460727291460004,-0.17793469364818001
909,454.75080821000006,0.049202535635799995,0.7806655067120001,-0.2037191304982
910,455.25212049000004,-0.664960056568,-0.28179273770540003,-0.1264811780898
911,455.753432462,0.41658370202600004,0.181411644502,-0.14708401821628
912,456.24973138367346,0.0064020048897959385,0.5704480334631632,0.04319535964204082
913,456.74602997,-0.81424014415832,-0.37294965569120003,-0.19859764579518
914,457.24734170000005,0.611610930583,0.3532649954886,-0.1777557441308
915,457.74865421000004,-0.03738861655609999,0.18531543652908,0.11848590795504
916,458.24996678,-0.727893231818,-0.19899151379340002,-0.0774847629966
917,458.75127892999996,0.5744319513624,0.5507706631596,-0.25715431030942
918,459.25259114,-0.2671237765046,0.2238000210506,0.0450373019062
919,459.753903416,-0.6153155747278,-0.1842796139848,-0.1386156378626
920,460.25020261428574,0.6166273492269388,0.6104304677536735,-0.3816514802002041
921,460.74650168,-0.47406748628,-0.025098715388399993,0.10724015589840001
922,461.24781386,-0.2468860879624,0.120276437162,-0.1824486580592
923,461.74912617,0.34165918251632,0.6356198387606,-0.2131112896882
924,462.2504384,-0.47982374387126003,-0.016951391140800007,-0.0980004758666
925,462.75175088000003,-0.1492733250678,0.022498244954199987,-0.09774785128102
926,463.25306314,0.26296665442760003,0.6916105493492001,-0.41466930632812
927,463.74936256122453,-0.6065910603271429,-0.07121577392938777,0.017815147601428577
928,464.24566182,-0.02438777011560001,0.1767636967522,-0.0142185815842
929,464.74697424,0.25308482483,0.8057388625819399,-0.4246063483044
930,465.24828676,-0.68213803909724,-0.08899656263320001,-0.0782085747564
931,465.749599144,0.175398377466,-0.048616199518199996,-0.08225905091290002
932,466.25091156,0.38539542083980005,0.65501195102,-0.29501746371466003
933,466.75222401599996,-0.5752911305362001,-0.5100008271341401,0.1804406360124
934,467.25353669199995,0.39248570146399997,-0.010606530195399987,0.0904346606282
935,467.74983583673463,0.22065490210408165,0.6707997837040817,0.06471748066061224
936,468.246135088,-0.7048404776802001,-0.6239776206396,0.0952291114472
937,468.747447988,0.5601769858760001,0.09898042435340003,-0.12053133021419998
938,469.24876102,0.008246578964399977,0.43247041553822,0.10517802288467999
939,469.750073768,-0.7264836961998,-0.3440808973104,-0.11980880322399999
940,470.25138654,0.765513302156,0.29219776029038,-0.16444086589672
941,470.75269897,-0.023827863500600004,-0.01004640205819999,0.26960743992436
942,471.254011352,-0.5751889123012,-0.3083047217756,0.09943092890399999
943,471.75031134693876,0.7664390431381632,0.4583541132481796,-0.1552934351722449
944,472.24661138000005,-0.09465063214999998,-0.02288648610421999,0.20849623244909998
945,472.747924056,-0.624216607792,-0.42000830346608,0.04964947018300001
946,473.24923664,0.7623419004544,0.45205640670752006,-0.21229319606025998
947,473.750549472,-0.1475791884358,-0.0696198465884,0.208732272427136
948,474.25186229999997,-0.48093883083628003,-0.38535192957459996,0.12152723538742
949,474.753175304,0.7921120888986001,0.4780592395368,-0.22948356146231996
950,475.2494752510204,-0.13647472208816327,-0.19003090911469386,0.3424560864528572
951,475.74577517800003,-0.379073792822,-0.2217795602428,0.04054755684719999
952,476.24708832,0.69224719319,0.4064783808799,-0.19062521541502
953,476.748401134,-0.312052761902,-0.2000158728888,0.29656367979104004
954,477.24971404,-0.2161690192022,-0.20315573304200002,0.1196251634976
955,477.75102702600003,0.6948893611757601,0.5630255627456,-0.29514927313222
956,478.25234006,-0.514457083344,-0.40000690546999995,0.23511517443192
957,478.75365289399997,0.10877784404,-0.04271412837800002,0.010443228516259988
958,479.24995265510205,0.09811228263142857,0.4932063753747551,-0.1044853098854898
959,479.74625222000003,-0.68887780871646,-0.2798879910602,-0.1021710563798
960,480.24756486,0.3980948523326,0.24647768494599998,0.052782844778399986
961,480.748878096,0.03062410592,0.8656495546456,-0.13267879856258
962,481.25019138000005,-0.7578086618182001,-0.39241078459059997,-0.1290172966416
963,481.75150418199996,0.4706217752232,0.18715280624106,-0.11719929388208002
964,482.25281702,0.028294408928799992,0.8063161541953999,-0.023941891451400004
965,482.75413013799994,-0.7681887226602,-0.40187242824579994,-0.07515529928780001
966,483.250430122449,0.5383903314122449,0.3146020833032449,-0.2655494390302245
967,483.746729804,-0.09124063990620002,0.40243536000200003,0.0992097189063
968,484.24804262,-0.7263641489513999,-0.35416061928614,-0.1489043148536
969,484.749355592,0.6895011992374,0.5895931748278,-0.3114160592215348
970,485.25066862,-0.21210491598991996,0.1365230690304,0.2087355532586442
971,485.75198187200004,-0.658724049576,-0.37148295783420004,-0.006115039661799989
972,486.25329522,0.6995147278795479,0.80644269171,-0.42852421358340004
973,486.749595467347,-0.48483763391999996,0.058179440826530614,0.16033880988051022
974,487.24589579999997,-0.3203716500718,0.008490987610599991,-0.10817147166738002
975,487.747209336,0.4990763331656,0.7972326673400001,-0.45415302789582
976,488.24852294,-0.5571065217160001,-0.13088692634940002,0.13823885419114
977,488.74983596,-0.054147451072,0.1037175104282,-0.20550421917569
978,489.25114892,0.3556266718018,0.6586840632738,-0.42157207546304
979,489.75246256400004,-0.5443835428050801,-0.211777730832,0.11955372533571999
980,490.25377626,0.08570575477599998,-0.1477307088636,0.031475569148199996
981,490.7500770040816,0.4375477900710204,0.5847421676316327,-0.2746198240152653
982,491.24637786200003,-0.557743492426,-0.37291699379796,0.2172444005856
983,491.747691366,0.322643778972,-0.1454429957364,0.0203275479466
984,492.24900478,0.26342811765400004,0.6631968942956,0.019316791339200005
985,492.750318482,-0.591973388016,-0.5261648866284,0.008698543940000004
986,493.25163224000005,0.5784302720732,-0.131788210874,0.076469699355944
987,493.75294576400006,0.112884647707,0.609852732847,0.14824720813396
988,494.2542593,-0.6309819261588,-0.49612892915800005,-0.013111200447220004
989,494.75055985714283,0.6649009789142857,0.018462298169591843,-0.04666754000206123
990,495.24686034,0.03449484071459999,0.2478717497412,0.18126181301298
991,495.748174452,-0.6993786623516001,-0.4000392476246,0.0809908741774
992,496.24948866,0.7188907050900001,0.2477850393684,-0.05746238166622
993,496.75080256,-0.1073574109364,0.4110239281002,0.12369476687608
994,497.25211654,-0.9183970917114,-0.12172547893440001,-0.083348617724
995,497.75343050199996,0.6127208981119999,0.6206012770029,-0.230373578438
996,498.24973140612246,-0.2838534323693877,0.400513780627,-0.006846534169061227
997,498.74603224,-0.9588603053758,0.03976164836839999,-0.3100234087266
998,499.24734612,0.5894162007798,0.7883061536687799,-0.35446193597840003
999,499.748660222,-0.3400258679854,0.4446706635262,-0.12221389670300001
1000,500.2499744,-0.8416861120956,0.13429785988899998,-0.31144392941542004
1001,500.751288336,0.5942924555864,0.8663647371634,-0.4480257800698
1002,501.25260233,-0.244071377502,0.4214593156284,-0.09640592769119999
1003,501.753916504,-0.8171621622752001,0.08965156513940002,-0.3963992054682
1004,502.25021755714283,0.6520105483242653,0.48320744303632657,-0.39368407252734694
1005,502.74651872000004,-0.216668959868,0.436293499257282,-0.0016358626464000015
1006,503.2478331,-0.90203903495,-0.11519584936659999,-0.2157123184336
1007,503.74914751999995,0.6906523795859999,0.7176308293382201,-0.37340350086038
1008,504.25046206,-0.33885530064,0.1442221380104,0.0914758052746
1009,504.7517762,-0.67166599900804,-0.028562025055000002,-0.223074184376
1010,505.25309018,0.48803936827759997,0.7510435333300001,-0.41809576464529996
1011,505.74939122040814,-0.4502727347518367,0.17149355108093875,0.12023439797755102
1012,506.24569206,-0.172357755366,0.1185978355815,-0.3202911231924
1013,506.74700623999996,0.140296506592,1.1404865564394,-0.38332022139217997
1014,507.24832038,-0.8597807902338,-0.15554018150360002,-0.2201477008824
1015,507.74963477999995,0.372650239661,0.376644288315544,-0.30583933036440003
1016,508.25094932,-0.127800768894,0.6826666212536,0.0022648619182000047
1017,508.75226368000006,-0.8081302765998799,-0.20639517256334,-0.2602236352206
1018,509.25357814,0.6894959263472,0.6023285456836001,-0.35747211668396
1019,509.74987905102034,-0.18702050463385714,0.0379255421122449,0.14793940132040817
1020,510.24617988,-0.5718479625746,-0.31082784171399996,-0.020696171557600014
1021,510.747494332,0.7259292920528599,0.5998773713848,-0.339975682587
1022,511.24880890000003,-0.377448496857,-0.1508513239216,0.3017176191404
1023,511.75012336,0.09174929385000001,-0.33367227115639997,0.040207096275600006
1024,512.25143798,0.4464851975682,0.7067319129646,-0.11224335956248
1025,512.75275202,-0.5928606680872001,-0.6707929349202,0.2177067885392
1026,513.25406588,0.5189733279163999,0.057352032847620006,-0.011374705527200005
1027,513.7503673693877,0.1347818127265306,0.41243396655857145,0.18176348607202042
1028,514.2466690599999,-0.7747842288738519,-0.5359069135748,0.05246699022079999
1029,514.7479836,0.8162909820786,0.40845420214179995,-0.272725723690462
1030,515.24929818,-0.1814031586398,0.04655864910092799,0.21669713537184
1031,515.7506127820001,-0.664917931846,-0.2737832921319,0.026329343312399986
1032,516.25192742,0.7756201084062,0.5373228379213999,-0.28375131286759997
1033,516.753241912,-0.4326525173,0.23967440289320002,0.16230371460499998
1034,517.2495431897959,-0.3885021155189796,-0.0902482713622449,-0.002625216780326522
1035,517.74584513,0.6088398459133999,0.8378416793058,-0.4481615323408
1036,518.2471605400001,-0.7856319046292001,-0.22112707848772,0.08169394416216001
1037,518.748475652,0.05620451124820001,0.1175041666664,-0.174768990818
1038,519.24979102,0.07144811327398001,0.8768837816654,-0.10682302637312001
1039,519.7511060639999,-0.80425025002,-0.1849655909118,-0.27113782161899996
1040,520.25242112,0.452069151304,0.52178145581494,-0.1894108712353
1041,520.753736402,-0.206313152152,0.8905013710041,-0.086671754214854
1042,521.2500385897958,-0.967942220687143,-0.09753012086714286,-0.34673215692383674
1043,521.7463408,0.54783819264016,0.7854856561952199,-0.46199086954068
1044,522.2476560800001,-0.196073201826,0.5402800879172,-0.0226175482218
1045,522.748971984,-0.9652824497534,-0.0980474191826,-0.36176986433560004
1046,523.25028808,0.7093997897312001,0.7939297412772,-0.55483645521212
1047,523.751604,-0.3857088713148,0.4308889229414,0.10124421889378601
1048,524.25292,-0.722567140524,-0.15767856082756002,-0.2508145744876
1049,524.754236032,0.6874037420569201,0.8062738746756,-0.5333911229362001
1050,525.2505389040816,-0.7365927965459184,0.011935517127448978,0.08954525869110204
1051,525.746842244,0.0022646591383999938,0.23452713929316002,-0.21314032093957203
1052,526.24815902,0.1364624874484,1.01903795002854,-0.25069828619636
1053,526.749475072,-0.829878438664,-0.2470165017506,-0.1596717319696
1054,527.25079124,0.44360090025054,0.42838433614286003,-0.28725186962624
1055,527.752107972,-0.17222922013340003,0.651146902142,0.1226524017644
1056,528.25342476,-0.9298190411216,-0.115419583031,-0.3743717865094
1057,528.7497282040816,0.5726900299934694,1.1120947048935919,-0.5964526857236735
1058,529.2460319,-0.4269840630312,0.2914147950186,0.05920047763899999
1059,529.747348916,-0.414105504341,-0.04527525635139998,-0.26455879939662
1060,530.24866616,0.5574992868312,0.9150935417924001,-0.44294391866128
1061,530.749983044,-0.7655418390100001,-0.24501305024140002,0.0685744662396
1062,531.2512998459999,0.162758173672,0.0010775686992000166,-0.13953586011990002
1063,531.7526174019999,0.2200465041312,0.9703586043,-0.11745314160076
1064,532.253935306,-0.9426342367860001,-0.44841300930149997,-0.09635426898484
1065,532.7502394591837,0.6862423498938776,0.3930508469826123,-0.287280647506449
1066,533.24654376,-0.0722599378704,0.20538824529939997,0.25628491007914
1067,533.747860908,-0.67637269676,-0.47398164095686,-0.012519333366340013
1068,534.24917792,0.6728002284647999,0.82862583668518,-0.42104652038794
1069,534.750495344,-0.4498972756434,0.0139310418574,0.24905649073374
1070,535.2518126800001,-0.2739531213464,-0.11448424580923999,-0.06920831558716001
1071,535.753130422,0.5257368817778,0.9015251646123599,-0.4962511009718
1072,536.2494351142858,-0.8393452602853061,-0.3871733140185714,0.2101769976156939
1073,536.745739596,0.32396818460939997,0.16109157084099998,-0.216918049942
1074,537.24705722,-0.00813267411799997,0.9120099025903999,-0.0967236988088
1075,537.748375094,-0.7754932075700001,-0.4271843101562,-0.12244454772843999
1076,538.2496931860001,0.635924255268,0.3548858487744,-0.2279567556688
1077,538.7510109360001,-0.059491448701999995,0.26248174818400005,0.12543067461016
1078,539.25232852,-0.7506602295008,-0.216794617888,-0.08601926981199998
1079,539.7536464159999,0.7582792897321999,0.12634762638874,-0.18850542668168
1080,540.2499513489796,-0.03286557215755103,0.19771571709571428,0.21701203892777549
1081,540.746255976,-0.6293687869994,-0.2751431037446,0.0901814183022
1082,541.247573708,0.7899047171879999,0.2685958618296,-0.18505483992064
1083,541.7488914959999,-0.009612717093999999,-0.04944957845479998,0.34359087452220005
1084,542.2502092,-0.6833277537885399,-0.1332248666029,-0.0404265862678
1085,542.75152728,0.747170507591,0.110472881772,-0.13214937125428
1086,543.25284556,-0.011071253154,0.2452253854694,0.2927965947001
1087,543.7541635,-0.57365907127714,-0.36660091506200004,0.08635382049138
1088,544.2504682857143,0.7786653963122449,0.13102837135889797,-0.07443340606128572
1089,544.746773036,0.038734255533599986,0.20114418408940002,0.24268262149286
1090,545.2480909000001,-0.6448228617421999,-0.37206689712999996,0.009864214183700017
1091,545.749408972,0.740872983918,0.11237135877698001,-0.04925377463553002
1092,546.25072708,0.03218323645199999,0.3661494052408,0.2220180544222
1093,546.7520450320001,-0.6825690454300001,-0.567887310861,0.055997499446400006
1094,547.2533628599999,0.898046392174,0.254924202676,-0.11250732348833999
1095,547.7496677142857,-0.0775741886877551,0.18806045583081632,0.31873200768304083
1096,548.24597254,-0.73091628409714,-0.3938019987566,0.0748349832684
1097,548.74729069,0.86909480035,0.3399753094368,-0.24649380204858
1098,549.248609,-0.10609155534557999,0.0493956676912,0.3402980878908
1099,549.749927004,-0.643518747684,-0.4021951034364,0.1664514686758
1100,550.2512448800001,0.864599974774,0.578777694317,-0.288388070018
1101,550.752562916,-0.3568629144674,0.15214144442439997,0.13272949497119998
1102,551.253880926,-0.6872376978539999,-0.2706864783144,0.029620886536000004
1103,551.7501860163266,0.7418935145469387,0.7565496567435102,-0.45485347147883265
1104,552.24649152,-0.40937706931099993,0.12680950328680002,0.1743940510098
1105,552.7478097420001,-0.415930841598,-0.14277147568471998,-0.021549408534799988
1106,553.249127962,0.598578325354,0.759894765926,-0.44499693006816005
1107,553.750445956,-0.7031109651834001,-0.22009707429364,0.245914349478
1108,554.251763768,0.034732000786,0.053535529356000006,-0.0651327101452
1109,554.753081964,0.457526703734,0.6891405433058,-0.3737116413748
1110,555.2493869897959,-0.9021365916306123,-0.26848902785130613,0.12365287465957142
1111,555.745691984,0.440004580628,0.09854939985399999,-0.12499553033127998
1112,556.2470102,0.09175469123520001,0.74341584941472,0.036386908827602
1113,556.74832833,-0.8310254719719,-0.5789077426578,-0.09266965981304003
1114,557.249646148,0.8058670855206,0.5996327131942,-0.25584771049166
1115,557.7509646899999,-0.34163716125120003,0.23277855424968,0.105774748397
1116,558.25228358,-0.730557141844748,-0.12379526525620001,-0.13858189828588002
1117,558.75360176,0.6875493584634,0.809176713891,-0.39002021104923995
1118,559.2499066551021,-0.495675817574898,0.02357055763265305,0.17235710927059184
1119,559.74621174,-0.2734818103054,-0.1736759341954,-0.10731896521238
1120,560.24753002,0.4698145513864,0.8460497314854,-0.3716283677226
1121,560.748848312,-0.7115865912012,-0.23495887012939998,0.0518551591756
1122,561.25016654,-0.0036622122968199998,0.2167663999164,-0.07444952747229999
1123,561.751484748,0.17999607736239998,0.9819955155140001,-0.30363101889902
1124,562.2528028199999,-0.8757608383362,-0.119805356474,-0.054322619787599995
1125,562.7541212,0.562741369596,0.2616298239792,-0.34198099158047995
1126,563.2504264204081,-0.09810502802918368,0.4158797973711429,0.014508520227857149
1127,563.74673186,-0.77644458236,-0.3370418962224,-0.098379362401784
1128,564.24805068,0.81872598541922,0.61178327600338,-0.37178809715654
1129,564.7493693399999,-0.1766337500366,-0.05594298428520002,0.31847501865435196
1130,565.25068832,-0.37266775009600006,-0.52234877981354,0.1378424171372
1131,565.752006816,0.7374392317054,0.6369200449092,-0.29179375192135004
1132,566.2533252,-0.5359991969492,-0.28616979372244006,0.28906269314792
1133,566.7496306183674,0.24053588750816327,-0.17224923982224488,-0.038171469861877555
1134,567.245936,0.3000471977736,0.6540687656548001,0.006578477100380002
1135,567.74725453,-0.7030674152167999,-0.5321488660086,0.11656988636528003
1136,568.2485729,0.6683173251460001,0.1938854434408,-0.19890049022700002
1137,568.749891606,-0.016201794386000005,0.0719438547122,0.30867867133209403
1138,569.2512104,-0.62028423785,-0.5809819869156,0.10503335998402001
1139,569.752529176,0.9799090353402,0.4547063608852,-0.23620360038319396
1140,570.253848044,-0.1630836785924,-0.3312024895394,0.39890329963624
1141,570.7501536938776,0.09409184104963267,-0.4151023765671632,0.19254302045555105
1142,571.2464596020001,0.8613439786339999,0.16644436151348,-0.17751776597552
1143,571.747778314,-0.48812745856219997,-0.8570767250982,0.4894269203762
1144,572.24909688,1.06170541028,-0.36847216289900003,0.3625298603914
1145,572.750415544,0.696956914368,0.22607318250599998,0.3688181990914
1146,573.2517339,-0.4088232534192,-0.7515880608914,0.4805695171218
1147,573.75305296,0.808596233686,0.05162979781499999,0.1557778544534
1148,574.2493593387755,-0.08889757156734694,0.23527300149163266,0.3162693441383673
1149,574.745664732,-0.6961162542117999,-0.46313436792940005,0.01477618309020002
1150,575.246982946,0.831822924334,0.635280964757,-0.35707835718766
1151,575.74830167,-0.34925327823979996,-0.1916610275778,0.329544356763244
1152,576.24962038,-0.022742110487999997,-0.2234179469712,0.07382353078244001
1153,576.750939264,0.6212244662576,0.544817951711536,-0.35736936506018
1154,577.2522584,-0.6477102436386,-0.6234904830422,0.49396845749935997
1155,577.753577214,0.591098163682,0.04983417621939998,0.009996411053100002
1156,578.2498827591836,0.05245290398163268,0.47840582881632654,0.17305286658851426
1157,578.746188416,-0.7027531357374001,-0.5826587724904,0.06094076563759999
1158,579.247507206,0.859756252146,0.3936354857352,-0.24914988234747998
1159,579.748826268,-0.2690334788594,-0.12756260961194,0.25165883777076004
1160,580.25014568,-0.480750695168,-0.10627060714520001,0.01742283395598
1161,580.75146444,0.6615477827067601,0.6611339323234,-0.25787500403700003
1162,581.252783,-0.7164809293476,-0.3554621876354,0.14543875081182
1163,581.754101802,0.36192844193539997,0.2760121242886,-0.1201556049166
1164,582.2504073755102,-0.07415075218571428,0.6861396593558572,0.058955495184285715
1165,582.746713152,-1.0175588661562,-0.02500731597679999,-0.199672166811648
1166,583.24803196,0.80055029850262,1.0961160073787999,-0.5491472568904
1167,583.749350952,-0.7938810850539001,0.18258637353680002,-0.12719292232499999
1168,584.2506698679999,0.1307535240118,0.012143810520000011,-0.31347174278059997
1169,584.751988416,0.06791904559260001,0.84109120373,-0.004929095051700007
1170,585.2533067,-0.884749470954,-0.4144915195942,-0.2174586606358
1171,585.7496117857143,0.8040628116918367,0.5605774357857143,-0.29441087452489795
1172,586.24591672,-0.289526348108,0.08879713055599998,0.12754057209928
1173,586.74723479,-0.38858374831199993,-0.3559215882856,0.02392439177019999
1174,587.24855304,0.6659069667636,0.8695067052482,-0.41168762885106
1175,587.749870898,-0.7974371792932,-0.4589397135182,0.29172700305956
1176,588.25118852,0.4378729422338,0.10748216856947998,-0.15199530246624002
1177,588.752506154,-0.027644151604200015,0.646437209695,0.07330800962864
1178,589.253823642,-0.929372494266,-0.3472964766748,-0.09263679149038
1179,589.7501280897959,0.7327987933567347,0.8517979542916326,-0.3568456927112041
1180,590.24643244,-0.356528240143,0.0052710625623999955,0.15269455585074002
1181,590.747750056,-0.358777973614,-0.07471251378820001,-0.1725547898452
1182,591.24906752,0.5418318479204001,0.8033993824744,-0.44825522996011996
1183,591.750385292,-0.7483704813162,-0.36989577495702003,0.288779215231
1184,592.25170348,0.46717175751600004,0.0964181421984,-0.10852600078179998
1185,592.753021062,-0.01226004450999999,0.614256451261004,-0.01714350514172
1186,593.25433816,-0.67273222135,-0.5132198540948,-0.06576760152700001
1187,593.7506430183673,0.8449020502630612,0.39863203771489797,-0.13113135419293878
1188,594.24694827,-0.09417532657598,-0.0653315897762,0.26363407290814
1189,594.7482662580001,-0.5804452427272,-0.3674515289568,0.21243998231786
1190,595.24958434,0.82451283635,0.6426569417236,-0.32583869354916006
1191,595.750902734,-0.504763443382,-0.26215794196284004,0.31240852788134
1192,596.252221502,0.1088896992842,-0.30021614279000003,0.10349978091020001
1193,596.753540004,0.45189249729659997,0.6997199257104001,-0.19615048377752
1194,597.2498454285715,-0.7652230823961225,-0.6341645330265306,0.30956972770306124
1195,597.74615076,0.62856276314,0.06794790679158,0.028251263171559998
1196,598.2474686999999,0.1189243832492,0.612109978824822,-0.0038930735632000026
1197,598.7487879199999,-0.6711969759092,-0.642389337015,0.1736753076434
1198,599.2501078,0.8012040437337999,0.3110910210988,-0.21458027503700003
1199,599.75142722,-0.10687230053838002,0.04221481679500001,0.3214942527758
1200,600.25274694,-0.563841795064,-0.46553571970599994,0.10116193292799998
1201,600.754066494,0.8640534820483999,0.5936420987377999,-0.29304263004046
1202,601.2503729,-0.18011050844979595,-0.2252282022244898,0.43655348304816327
1203,601.7466796,-0.377116822932,-0.3197416950656,0.09265922962199999
1204,602.24799932,0.7156886451646,0.49029122301420003,-0.25715011797654
1205,602.749319924,-0.35431694716288,-0.31422194917859997,0.40122615087822
1206,603.2506412,0.15111570655799997,-0.21097813022939998,0.11533278389911202
1207,603.751962004,0.38115548729860005,0.7711585483194,-0.19280601192200003
1208,604.25328284,-0.7354220522486,-0.5176264142578,0.21283751077344001
1209,604.7495909571428,0.5942059697816326,0.10480376809938777,-0.10763543177685714
1210,605.24589952,-0.04566605782520003,0.40271065864098,0.1587839565626
1211,605.747221274,-0.826979401066,-0.3673328464296,0.012148837191399997
1212,606.24854276,0.6962015212939999,0.53846838682,-0.43870930463760005
1213,606.749865214,-0.2491265782826,0.1805080472508,0.23455584299499999
1214,607.251188188,-0.446833561682,-0.07912198542159997,0.06785681681982
1215,607.752511106,0.6965487574222,0.6570971935666,-0.525904890223
1216,608.25383424,-0.8428314430748,-0.3198296498968,0.32885546764592
1217,608.7501446142857,0.41837710814285717,0.1477940571118367,-0.08191910262257143
1218,609.24645544,0.0393897842638,0.83468819821,-0.048200538796999995
1219,609.7477796539999,-0.8716691940833999,-0.5546246799837999,-0.05088198209193999
1220,610.249104248,0.7650449534679999,0.6954192227135999,-0.400356471288
1221,610.750428914,-0.31280208823,-0.04445190813954,0.2849608747576
1222,611.2517534799999,-0.42154569418,-0.09695977613200002,-0.06630249631879999
1223,611.753078934,0.7056718521718,0.6213235692132,-0.4605669332336
1224,612.2493915897959,-0.7906903060346939,-0.3396163138867347,0.2972860852411837
1225,612.745704216,0.5058367842888,0.253795342484,-0.20713722764700002
1226,613.2470302400001,-0.193379994953,0.5301458662480001,0.08545238608644
1227,613.748356864,-0.780784730474,-0.287984017966,-0.084017035239
1228,614.24968372,0.7096736392576,0.7698825894265999,-0.2639790377336
1229,614.751011112,-0.3022931847006,0.08125188213899999,0.17353449245355002
1230,615.2523390800001,-0.50905998859,-0.08079640357340001,-0.16429001408968
1231,615.753666928,0.61920731277,0.8196289597304001,-0.49672649826250004
1232,616.249981622449,-0.84026216347,-0.2916714625134694,0.14753836555932653
1233,616.7462970920001,0.280958983906,0.21528076724839998,-0.10717994531379998
1234,617.2476266,-0.02599338064680001,0.9250999656152401,-0.04350731119648799
1235,617.748955804,-0.9382705746458,-0.28414019201484003,-0.2199440020376
1236,618.25028536,0.735745445802,0.79245981016798,-0.4465236175784
1237,618.751615094,-0.2997810470464,0.05190239548980003,0.17366559635137802
1238,619.25294502,-0.43397092668799997,-0.220897661451,-0.07245861826799999
1239,619.754275408,0.6788943716628001,0.5853215071932,-0.4207814223466
1240,620.2505925408163,-0.4661830731843265,-0.19077893688775507,0.27196546220114287
1241,620.7469102800001,0.1517946565734,-0.3129543960034,0.11636326724335999
1242,621.24824174,0.3987963824882,0.6167782780682,-0.06464880226116
1243,621.749573644,-0.6833817630628001,-0.635422604358,0.22244078498060002
1244,622.25090652,0.6966264303526001,0.14799150020986,-0.1105589597272
1245,622.752238936,-0.06603994549000002,0.1632046142754,0.2148612157186
1246,623.25357142,-0.49265498250199996,-0.5153164058899999,0.179968921992
1247,623.7498912857143,0.7432658099171429,0.5166502406510204,-0.2898534679908163
1248,624.24621114,-0.42920718983271994,-0.1325799055374,0.1593271288126
1249,624.747545052,-0.015924594284000008,-0.23126963022600003,0.1484696668532
1250,625.24887944,0.4982807942564,0.5351547508522,-0.24279945771228
1251,625.750214014,-0.7291160234905,-0.4218049752434,0.26270165519780003
1252,626.25154904,0.7666848116580001,0.09582316720320001,-0.06859477919778
1253,626.75288424,0.06879385991800001,-0.007221868679400008,0.2771587290436
1254,627.25421942,-0.40870237258374,-0.618429972997,0.2973657401426
1255,627.7505420408163,1.2042835200936735,0.2571149105112245,-0.288846227567551
1256,628.24686536,-0.26129103328099995,-0.842964340118,0.6026112383916
1257,628.7482018860001,1.1736747169496,-0.17907334539480002,0.51256624845222
1258,629.24953876,0.44927532369559997,0.07322750969264001,0.653138782171
1259,629.750876114,-0.6650868778660001,-0.818085331304,0.35377899816430003
1260,630.25221372,0.8476063081328,0.6171621627008,-0.14392361577059998
1261,630.7535515100001,-0.5438364107872,-0.45660799488739995,0.30142681504839997
1262,631.2498758061224,0.453877939447551,-0.011051586075714295,0.07091346538510204
1263,631.746200824,0.0956351545656,0.6167708065552,-0.0042922398544600025
1264,632.247539826,-0.7974407453150001,-0.654400990459,0.11367674002219999
1265,632.748878946,0.9139371311700001,0.38734375833199997,-0.24468918125685998
1266,633.2502184,-0.103378008558,-0.07635644034564001,0.37164341844980003
1267,633.751558328,-0.6443426994438001,-0.32009902281,0.05864422653440001
1268,634.2528987000001,0.8922933413154,0.57905608080392,-0.37122992864688004
1269,634.754239144,-0.4326738018142,-0.306685105957,0.35955032785156
1270,635.2505663367347,0.2536668932428571,-0.23368549711587755,0.1288122686757143
1271,635.746894132,0.3336877751107,0.6389828177851,-0.07498972921196
1272,636.24823584,-0.789958273508,-0.5457811691026,0.06167312194959999
1273,636.749577828,0.7497693745018,0.126831379882,-0.0993350222736
1274,637.25092054,-0.1887502077644,0.0839453367494,0.2553442976566
1275,637.7522631659999,-0.71765598300778,-0.0830216650836,-0.12581425457924
1276,638.253605946,0.5328580795922,0.948452371316,-0.42534753140614
1277,638.7499357938775,-0.8651244370517347,0.03300744845142857,0.0013699598585714334
1278,639.2462655200001,0.29957156200991997,0.39046038822328,-0.395220730176404
1279,639.747609644,-0.18964716372600002,0.72685396706488,0.15515755636424
1280,640.24895462,-0.862204415826,-0.272935744239204,-0.24651910446075198
1281,640.750299176,0.6714919561108,1.0440003505189999,-0.5388944978922
1282,641.251644,-0.659841217397,-0.058472740974400014,0.08034970365659999
1283,641.752989232,0.18349033940440002,-0.1185206363244,-0.08606167786800001
1284,642.254334924,0.214899501356,0.9633721470355999,-0.0286749584054
1285,642.7506673183674,-0.8292290959470612,-0.5362345736910205,-0.0732895498677551
1286,643.247000024,0.7694003129239999,0.4402866465326,-0.284843103677
1287,643.748346492,-0.2420694805748,0.13632030305982,0.2722596094359
1288,644.24969276,-0.641385192848,-0.3288316231044,0.06796349899499997
1289,644.751039804,0.7871852975814,0.7487124368160001,-0.43528625514243996
1290,645.25238764,-0.7737737896589999,-0.09560006596100001,0.16872090558859998
1291,645.753735196,0.1857273901776,-0.0295254062318,-0.069004943268
1292,646.2500693122448,0.13267555603367348,1.0652601105579593,-0.1019021956772449
1293,646.74640389,-0.9085386133682001,-0.5040399921200001,-0.08819893831872
1294,647.2477526,0.700153000342,0.52063783580464,-0.37621298553466
1295,647.7491011,-0.232121061303,0.24539165796680001,0.17207895091616
1296,648.25044962,-0.671305435322,-0.38809003848876,-0.05659931854259999
1297,648.75179892,0.77599634310584,0.70906621555,-0.4426099004976
1298,649.2531485000001,-0.25248213439,-0.0271575726416,0.2966965073876
1299,649.749484610204,-0.22841075004489797,-0.2748185504191837,0.03927388642816329
1300,650.245821746,0.575628921716,0.6098380388346,-0.41053092932679996
1301,650.747172224,-0.6166206607515999,-0.4853838794904,0.3638013205682
1302,651.2485232399999,0.419872899498,-0.11748976077692,0.0639873257234
1303,651.74987433,0.11828143538,0.5361966109124,0.06807042647740001
1304,652.251226086,-0.6374911578447999,-0.5169899098458,0.0340664024846
1305,652.752577626,0.7524798107540001,0.19516786046439996,-0.13263310057792002
1306,653.2539293799999,-0.05667194959839999,0.04223822164655999,0.3128651137786
1307,653.7502680857143,-0.6980074528367347,-0.3205624102567347,0.10195147187020409
1308,654.246607,0.9505499016008,0.580767670666,-0.3179952249858
1309,654.747959924,-0.3493358015632,-0.2432540101854,0.3659815271842
1310,655.24931336,-0.23121223867600002,-0.278502402633884,0.1937175493944
1311,655.7506669439999,0.7497344675643,0.5479380289246,-0.38052176836322
1312,656.25202066,-0.47645982168240003,-0.265533682714,0.40236218898799997
1313,656.75337482,0.048487712442,-0.28230072466699996,0.16252572765332002
1314,657.2497153387756,0.6142079835071429,0.5605982192928571,-0.25173488173775516
1315,657.746056604,-0.7123300557558,-0.5825175322046,0.4032819626702
1316,658.247411446,0.5034686278880001,0.0333729991956,0.03092592305600001
1317,658.7487668079999,0.23139801113999997,0.66057363027752,0.0317665576314
1318,659.2501226600001,-0.6870341574814001,-0.5093681995672,0.058127959864539995
1319,659.75147848,0.666628192401,0.044715118933680006,-0.03578366684258001
1320,660.25283462,-0.054979683483400016,0.3638656520576,0.21963916725364002
1321,660.75419104,-0.714865204064,-0.504289875316,0.0140524066954
1322,661.2505345918368,0.7905967302387755,0.5314653654638776,-0.2636097546222449
1323,661.746877982,-0.244822074512,0.1678871445236,0.2270563026114
1324,662.248234904,-0.704138159732,-0.38779314790599995,0.013373673986399985
1325,662.749592428,0.725118567032,0.7938727986914,-0.4461269998878
1326,663.2509499,-0.4305612742012,0.14851364017600002,0.17689980641732
1327,663.75230794,-0.34548777848400003,-0.18128364200779998,0.03861989907935999
1328,664.2536667200001,0.6610193838796,0.73708457137412,-0.503779596733376
1329,664.7500116714285,-0.8936646465,-0.34425106631489794,0.32339600186626527
1330,665.24635644,0.25870937822199996,0.18727148968719998,-0.04079912317422002
1331,665.747715474,0.147362872014,0.8208201219526,-0.18637860411582
1332,666.24907466,-0.8992531074148201,-0.3914163196412,-0.0265094985554
1333,666.750434232,0.694466944978,0.4540243485144,-0.3180610984782
1334,667.2517942,-0.1202099952252,0.1936140799228,0.17256616611854
1335,667.753154278,-0.7153844104772,-0.38401536844740003,0.013452956452020014
1336,668.2495012061224,0.7732251144938775,0.8083716378918132,-0.42880452263204083
1337,668.745848184,-0.557658017562,-0.00766426147199998,0.18335565651180002
1338,669.24720904,-0.076753388698,-0.1230211420546,-0.10486210040999999
1339,669.748570074,0.31020557371199997,0.8280843497538,-0.28345337607512
1340,670.2499312,-0.659122119455938,-0.10689952383219997,0.023246354673500003
1341,670.7512927180001,0.295810557008,0.06719321250880002,-0.142585703156416
1342,671.252654724,-0.05612782417760001,0.7152363439520001,0.0157423426276
1343,671.7540165620001,-0.7845342329122,-0.33606208146156,-0.3025867673924
1344,672.2503640591837,0.7008130757467347,0.5206740572767348,-0.1841256765257143
1345,672.7467128720001,-0.310313548404,0.19748829331019999,0.1387750636324
1346,673.24807632,-0.8105867453932,-0.2345509369642,-0.10944589058996
1347,673.749439244,0.6684443244424,0.989587839243,-0.5229199387536
1348,674.25080206,-0.581103621734,-0.03866407315580001,0.174022211039976
1349,674.7521655080001,0.0642154726272,-0.128013376374,-0.06958423840078
1350,675.253529382,0.45611462307960005,0.5923885184308,-0.2043127226398
1351,675.7498796959184,-0.7379508006930204,-0.4730094100979592,0.2570090028114286
1352,676.2462302,0.6802135281949999,-0.04210422516940002,0.021234737923200006
1353,676.747594652,0.04316316544600001,0.3908429927086,0.11558254415949999
1354,677.2489591799999,-0.6652410010894001,-0.531748039582,0.10808905642318
1355,677.7503241280001,0.81399158836,0.30670272192522,-0.1412798449464
1356,678.25168958,-0.1259448276168,0.0852589106582,0.2744675523988
1357,678.753055124,-0.5145879356773999,-0.48131523291219996,0.1393937261836
1358,679.2494073530612,0.8986762285244898,0.5634940135297959,-0.26104464690991835
1359,679.7457597599999,-0.370873975604,-0.3555100260438,0.35311150493588
1360,680.2471260460001,0.1960246156546,-0.4320648036088,0.23222255770339997
1361,680.748492684,0.966674527486,-0.05284494567160001,-0.23924661739786
1362,681.249859408,-0.102892745777,-0.7068270922541999,0.542351856655
1363,681.751226494,0.9320294317487401,-0.1898154442726,0.55769060811034
1364,682.2525935399999,0.2856410551112,0.3387592962566,0.45668226303639997
1365,682.7539611640001,-0.869356582181,-0.6612082222908,0.3072545495486
1366,683.2503159183674,0.9299739623581633,0.388763358422449,-0.18548859282816327
1367,683.746670538,-0.2153609518402,0.128419831357,0.22284694073619998
1368,684.24803912,-0.45344380702192,-0.46021800909214405,0.060178990718400015
1369,684.749408162,0.802399617706,0.5117976023090001,-0.34332974008906
1370,685.25077778,-0.3306970892046,-0.02711126265799998,0.41349453834919997
1371,685.752147618,-0.0475423591504,-0.2990985483414,0.1347327153564
1372,686.2535177799999,0.5500408810740001,0.6411285759274399,-0.36009361452919997
1373,686.7498747367346,-0.8473950888183266,-0.4386416475042857,0.3473336250601428
1374,687.24623204,0.4919406813304,0.177521628149,-0.106570604137
1375,687.747603446,-0.08487407296879997,0.4198466256142,0.23451940083798
1376,688.2489754200001,-0.8533864964795199,-0.3276521090758,-0.14241040613616002
1377,688.750347466,0.7785996233119999,0.811011525394,-0.52796038924712
1378,689.2517191400001,-0.456799729282,0.09715953479419999,0.203322833421814
1379,689.753091904,-0.52152304575094,0.07656474736140001,-0.11582104161043999
1380,690.2494514224489,0.7249120805040816,0.6830485252712654,-0.434901770609449
1381,690.745811024,-0.8307635813272001,-0.265887425996,0.19331245710008002
1382,691.24718486,0.3139676210754,0.11890699533759999,-0.0008269031161999974
1383,691.74855884,0.082885765744,0.9296132384307999,-0.017850013980220004
1384,692.24993274,-0.8854835773466,-0.43719920218319996,-0.17097639481052
1385,692.751307468,0.7293284716940001,0.6470242245788,-0.40739617711641996
1386,693.25268248,-0.3337287139056,0.17758968604660003,0.17667129713468
1387,693.75405787,-0.53230890172846,-0.26451572845820004,-0.05126376328820001
1388,694.2504199102041,0.7621306354885714,0.8154439776379592,-0.43072320789112245
1389,694.74678182,-0.5919620844376,-0.3520884422938,0.28108802934852
1390,695.2481574999999,0.2626830770082,-0.0690482477838,-0.0391144373528
1391,695.74953366,0.139066562322,0.8060808468358001,-0.004452711948799992
1392,696.2509097200001,-1.0048929723134001,-0.4022805729828,-0.0980436411934
1393,696.7522865000001,0.72624592244,0.6218531765586,-0.2336557078034
1394,697.25366424,-0.27455913260479997,0.2753618502266,0.0974413723704
1395,697.7500278530613,-0.7706457046367348,-0.32308844556122446,-0.04946929905032654
1396,698.24639062,0.7223329186345999,0.921944503494,-0.51486431817
1397,698.7477684999999,-0.407426016176,0.02824277896078,0.2166823557008
1398,699.24914774,-0.228074083888,-0.2138600116422,-0.054089263359200015
1399,699.75052608,0.5996067134592,0.7200739034836,-0.45575636923024
1400,700.25190462,-0.5740402398562,-0.29638696799639996,0.34166972511879995
1401,700.7532834599999,0.189409606722,-0.1582193356868,0.03920119009339999
1402,701.2496478734694,0.40678374048306126,0.6107524616685714,-0.328612762122551
1403,701.7460133999999,-0.682685847085,-0.500585621472,0.369292198772
1404,702.247393136,0.565482493946,-0.127438511557,0.015767092555599996
1405,702.7487729600001,0.19289541910539998,0.5573556579232001,-0.08433614180857997
1406,703.2501529,-0.6695251907159601,-0.4005652450012,0.2019699154872
1407,703.75153304,0.48521602754200005,-0.18876311827652004,0.03952610927736
1408,704.2529139,0.2734920697966,0.6850337985798,-0.059671373252640006
1409,704.75429438,-0.6014077944518,-0.43948362359939996,0.199430518711
1410,705.2506605836734,0.5400312091640816,-0.12406604683387756,0.1392438745189796
1411,705.74702754,0.202418324022,0.6121038511578,-0.0535500001668
1412,706.248408714,-0.80275797537066,-0.5040700783242,0.19309145253924
1413,706.74978974,0.744852033682,0.08175744400599999,-0.009694412156519996
1414,707.251170842,0.08585236828940003,0.49408842005080006,0.04975636324293999
1415,707.7525522000001,-0.799753980541,-0.5478957885448,0.1468109055922
1416,708.253933778,0.915285201666,0.32392199577599995,-0.1697224676514
1417,708.7503016795919,-0.14161880351551023,0.08396106192653062,0.18478716084836733
1418,709.246669104,-0.5981318233039999,-0.5452014475365801,0.22748216402979998
1419,709.74805104,0.8282559204188,0.5479940629084,-0.26255163805397996
1420,710.249433612,-0.1760884838366,-0.041231355343,0.3637355369392
1421,710.75081594,-0.45429564598399996,-0.5129334110384,0.2074124448812
1422,711.25219881,0.8147422766760001,0.7211864171842,-0.39994899884834
1423,711.75358144,-0.45879062600639997,-0.09782750581899999,0.3334561289672
1424,712.2499507795918,-0.1181751872857143,-0.2301615400789796,0.16281016380642857
1425,712.74631976,0.37858153141800005,0.7933874606906,-0.3168328629194
1426,713.2477023199999,-0.8502843091872601,-0.2956681555798,0.0764202597276
1427,713.7490854,0.482110007678,0.2520929540654,-0.10691482812205999
1428,714.250468116,-0.117636673894,0.7127729118812001,-0.0012023753703199992
1429,714.75185134,-0.825146760939,-0.45992627562660005,-0.0584524205859
1430,715.2532352400001,0.698935432736,0.7934185097037999,-0.4048491946784
1431,715.7496050000001,-0.3780793280142857,0.15297507918877548,0.060393030773000005
1432,716.2459742960001,-0.48778041189,-0.263057308037,-0.035183836621600004
1433,716.74735792,0.7250351367408,0.739099947322,-0.39276531939254
1434,717.248741786,-0.57856611115976,-0.29243753341199996,0.2679392645984
1435,717.750125504,0.1919815567494,-0.035719187326019995,0.0062278518088000005
1436,718.251509412,0.1450667888542,0.7924907852387401,-0.038329390837199995
1437,718.75289318,-0.8495706674484,-0.761300681847,-0.03375335247938001
1438,719.2542762960001,0.7324406021727999,0.7321826470018,-0.33060925775120004
1439,719.7506463673469,-0.38969134096612246,0.13553904155551022,0.22780975720571428
1440,720.247016956,-0.505375472338,0.014593543555759994,-0.19656057506384003
1441,720.74840108,0.5951324121980001,0.8006895005584,-0.3721687112942
1442,721.2497851060001,-0.6775496350228001,-0.254164208766,0.1766440347152
1443,721.75116932,0.2096687064,0.05216354249999999,-0.16801906019979998
1444,722.2525532159999,0.047308105693,0.8050073808807361,-0.1831501243894
1445,722.75393756,-0.7574357357746,-0.2884824810516,-0.04482406761979999
1446,723.2503087163266,0.5344321410112245,0.2828510900702245,-0.1718174770367143
1447,723.74667942,-0.07788883572380001,0.444223638633,0.114493259561544
1448,724.248064584,0.0157402572116,0.165247153347,-0.4558153141242
1449,724.7494493199999,-0.3351335853736,0.1202873808298,-0.08456359979360001
1450,725.250833952,-0.1770106633778,0.26636726672120004,0.004504118240399992
1451,725.75221884,-0.102897041253624,-0.004678299426200008,-0.2591717527938
1452,726.253603336,-0.0009651584720000051,0.21334217377302003,-0.435807512897
1453,726.7499745612245,-0.1365222471849592,0.056355481902244896,0.14963506040385713
1454,727.24634638,0.2005659832844,-0.0731493731594,0.1671059191464
1455,727.7477317400001,-0.039684487042879996,-0.0587890469138,-0.07071577628756001
1456,728.249117348,0.00010472631017679478,-0.005202017447400004,-0.2968194937725
1457,728.75050284,-0.11780055451483999,-0.12049716099400001,0.11252865048260001
1458,729.251888212,0.05831687055726,0.0789604661884,0.20801435233424
1459,729.75327386,0.14950100201728,-0.1582493351466,-0.013937827073880003
1460,730.2496458081632,-0.1730579650144694,0.015009972886734689,-0.16330778003061228
1461,730.7460176799999,0.1126251679672,0.021032072524879993,-0.23743059294200003
1462,731.247403624,-0.04652624141468,-0.127157011333,0.22629921973408
1463,731.74878946,0.09168009039059999,-0.09233021880839999,0.25006865213322
1464,732.2501745640001,0.429822579471,-0.48543015676319995,0.24506371259720003
1465,732.75156038,0.429651769282644,-0.1276367957508,0.16963100834822
1466,733.252946628,0.4269407688506,-0.3605508505548,0.225356053728
1467,733.7493187163265,0.09902786303040816,-0.1520136093477551,0.516185168424898
1468,734.245690424,0.06633081198099999,-0.23450663491760002,0.47410360820020003
1469,734.74707636,0.24211738753741202,-0.1808721725118,0.18596214947419998
1470,735.248462024,-0.090846135125022,0.22953412107319998,-0.15736830628068
1471,735.74984796,-0.06832400398726,-0.08433703306992,-0.1763881997258
1472,736.251234164,0.09363768348686,-0.0524587134872,0.36849484049819997
1473,736.7526202399999,-0.11151630497114001,-0.17856182443386,0.08481596266144001
1474,737.254006078,0.0861034462574,-0.036058637547179986,-0.06850214488895999
1475,737.7503783857143,0.06982680022285714,0.19744624534938776,-0.30168877209285716
1476,738.24675115,-0.28834053030518,-0.005905352169999998,0.23862712232077998
1477,738.74813742,0.14700063073827999,-0.04647536626900001,0.0754827112274
1478,739.24952395,-0.06063239190258,0.0670277580826,-0.06465140103730399
1479,739.7509102399999,-0.0353595007164,0.22736122456079996,-0.40587832487498
1480,740.252296712,-0.1647402275288,0.17055643348651997,-0.056867974881999996
1481,740.75368326,-0.320619218583,-0.17033516580240002,-0.1548991987168
1482,741.2500556510204,-0.06615430377795918,0.23784674412265305,0.055266086480000004
1483,741.7464285000001,-0.5416945484334,-0.1593669944314,-0.015245923585680004
1484,742.24781523,0.6369584497738,0.7193421695822001,-0.5476832732588001
1485,742.7492020799999,-0.8447430012206,-0.30417805907774,0.09171427859534202
1486,743.2505888100001,0.13929498203739998,0.403523103249842,-0.27910771997482003
1487,743.7519756,0.18648879296860002,0.663205529951,-0.002442779035276007
1488,744.2533625799999,-0.09719625036578,0.1423028644892,-0.5451379179238
1489,744.7497355571429,-0.8390045632195919,-0.2847129860477551,0.11411455839510205
1490,745.246108656,0.573739613572,0.3755824576692,-0.1206944311042
1491,745.7474954400001,-0.15755477473260002,0.4960386590146,0.09308990530585999
1492,746.248882482,-0.7277000081866,-0.2994603134726,-0.12302882510759999
1493,746.750269182,0.80594266721536,0.7710228131480599,-0.49756190771732
1494,747.251655462,-0.40939575680832,0.11290577352799999,0.19712804113569998
1495,747.7530421060001,-0.16361689047099998,-0.33638565056,0.1217553138036
1496,748.2494150428571,0.514019973867551,0.9106083950787754,-0.24758377276865307
1497,748.74578778,-1.02983018402566,-0.5612915848344,0.13875934578805998
1498,749.2471738600001,0.800127897572,0.46507804691,-0.24498516933212
1499,749.7485603599999,-0.27968854073620003,0.20170334000291998,0.16871607330708
1500,750.249946988,-0.7165835148240001,-0.30995840416560005,-0.07399462856797999
1501,750.75133344,0.6906078069768,1.0090017950285999,-0.4762824229662
1502,751.2527199399999,-0.59071465837406,-0.05638568338773999,0.24521738559460002
1503,751.75410634,0.11002658469300002,-0.1024655297284,-0.1343419226748
1504,752.2504789081634,0.2408392243461225,0.9732888510126532,-0.2628736290667755
1505,752.7468515200001,-0.7603636494420001,-0.39679690332600004,0.042231937124199995
1506,753.248238252,0.563485493992,0.10876424827916,-0.12418667166194002
1507,753.7496247,-0.04330356804380002,0.37076925732840005,0.11070257997954
1508,754.251011148,-0.7266040003176001,-0.440397890454,-0.00039829690299998834
1509,754.7523974200001,0.8808795915445999,0.33387285743817996,-0.21345335639399998
1510,755.253783708,-0.178788882096,-0.08773215482990002,0.23938370367411999
1511,755.7501560999999,-0.6243588887289796,-0.20072601720816327,0.1671553594604082
1512,756.24652795,0.913098765374,0.5152238951233999,-0.3584016793098
1513,756.74791398,-0.348894089172,-0.2236057050992,0.31943504966876
1514,757.2492996,-0.266588443532,-0.25672479042,0.193200293125
1515,757.75068554,0.8198963813416,0.422926302538,-0.35391777417512005
1516,758.2520724679999,-0.42346016002939996,-0.21746572748100002,0.40211451058858005
1517,758.75345856,-0.12213583647,-0.18089248230320001,0.10502919806878001
1518,759.2498305816326,0.6637634221336735,0.48678639032632653,-0.45480119229591837
1519,759.74620264,-0.6162898638859999,-0.2468664871664,0.37194003410725995
1520,760.2475884739999,0.3660054282168,-0.2675605093134,0.09711284775440002
1521,760.74897436,0.1839437373924,0.63998864653904,-0.03852234150618
1522,761.250359824,-0.6782873009115999,-0.49058607339699994,0.14541716276959998
1523,761.75174562,0.7278396564899999,0.06349107800460002,-0.06058041692740001
1524,762.253132168,-0.06468272774600001,0.1406471581692,0.240302205946
1525,762.7495042612244,-0.6704577779040817,-0.2531590492346939,0.047643505514285714
1526,763.245875696,0.8616745631630001,0.305290890178,-0.2613512018404
1527,763.7472614,-0.21406287315259998,0.04663884292339999,0.25413546486093996
1528,764.2486475239999,-0.44044036198599995,-0.35820027747346006,0.2911544616768
1529,764.75003328,0.7858858961292,0.528837668266,-0.35487488813782003
1530,765.251419172,-0.4875103273318,-0.237541156463,0.37196426117276
1531,765.75280488,0.12216411679,-0.1201875037234,0.0564732856296
1532,766.2541903279999,0.2731446057852,0.6810053320766001,-0.2339872126902
1533,766.7505621020407,-0.8718262415240816,-0.2906129767336735,0.0905544404462857
1534,767.2469337759999,0.6104655697232,0.471594161708,-0.12744644073564002
1535,767.74831934,-0.3367595553486,0.48559865765779997,0.03302352311940001
1536,768.249704564,-0.9357740522896001,0.10165426533975999,-0.3402621748552
1537,768.75109,0.5676597455816,1.0782229688332001,-0.53140659411774
1538,769.252478364,-0.6070208196502,0.35209634031919995,-0.1102544361986
1539,769.75386428,-0.40578796278539997,0.09723603292099998,-0.24314345374500002
1540,770.2502336959184,0.46541414058938774,0.9994428098582244,-0.38914797251387756
1541,770.7466048599999,-0.9933678820997599,0.0456800655406,-0.18311324402499998
1542,771.247989656,0.3555996677502,0.45329544784904,-0.1974134756498
1543,771.74937486,-0.12064654903139999,0.7715337759198,-0.13355945452273998
1544,772.250760016,-0.8549419236350001,-0.2459890629672,-0.20817733608331998
1545,772.75214522,0.53277612066464,0.6053475473750001,-0.3513977448144
1546,773.2535304600001,-0.21580977619000002,0.35654605967,-0.0090534983488
1547,773.749901822449,-0.6569775887628572,-0.359855907124898,-0.09818738266803267
1548,774.246272954,0.7733391584902001,0.7744152409353999,-0.49641131594004
1549,774.74765808,-0.45275181267020004,-0.1678598758494,0.2829480769324
1550,775.2490433,0.13271730392082,-0.21689276380579997,0.04316272745040001
1551,775.75042846,0.3581494593302,0.577112891549,-0.10880775309320001
1552,776.2518143320001,-0.5755601802742,-0.7066770834568,0.2598481350718
1553,776.7531995800001,0.7664891996059999,0.18878144944380001,-0.0474918737204
1554,777.2495705591837,-0.06447152312959183,0.010150457242448977,0.3257582077304082
1555,777.7459417599999,-0.5026198248196,-0.6443751565778,0.16299205411764
1556,778.247326798,0.9386961608696,0.51434279346,-0.21143114724646
1557,778.7487118800001,-0.37423304761399995,-0.3670545126634,0.3678602409672
1558,779.25009692,0.306338059022,-0.39184649176579994,0.2587145025216
1559,779.75148196,0.6788129982905999,0.1542035371154,-0.09286029052922
1560,780.252866796,-0.429165582242,-0.6678392004289999,0.42191739355197994
1561,780.7542517200001,1.1458590923562,-0.259907156467,0.36877794423212
1562,781.250622844898,0.4250874240142857,-0.11679836169040818,0.45200023688979596
1563,781.7469939399999,-0.13651677381758,-0.9212734116534,0.448938936913
1564,782.248379206,1.25141417192844,0.1969976966002,0.0788664263038
1565,782.7497642999999,0.03162885236915999,-0.7588986808961999,0.6744035336263999
1566,783.251149484,0.502532067497,-0.5894013826860001,0.6359587307569999
1567,783.75253454,1.0026386546402,0.3589560471318,0.10792218683042001
1568,784.253919148,-0.570014342565404,-0.8277501260907201,0.5445239054052
1569,784.7502901979592,0.9569406889779591,0.29576531603061224,0.035204058974714285
1570,785.2466619600001,-0.22037032625299996,-0.06666299025158001,0.42420952389219996
1571,785.74804724,-0.413025853076,-0.5545640041416,0.138422888123864
1572,786.24943216,0.8688428039822,0.7004706897062001,-0.3088427186962
1573,786.7508173000001,-0.5933199643448,-0.41645087114398005,0.40075936725336
1574,787.252201946,0.339990618072,-0.06901008115199998,0.037030069766200005
1575,787.7535869320001,0.20188994339111999,0.72961081663106,-0.012090712680999998
1576,788.2499588122449,-0.7964317909849796,-0.6745711346428572,0.006707163496816325
1577,788.7463301600001,0.8500119438676,0.31316385830000004,-0.1460910119334
1578,789.24771514,-0.23719906704560004,0.011125573795799999,0.28135931698262
1579,789.74910024,-0.25740243925969997,-0.478932360484,0.19219139118040002
1580,790.2504853,0.7404231225468,0.5614680459614,-0.2535687110513
1581,790.75187016,-0.7736331585578801,-0.47508853939902,0.31344092841768
1582,791.2532545999999,0.52836450241552,0.10659676628999999,-0.13691176046804002
1583,791.7496252938776,-0.07281996807081632,0.36199854054469394,0.32996874531563264
1584,792.245996178,-0.7691779690939999,-0.07499798626196,-0.20446744753739998
1585,792.7473808999999,0.450149066576,0.98495261818472,-0.49170569798400005
1586,793.2487656400001,-0.7346762216538,0.1754257702346,0.04880175072434
1587,793.7501504420001,0.07451637008012,0.4354459176934,-0.407080699439
1588,794.2515349820001,-0.1886687772102,0.9933017095498,-0.10615664199115998
1589,794.7529197599999,-0.9243972000136,-0.15688326830714,-0.2997754036616
1590,795.25430468,0.5695439768072,0.8295339408034,-0.4517730015906
1591,795.7506756632653,-0.4500117690253061,0.26866559974285714,0.051114612940408165
1592,796.2470467380001,-0.248823522518,-0.20689463773134,0.009965555639320004
1593,796.74843156,0.46712091725,0.803318313417,-0.39226622332566
1594,797.2498166720001,-0.843794951866,-0.1955591901914,0.09654924206876
1595,797.75120154,0.46388342051000003,0.092496441817,-0.05711925039916
1596,798.252585618,0.009365037081659993,0.4934108441174,0.0378874014858
1597,798.7539702,-0.5931191203326001,-0.3969730559428,0.008726056600400003
1598,799.2503417367348,0.7322948321993877,0.44257021110163264,-0.2520860099071428
1599,799.7467128,-0.194892453434,-0.030409388759800007,0.3846184391058
1600,800.248097444,-0.490435016782,-0.37619182637259996,0.05857190342840001
