Time_interval,Time,Acceleration_x,Acceleration_z,Acceleration_y
0,0.25415463520061227,-0.24187732869906123,0.006005818402857151,0.18983341217530614
1,0.75040817,-0.08705963526478001,-0.03668751262639999,-0.0014833801267999846
2,1.25167392848,-0.20902663932159998,0.47348743832640006,-0.69497673963
3,1.7529397119999999,0.744827966012,0.3037782637118,-0.3391795611774
4,2.25420554268,-1.273031654574,-1.9997572351439998,1.834239133264
5,2.7504587602040815,0.4911816695244898,-0.13136646447308165,-0.33972529379897953
6,3.2467126050000004,0.8793511917898,-0.5455117625782,0.20829850611120002
7,3.747979075,-0.28668436999032004,0.3183683675842,-0.03950551351400004
8,4.249246345,0.27053779852816,-0.022866612690000006,0.12671300487360002
9,4.750513885,-0.47914777111199996,0.35088030159420003,0.6771819198752
10,5.251779195,0.14892773487000002,-0.2031892353404,-0.10508203893921998
11,5.753044255,0.4906977353232,0.007138573296400041,0.1036868698488
12,6.254310845,-0.774893290575,-0.2038466027222,1.1713326494512
13,6.750564798469387,0.26214662624367346,0.09694411477832653,-0.28121135652857143
14,7.2468188375,0.61190861540334,-0.7227828754819999,-0.017585075677780032
15,7.74808559,-0.21705565002420002,0.90273203654184,0.9534226656997999
16,8.249352225,0.3003450644294,-0.43014899276,-0.07939548214365999
17,8.75061902,0.614402859253926,0.6552821501266,-0.07297953122458
18,9.251885715,-0.256147387033,-0.514601147026,0.5109940464974
19,9.753152385,0.022587126736600027,1.2081297242652,0.14990366434504002
20,10.249407382040816,0.5531912722530612,-0.1493756620110204,-0.021327623602449
21,10.745662560000001,-0.04070699393599998,0.3252179713628,-0.1267187409018
22,11.246930368200001,-0.37403250400106003,0.5121520232182,0.8814563224998
23,11.74819825,1.005644341662,0.1975917425676,-0.27399078402794
24,12.24946611,-0.156119424152,0.38799317579088,-0.1815830367458
25,12.75073405,-0.21382337931399997,0.4180065477588,0.85492754015092
26,13.252002319999999,0.6868391987554,0.5343318044327999,-0.24960973075126
27,13.753270829999998,-0.09883482540419998,0.20313510180136,0.1748059617826
28,14.249526225510204,0.4768705018897959,0.4904421519310204,0.49586980604881226
29,14.74578165,-0.304419776127,0.8105126279718,0.35950991480100003
30,15.247049922399999,0.460280835174,-0.49417012771904,-0.30966498579580004
31,15.7483181208,0.709356504707,0.527706961716,-0.03715036648940001
32,16.2495871752,-0.81951812942942,0.9301896840358,0.6939330407848
33,16.7508564502,0.623149226743,-0.0584765068126,-0.36619397227379996
34,17.2521252546,0.39344307313612,0.6024736827388,-0.023887396190400013
35,17.75339402,-0.315493771054,0.3898624135936,0.54350440177398
36,18.2496507,0.027667353834693903,0.06639231748188164,-0.13367806574214286
37,18.7459075,0.7251369586280001,0.44917308431416003,-0.04271610886662
38,19.24717692,-0.2595319878798,0.24284076001156,0.42720590196418
39,19.748446429999998,-0.06409190376694,0.019382256927307998,-0.13709671837238002
40,20.249715762,0.793053602212,0.2990190655626,-0.10428306802200002
41,20.75098501,-0.212780621966,0.020018878333399995,0.16769967687666
42,21.252254602399997,-0.3631962860957,0.5177337811364,0.38538311901839994
43,21.753524210000002,1.020324881696,0.0034116164116200108,-0.34533686050119994
44,22.249781198979594,-0.1092473426612245,0.20205471346836734,-0.29249849046734694
45,22.746038159999998,-0.40684968026846,0.4351734701166,0.8869076699331999
46,23.247308048,0.77072716114582,0.29804807692959995,-0.49154917759520006
47,23.7485781204,-0.10970854167,0.015071046271599995,0.06212066701520002
48,24.2498483808,0.42215763235219994,0.3677584357588,0.53387486785886
49,24.7511187506,-0.5384266621496,0.632185250735,0.2993897556342
50,25.2523902306,0.5887659848972,-0.35226562387419996,-0.39003783011579995
51,25.7536623704,0.60924540750784,0.24427622223814002,-0.25571303107331994
52,26.249919023061224,-0.7545573030472041,0.807622032125102,0.9698277202759185
53,26.746175159999996,0.7724353900442,0.0841031690322,-0.11365643535920002
54,27.247445625199997,0.5895661705254,0.5236980054260001,-0.17705298833260003
55,27.748716100000003,-0.294057241236,0.145120045462444,0.43094102153839997
56,28.24998678,-0.3262989169198,0.38415499324400004,0.3454632071682
57,28.751257609999996,0.9737097791870001,-0.026673764036399986,-0.3970158855916
58,29.252529094,-0.1258859804878,0.277959856496,-0.1661306116292
59,29.753800849999998,-0.6333715689454,0.23544112037136,0.90665388091316
60,30.250059198979592,0.9742675528369388,0.1842602281236735,-0.47606528660259184
61,30.746317610000002,-0.28945212617,0.3919108570422,0.003304553945999977
62,31.24758913,-0.10083001818239999,0.20265811523,0.7417297018792
63,31.74886079,0.2447659850346,0.35268042545580003,-0.35318083013600005
64,32.2501325558,-0.0033081324484000164,-0.367690017484,-0.007457106144000005
65,32.7514045104,0.21727693201512,0.3859129995556,0.31048559579956003
66,33.2526763758,-0.6988342705518,0.3708663653774,0.4271605977886
67,33.75394828,0.57457783309564,-0.55205153414,-0.4703818826928
68,34.25020764734694,0.46143436573857144,0.3580585046412857,-0.08290586885020411
69,34.74646701,-0.8336446281926,0.6184820084422,0.8927873610214
70,35.247739545,0.53106505862964,-0.25817242264240003,-0.47213208297602
71,35.74901224,0.4718995393312,0.3967686886901,-0.04693027902733998
72,36.2502851946,-0.47626707017072,0.18400653222479998,0.37203571495738
73,36.75155837,-0.3946017105546,-0.042515192727399995,0.3411759116696
74,37.2528310264,0.9472800078308,0.0650940697648,-0.3122459351506
75,37.7541035904,-0.14799950686399999,0.0709892793151,-0.18306267467960002
76,38.25036427836734,-0.6970499549936734,0.3501352589677959,0.9377422341804081
77,38.7466253204,0.7690623009218,-0.22978216169282,-0.6351577997608
78,39.2478986874,-0.4391327250118,0.067839758513,-0.11371335221759998
79,39.74917223,-0.14328265741577997,0.2418262915024,0.7237028880117999
80,40.2504458012,-0.339572166595,0.0453161317956,-0.1759477124834
81,40.75171953,0.288366333188,-0.5080859454459999,-0.26518695884728
82,41.252993294999996,0.3007805041593,0.20685922855828,-0.2010672924744
83,41.75426714,-0.9603891612245999,0.354533665318,0.8026386738015999
84,42.25052974653062,0.4331426544903266,0.03670639744367347,-0.3738542147959183
85,42.74679307,0.281451275673,0.0878725883482,0.011852294411799998
86,43.2480662832,-0.24148474978680004,-0.1116214055502,-0.253656284606
87,43.74933872,-0.48386611166960003,0.3548955378362,0.7834429781314001
88,44.2506132988,1.0913273699344,-0.10319649160722,-0.4313229499304
89,44.75188825,-0.36389533823600007,0.1392947686636,-0.36905265260378
90,45.2531628888,-0.49392704141140004,0.241448005863,0.9551900042225999
91,45.749425164897964,0.24082439039999998,-0.060749420299795936,-0.3629002080606123
92,46.2456882122,0.055221227437,-0.26922491730454,-0.12875202834679997
93,46.74696475,0.2504898595328,-0.03791110682411999,0.1337525671254
94,47.2482391708,-0.8568648688196799,0.7048541310977999,0.6432973344416
95,47.7495127114,0.46887727717800004,-0.6459008422425999,-0.42976611704839995
96,48.250788638,0.5911056254834,0.38694417355239996,-0.26896582723920004
97,48.75206491,-0.7899890764202201,0.218644279996,0.7198644482333999
98,49.253340678799994,-0.03801908733039999,0.3146680155908,0.03062575099800001
99,49.74960366836734,0.7153396518006123,-0.326596970095102,-0.17622361207999998
100,50.245867090000004,0.02487385069679999,0.11325380781848,-0.4015120786607999
101,50.747143290000004,-0.5963523788278,0.2010785424984,0.9587338377972201
102,51.2484196014,0.7531199668522,0.1857240231792,-0.5533690054147999
103,51.7496959116,-0.2829012682412,-0.5919981210446,-0.116085438906
104,52.2509726082,0.40973322300919995,0.10518615876660001,0.5476616786094
105,52.7522495,-0.9408103092314001,0.611914556196,0.3470631106258
106,53.253526573,0.5117878528126,-0.660997394131,-0.48884423223279994
107,53.74979117612245,0.4654039508944898,0.3755675324269388,-0.09402644961285714
108,54.246055649999995,-0.6817214759788,0.1358306675194,0.5988072621562001
109,54.74733293,-0.201102059986,0.30741453289056,0.09573671911920002
110,55.2486104322,1.0554224779068,-0.16220055773839998,-0.43923631431300003
111,55.74988813,-0.08321822802578001,0.286403346946,-0.29202121141
112,56.2511657772,-0.5558039029398,0.247776348017,0.9941359921685999
113,56.752443549999995,0.70018408280422,-0.22201842164900001,-0.5962586947774
114,57.2537212128,-0.1198278674188,-0.12949083567228,-0.05565519022359997
115,57.749986057755095,0.11122354636367345,0.2914490107914286,0.6078239143046938
116,58.2462514556,-0.46657100666569995,0.453984874998,0.186827310924
117,58.74752994000001,0.5167997468408,-0.5951007121558,-0.487457225881
118,59.2488082184,0.5464419318048,0.153559460565,-0.066475228904
119,59.750086400600004,-0.7413752495379999,0.78509343672662,0.8166345574868
120,60.2513650416,0.3303714558428,-0.2749658364826,-0.14578209070399997
121,60.7526437,0.969996054688,0.248002401393,-0.3973215195442
122,61.2539227478,-0.1289937463558,-0.005664607117599985,0.1442216559772
123,61.750189394489794,-0.6260319409497959,0.6135698717034694,1.0156162397918367
124,62.246455475599994,0.8838794612538,-0.28293070309992,-0.665352985066
125,62.747734300000005,0.11904383766687998,0.3974054388124,-0.21216073527080004
126,63.2490135984,0.08886750964739999,0.19181464086893998,0.9797826213786
127,63.7502929906,-0.39207974215300007,0.6920289535274,0.247423725825
128,64.2515727264,0.858142210676,-0.5481035994114,-0.352530163662
129,64.75285282,0.602794303152,0.526329883966328,-0.2436094116252
130,65.2541327446,-0.5773152655658,0.7495170821360599,0.9229462702383999
131,65.75040016653061,0.055112304610612235,0.2566841097010204,-0.009278636299571428
132,66.246667235,1.0310126914539999,0.08553515799460001,-0.288781304358
133,66.74794706,0.3157072295094,0.18822698235866,-0.0026413276419999933
134,67.249227201,-0.5717601300362,0.34893092180800006,0.867062091314
135,67.75050737,0.24938778217399998,0.20113575167880002,-0.11745703197599998
136,68.2517876172,0.5946689303234,-0.33776386254999996,-0.1106257767406
137,68.75306784,0.7105841217437999,0.934954012922298,-0.23671568467180001
138,69.2543484728,0.1260774884962,0.1094633970332,0.32617208497999994
139,69.75061661142857,-0.71130828894,0.8026076568342858,1.1044288465120409
140,70.246884294,0.659861479036,0.29460157018316,-0.22807544128240004
141,70.7481646,0.239116001818,-0.3207592356184,0.0441381985296
142,71.249446249,0.8990116810956,0.4415832580486,-0.22744331047580002
143,71.75072909000001,-1.0450491665278598,0.90456288155,1.085727643464
144,72.252009375,0.15772415157400002,0.481174287471,0.2682174070064
145,72.75328884,0.9709094307008,-0.11280437326520001,-0.2870984171336
146,73.24955695020408,0.28900068016122443,0.09012068854755104,-0.2282849768432653
147,73.74582500000001,-0.6817635115755999,0.39750118112586,1.0731870966771
148,74.247106358,-0.017912208379599982,0.609450767573,0.05570035408840002
149,74.74838794,0.4101823476124,-0.5212089334068,-0.14120181469799997
150,75.2496700464,0.5936156772673999,0.60091768014908,-0.2343522752256
151,75.7509533006,-0.6552430440109,0.4178985848114,0.900678248726
152,76.2522340308,-0.09547808508840001,0.5805575524564,0.2702309658918
153,76.7535138406,0.8383970463261999,-0.2762139304768,-0.48248009930099994
154,77.24978257591836,0.1173131112453061,0.06543296844999999,-0.19272037352408164
155,77.7460513,-0.38550531416216005,0.282963780802,1.16178316102106
156,78.2473329812,-0.1099096273032,0.8061975290428,0.036268664802800006
157,78.74861461,0.35893567728228,-0.8654763031039999,-0.34862294893706003
158,79.2498963826,0.6628923773324,0.53496004094,-0.036271249297800005
159,79.75117814000001,-0.43953917667599995,0.169582170426,0.5838245322154
160,80.2524599768,-0.36715486276634,0.4775936631366,0.704610477608
161,80.75374173,0.6712717882299399,-0.08955839322239999,-0.6695134076372
162,81.25001125367348,-0.32160266633061224,-0.57487501521,0.11009406125510206
163,81.7462812002,0.8372501383559999,0.21046741668320001,0.17450533305159996
164,82.24756322019999,-1.1916813604294,0.8047546934979999,0.8528784418118
165,82.7488451208,-0.012165792907999995,0.20658768387400003,-0.014212172241999993
166,83.25012746460001,0.7270009515483999,-0.30603456074563995,-0.15757849743520003
167,83.75141002000001,-0.11921962253799999,0.005272188774399977,-0.37138318910039997
168,84.2526923824,-0.240215021112,0.39755619167399997,1.1507509970668999
169,84.75397484,-0.6120182331536,0.27578832335000003,0.11655099422107998
170,85.25024446979592,0.5592917260330612,-0.9645611212342857,-0.42320217312040814
171,85.74651386,0.5361312675419999,0.5602001671164001,-0.20256952407912
172,86.24779652080001,-0.47914538545524005,0.1873152494184,0.688217013358
173,86.7490792806,-0.58130885542168,0.54894321867346,0.5787441438138
174,87.250361954,0.8668159878846001,-0.28412989103119995,-0.5615738885993999
175,87.75164449,-0.22297333045800002,-0.09444426823260002,-0.18643447156763998
176,88.2529275762,0.11298174856894003,0.16875085423299999,0.8153940356209399
177,88.75421088040001,-0.87991463966932,0.6721012449988,0.400214371036
178,89.25048129183673,0.45053753635387755,-0.9582903284687755,-0.5370484284155103
179,89.74675176000001,0.37104343070859996,0.559982130295,-0.16704512788499998
180,90.248034732,-0.523847863711,-0.0285573100598,0.523667547234
181,90.74931728060001,-0.2996909282272,0.4977310761962,0.4470263258912
182,91.2506008598,0.9594532383484,-0.35365247235457997,-0.5282443500802
183,91.75188487999999,-0.18329113715599998,-0.06451366926152,-0.298431806259
184,92.2531682188,-0.296529058028,0.2258255144904,0.9554205365212001
185,92.74943842,-0.47841964409122445,0.6516730556024898,0.10629190331632651
186,93.24570920800001,0.3254855107246,-0.8624759973682,-0.3630155194388
187,93.74699287060001,0.42372865054852,0.18809249640460002,-0.16114493644348002
188,94.24827680419999,-0.7334813680614001,0.5587979346592,0.8228500308059999
189,94.74956105999999,0.1204256049022,0.03899566591699998,-0.16983426144580002
190,95.2508447788,0.5784872288378,-0.09674556263772001,-0.16682602097702603
191,95.75212824,0.03013646760985998,-0.017884200259299998,-0.29322038180140003
192,96.25341227220001,-0.6317441309458001,0.257906514644,0.93215427833652
193,96.74968360000001,0.8856785961183674,-0.0006358906548979562,-0.5677201532851632
194,97.2459549204,-0.39499548547819996,-0.14851199193598,-0.11841903931399997
195,97.7472394206,0.19624372543139998,0.16400998435480002,0.8829823989418
196,98.24852349119999,-0.802441330302,0.45270894818999996,0.12030036922039997
197,98.74980740999999,0.5205718265766,-0.65799442207406,-0.6751566608006
198,99.25109159920001,0.3267564731908,0.490531007762,-0.02913011504448
199,99.7523757602,-0.130049180462,0.09735528689599998,0.6227052301938
200,100.25366003200001,-0.2444044165276,0.5509437148424,0.24301490186020003
201,100.74993146122449,1.0683215321569388,-0.27933677208612245,-0.6540626694202041
202,101.246203224,-0.230513315034,0.198679301306,-0.1425791262798
203,101.74748828,0.0030160464788600017,0.11265277833199995,0.9026790255108
204,102.24877276,-0.5933071138356,0.56925440521,0.301497361118
205,102.75005724,0.7255608115558,-0.5376147177874,-0.52744305926836
206,103.25134181600001,0.496616485822,0.6536675468049999,-0.15257091854219998
207,103.75262670000001,0.07573665712219999,-0.079784766394,0.1924489176196
208,104.253911096,-0.4424984292322,0.71252661361018,0.821715799588348
209,104.75018237142856,0.9456230637484082,0.28325929313938775,-0.6670664832489592
210,105.246454204,-0.3029111886192,-0.2420656531156,0.1232412966028
211,105.74773907999999,0.7731391433500001,0.433092779316,0.46822201477200004
212,106.24902382,-0.7959452608379399,0.9081327001504,0.65211893514782
213,106.75030871999999,0.6936234132228001,-0.37402478568139996,-0.43802818601859994
214,107.251593548,0.5850797481474079,0.402026516748,-0.2515940068618
215,107.75287840200001,-0.2797452628316,0.21330333959559997,0.60261208044
216,108.25416337200001,-0.2454827249742,0.7633472206914,0.488893372286
217,108.75043534081632,1.1694108454591838,-0.08259696876877551,-0.6445974592528572
218,109.246707682,-0.11764651097800001,0.21977976253794002,-0.15496096790699998
219,109.74799304,0.33204270115364,0.2289240242866,0.7620683527644
220,110.249278598,-0.74767323287492,0.88884314507106,0.6916657361996
221,110.75056476,0.5001476076544,-0.7031309274360599,-0.46505918569340005
222,111.25185014200001,0.4578703089068,0.5696099860244,-0.10496474815199999
223,111.75313512000001,-0.2206308072072,0.0516724645684,0.479910306542
224,112.24940811428573,-0.2423871184857143,0.6305794876628571,0.5928927269138776
225,112.74568164,0.95103273331124,-0.053410104983212,-0.669948405422
226,113.24696739999999,-0.288933799638,-0.04730954697880001,-0.051142858824999964
227,113.74825286,-0.006489362759359985,0.27497684678694,0.958022243419
228,114.24953909199999,-0.5576137858283999,0.5974703138426,0.14559441844711998
229,114.75082574,0.7382367447942001,-0.43708842731436,-0.4670627341422
230,115.252112024,0.5656673429404,0.646024066515,-0.1726310548218
231,115.753398526,-0.207985209442,0.2025173552104,0.721117775467
232,116.24967198367347,-0.26749723434612244,0.608060792135102,0.6230785242918367
233,116.74594514,0.935957237193,0.2733329605302,-0.4283370575574
234,117.24723178,-0.281874380241,-0.060739391018420005,-0.17519587754059998
235,117.74851874,0.45115661778259997,0.29992196336206,0.7304684089666
236,118.24980554,-0.6733382176637801,0.86850794988674,0.4910848267732
237,118.75109264000001,0.5397009108098,-0.5160102792452,-0.20775477643827997
238,119.25237929999999,0.5917149228232,0.70870824151278,-0.144547930582
239,119.75366558,-0.18925608064793997,0.2685104226832,0.6697894664142001
240,120.24993959795918,-0.3082949524346939,0.6734791067471428,0.4542431555434694
241,120.74621358,1.0850494659064,-0.055786144480999986,-0.47239452941880006
242,121.24750060000001,-0.40273786560799996,0.3098066463384,-0.11565557503139995
243,121.74878776,-0.18303519271660001,0.3000691026998,0.9540739227788001
244,122.25007502,0.530215809023098,0.5196350675538,-0.21150091199799997
245,122.75136242,0.051827170150000004,-0.6848005553816,-0.05026012800019999
246,123.25264994,0.7809516081948,0.22788657616151997,0.19710298549400002
247,123.75393786000001,-1.074140502768,0.8271140835658,0.7495856466376
248,124.2502124489796,0.23407369651285717,0.013494383256326539,-0.1760265729130612
249,124.7464871,0.3972961660171,-0.06857687024379999,-0.08785112904060002
250,125.247774706,0.14257798604728,0.2544850338964,-0.008115315496199977
251,125.749062182,-0.616874731731,0.32785016560240005,0.96399271839844
252,126.25034996599999,0.511659997576,-0.0826338631594,-0.5838195153511999
253,126.75163769999999,-0.22592451372280004,0.0125320917078,-0.0642279334316
254,127.252925642,-0.3097658619952,0.14863575408746002,0.8093926289084
255,127.754213466,-0.0606004202638,0.2918501393986,-0.2745888372924
256,128.2504887142857,0.13403346307285716,-0.6071799807173469,-0.20510279532081635
257,128.74676398,0.47977503124160004,0.21150834970719998,0.103318534689
258,129.24805234,-0.9562055778748,0.576927250207884,0.737293606468
259,129.74934074,0.40234462279140004,-0.5027552494404,-0.4724127493188
260,130.25062935399998,0.4231635873382,0.36223291636620003,-0.12378956654100001
261,130.75191816,-0.17422680685900005,-0.160139624682,-0.023577131227800016
262,131.253206838,-0.4269276797726,0.476429026355,0.7769532938589999
263,131.7494827653061,0.8758034663718367,-0.16938066331632654,-0.40635159549857136
264,132.24575865999998,-0.43019368300620003,0.0005963224567999892,-0.37022830550880004
265,132.7470475,-0.01752083088319999,0.27701821504224,1.0614056120376
266,133.248336552,-0.2506434424984,0.268545476732,-0.24611123640306
267,133.74962592,0.15105025655760002,-0.6979596147918601,-0.18518737745283997
268,134.250914944,0.55781683031,0.19343939496035997,-0.18401980542218002
269,134.752203924,-0.7828720443346,0.5558069201446,0.6588510683732
270,135.25349315,0.0565704607334,0.15838353038898004,-0.00852313540577998
271,135.7497693367347,0.8565191343551021,-0.20059045732428574,-0.3791739996271429
272,136.246045912,-0.18570987292860003,-0.126131224394,-0.15850496540059997
273,136.747335888,-0.6357702604962,0.35267412210739996,0.985955889478
274,137.24862523800002,0.2999423584662,0.002634264185879989,-0.5628920848818
275,137.74991442,-0.025071241097999974,-0.59949869545586,-0.065677902532
276,138.251204024,0.630099355904,0.360188069041758,0.047657169847200004
277,138.75249394,-0.936433627432,0.5542783643498,0.731799223455
278,139.253783452,0.015300689918000003,0.048554156164,-0.113665568684
279,139.75005958367345,0.5814801792183674,-0.08213403633734695,-0.31525245290465104
280,140.246336476,0.035868265054399974,0.0177962815066,-0.227554536158514
281,140.7476264,-0.5248880424958,0.3347972308616,0.9635676374646001
282,141.248916288,0.9084609629026,-0.14500189672360003,-0.6702741304168001
283,141.7502065,-0.34992179094000003,-0.1343174841808,-0.3447391113504
284,142.2514969,0.2928764251916,0.06883621760032,0.81805478776132
285,142.75278906,-0.874177603198,0.5213291755178,0.3547334881162
286,143.254078832,0.5002648033472,-0.500485804728,-0.549440600326
287,143.75035420408165,0.3810885152465306,0.36976912916367344,-0.19616480121265303
288,144.246631402,-0.17696275409520001,0.0017457213359999878,0.22349821740179998
289,144.74792108,-0.40830393538899995,0.4814062581804,0.609083720356
290,145.249211376,0.9907477821712,-0.16525347084,-0.7394799271688
291,145.75050208000002,-0.363878644417,0.07648168596721999,-0.138943701806
292,146.251792372,0.19365544375239999,0.054806349904599996,0.886481630056
293,146.75308248,-0.7037770564311999,0.297174175513922,0.095944073186
294,147.24936000204082,0.43564795374632653,-0.631680828652449,-0.4486798640461224
295,147.7456379,0.36703376695258,0.6089834638907999,-0.16777599476000002
296,148.246928244,-0.1704720581486,0.015861309210419998,0.41286248324599994
297,148.74821828,-0.34987145813799997,0.31502524537939997,0.36606939154499996
298,149.249508778,0.79307486263394,-0.34720249651206003,-0.5031041060228
299,149.75079974599998,-0.14908748661340002,0.1530033903248,-0.38065256951800003
300,150.252090084,-0.03903977143499999,0.13984319652740002,0.93597383162
301,150.75338019999998,-0.48311572093432,0.625119995756,0.08707261910659997
302,151.24965765510203,0.42652414341877554,-0.7235683488769388,-0.532974267600204
303,151.7459356,0.582284393124,0.35455033574702,-0.2248415802008
304,152.247225872,-0.6061458569488,0.6833707123736,0.7076214194831
305,152.74851546,0.2005053224044,0.05203385171879999,-0.1670901631436
306,153.249805834,0.718871550110282,-0.0673300625724,-0.08812371452195998
307,153.75109622,0.1634828638334,0.1484054439732,-0.153632655976
308,154.25238663,-0.4701957833938,0.5082834059674,0.8395026320182
309,154.7536774,0.4986831841692,0.39051606800258,-0.4126004461228
310,155.2499547857143,-0.06340217081571428,-0.3435842413702041,0.06260110222816324
311,155.746232288,0.69283948870616,0.2509429602374,0.22586719344199999
312,156.24752249,-0.6626459172072,0.8862819886034,0.514529132716
313,156.74881208,0.8308524248908,-0.452206882852,-0.541779929264
314,157.250102456,0.5273071173906001,0.601537596178,-0.0709815610364
315,157.75139302,-0.305388835162,0.15643350732599998,0.48402723753000004
316,158.252683344,-0.30941752000578,0.6389198515044,0.5156466993351999
317,158.75397426,1.2159450717120002,0.314247980882,-0.6827599706931999
318,159.25025145306122,0.0928434922622449,0.3737005940714286,0.08798785104346939
319,159.74652846,-0.212271960998,0.4037973459973,0.8639649498459001
320,160.247818688,0.5163685381036001,0.9342088788208,-0.20183801401260001
321,160.74910921999998,0.25517849619200006,0.040559796085999994,0.073119735756
322,161.250399556,0.761838527994,0.39685128062499997,0.40939718935579994
323,161.7516913,-0.094886943244,1.3410603015412,0.4941591524476
324,162.252981128,0.6462381447146001,-0.3730947451232,-0.29149611972600004
325,162.75426950000002,0.6723527571282,0.6873125777037999,-0.2160296039486
326,163.25054661836734,-0.3775138676489796,0.8681847710663266,0.8367710107257142
327,163.74682376,0.15498256760139997,0.373827833877,0.010944631136400016
328,164.24811381,0.8895803210974,0.12124774680658001,-0.13058503688399997
329,164.7494039,0.1590094981918,0.2539868160524,0.0386434179066
330,165.25069382,-0.38523037220519996,0.5679054349538,0.9517012161767999
331,165.7519831,0.8410891745344,0.22014059417988002,-0.6799120491898001
332,166.253273112,-0.22949260748800002,0.17963354584839997,0.009018394544599975
333,166.74955063265307,0.30736580002557146,0.2204676074797959,0.7875012260293878
334,167.24582769,-0.852274038588,0.6053752933708,0.44710152100979994
335,167.7471176,0.328056467169,-0.7160641966126,-0.497032836772
336,168.24840758,0.3810976479248,0.59568764986436,0.0843468693148
337,168.74969732000002,-0.360353100903,0.6583298592958,0.6442389583202001
338,169.25098709999997,-0.24134021829549998,0.12493374385719999,-0.07778924034174
339,169.75227686,0.819894666716,-0.015873167346,-0.03456545282740002
340,170.25356664999998,-0.06955900945877998,0.169203522347,-0.06395831830879999
341,170.7498440367347,-0.6140593015128367,0.3900367002781633,0.9142237185132652
342,171.246120656,0.7144688305479999,-0.16281209454860002,-0.42278347738120003
343,171.74740948,-0.44452032025800003,0.0843741524186,-0.3140641502778
344,172.24869909,-0.2796746518168,0.2978396880096,0.928857278966
345,172.74998878,0.19997414968599997,0.19871139664759999,-0.3860491519134
346,173.2512785,-0.2458389433,-0.1184658170906,0.15501517163
347,173.75256856,0.10898123558946,0.4235799851058,0.531276201508
348,174.25385827,-0.22022129154640002,0.33059438091000004,-0.1743042238996
349,174.7501350653061,-0.042960639006326524,-0.12623693491285715,-0.07890019195575511
350,175.246412036,0.1486011970734,0.3385041726792,0.5742552597204
351,175.7477021,0.3264678839062,0.1473996703022,-0.4242102214288
352,176.24899208399998,-0.22299440959279998,-0.0492519394512,-0.2109310541304
353,176.75028193999998,-0.30461521930086,0.1033834153956,0.5982963909494
354,177.25157209199998,-0.07067898519119996,0.08941398455720001,-0.357980645743
355,177.752862144,0.029774063063600007,-0.6197919075902,-0.16522429320199997
356,178.254152324,0.195063985344,0.255259632133,0.5008299367346001
357,178.7504295612245,-0.4749358551522449,0.3511455026295918,0.06559842078693878
358,179.246706992,0.25190686205220003,-0.85910525876018,-0.3620968750008
359,179.74799776,0.5376581976744,0.35344659190800004,-0.04862764388820001
360,180.249288204,-1.0148666871806,0.44883629636180006,0.7140545846072
361,180.75057848,0.07698614283760001,0.0609330624678,-0.3921390387856
362,181.25186912,0.43720183993156,-0.1443323729154,0.01669119282440001
363,181.7531602,0.2949364284558,-0.044234794501599985,-0.43755209397680006
364,182.24943798367346,-0.6973056155510203,0.3444326962222449,0.9377473653795918
365,182.74571568,0.721011467293,-0.18060726515,-0.4662034389998
366,183.247006462,-0.4096340600272,-0.1473887886086,-0.012121967991999955
367,183.74829706399998,0.331912594697,0.2261096541298,0.55936188690876
368,184.24958797600002,-0.958571799823,0.5082458317683399,0.36649323275840007
369,184.75087846,0.32841438105740006,-0.689103182285444,-0.6163997682722
370,185.25216960400002,0.31068979225820004,0.21380063952691997,-0.12025150994391998
371,185.75346140000002,-0.4208174037618,0.09793253570520001,0.345043189919
372,186.24973965918366,-0.18081593768387755,0.3498954514686531,0.18872876577551018
373,186.74601802,0.8563476709196199,-0.185669796124,-0.17624907795356
374,187.24730910999997,-0.218203616288,-0.12878905286660003,-0.41485068855199997
375,187.74859988,-0.3457433005082,0.26161645015560003,0.8784352064702
376,188.24989117,-0.33394546114199997,-0.1365244105238,-0.17031889040400003
377,188.75118292,0.14080468929880002,-0.579220528188,-0.18027631275399997
378,189.252474154,0.37992144536620004,0.340254805621518,-0.18760302595540002
379,189.75376534,-0.987755527961,0.4364697744,0.7868719491234001
380,190.25004375510204,0.29972524931836736,-0.6491073093128368,-0.4899747148137143
381,190.7463221,-1.8746172399999316e-05,0.25525859717620003,-0.060757201635999986
382,191.247613408,-0.4027222944514,-0.02611019183579999,0.32805363702100004
383,191.74890404,-0.1569496820084,-0.23094465827300004,-0.300704607348
384,192.250195452,0.4453407314332,-0.19560894590539998,-0.04535633723839996
385,192.75148716,0.04312913274440002,-0.26749535777536,-0.2570534702092
386,193.252778692,-0.61207228484,0.3781382609222,0.668957793552
387,193.75407044,0.41373703958200003,-0.3715378128506,-0.5937898014530001
388,194.25034916326533,-0.13671101051183673,-0.3232551312355102,-0.12405961077204081
389,194.74662772,0.33202934024976005,0.08117296558774,0.23063565629160002
390,195.247919404,-1.369447089304,0.44458191488958,0.7027320946988
391,195.74921117999997,0.544969714036,-0.39467758989328006,-0.7174347429582
392,196.250502848,0.27098265471599997,-0.010425322315199997,-0.10174311939519998
393,196.75179484,-0.6851183164756001,0.2132320855228,0.49173196156800003
394,197.253086548,-0.07819273326960001,0.3053152655174,-0.08324730038319997
395,197.74936559387754,0.60299351754,-0.13235716184346938,-0.09660099061755101
396,198.24564442399998,-0.19957749212039994,-0.1102266341034,-0.016328501776000016
397,198.74693634,-0.6364007190048,0.1065277790492,0.550168064140166
398,199.248228148,0.6683562787638,-0.3726544087856,-0.3782945394866
399,199.74951924,-0.23089983936579997,-0.18236610761682,-0.5387773723211801
400,200.250811168,-0.7790813587501999,0.175829569504,0.8954713498988
401,200.75210374,0.258017255018,-0.0584886457316,-0.52621455931132
402,201.253395676,-0.42799994801800006,-0.5422520334254,-0.13934790811654
403,201.7496750755102,-0.2991178310485714,0.1778333863412449,0.7043532466347959
404,202.24595405,-0.4014173654858,-0.081046589762,-0.39512306003
405,202.74724544,-0.04794188244787999,-0.5325815573336,-0.18513108048979998
406,203.248537358,0.35539738089139994,0.0730847928194,0.39325809058825995
407,203.749829202,-0.5085517755805999,0.6830306149184,0.15657085844080001
408,204.251121168,0.046193266711,-0.71735919702972,-0.4412617079368
409,204.75241372,0.4004006341192,0.10033805680374,0.04475198071459999
410,205.25370568,-0.82520379825522,0.49619612361980003,0.720034625589
411,205.74998376938774,0.366886368297551,-0.6305743086539184,-0.7641411579222449
412,206.246262906,0.096840942436,0.2963314630702,0.10409907953160001
413,206.74755516000002,-0.5477154203494,0.26365107070376,0.47548271298899997
414,207.248847194,-0.2201428921656,-0.25645417738520004,-0.344373847406
415,207.75013891999998,0.4704344198866,-0.03768882490066,-0.027630573213019993
416,208.251430922,-0.10531017822799997,0.11444527154279999,-0.2528497081212
417,208.75272398,-0.6365745566636,0.08180409647599998,0.82904976337098
418,209.254015926,0.7341170188808,-0.3067328761284,-0.78204883825208
419,209.75029425510206,-0.4595677674634694,0.20003106372095508,-0.09118408229367349
420,210.246573306,0.09868132431140002,0.1719837680368,0.8737759696671801
421,210.74786542,-0.7423221125886,0.09601516938655999,0.023814703627600027
422,211.24915733400002,0.4392714443432,-0.436987083391,-0.48408618911940005
423,211.75044898,0.284326515314,0.5290922021792,-0.057294375285999975
424,212.25174087399998,-0.42303995381759996,0.3238114236572,0.55677057632
425,212.75303344,0.05407208582563999,0.3551649950398,0.15073205102780002
426,213.254325326,0.6972879510214,-0.19269762892419998,-0.14413288348659997
427,213.75060355918367,-0.12626818766877554,0.3316135231161224,-0.37236809119469383
428,214.24688254,-0.5296380982494,0.272182380548,0.94336788136166
429,214.74817424,0.37947596356602,0.09556847721522,-0.4408657111204001
430,215.24946604000002,0.08440141212,-0.282349215108,-0.03666469679600004
431,215.75075791999998,0.68690681601802,0.12116717801700001,-0.03173158805410003
432,216.25204974,-1.142618403038,0.841116457709,0.8599829726080399
433,216.75334139999998,0.42398460072059996,-0.08022306197519999,-0.44287807714000005
434,217.24962025510203,0.39076797809862857,0.062487767632591826,-0.025053552968775546
435,217.745899286,0.1541862819828,0.04032810598712001,-0.11584053412739999
436,218.247191026,-0.5707802769708,0.3229079352798,0.8733396504322001
437,218.74848310000002,0.5677825616172,-0.1774108145524,-0.67895954946336
438,219.24977478,-0.1294929055846,-0.3033866491704,0.09622887931978003
439,219.75106631999998,0.6457386580978001,0.164620983382,-0.014528214207999985
440,220.252358,-0.972202788031,0.7735698435374,0.963632202476
441,220.75364957999997,0.33170359773179997,0.1268880061301,-0.26702834057558
442,221.24992828775513,0.4076503515228571,-0.07693880316795917,-0.1633786395930612
443,221.74620701799998,0.2784772063816,-0.0225023311398,-0.39180750162320005
444,222.24749867999998,-0.62960227249,0.46892034775520003,1.0439939954942
445,222.74879016,0.43979563560898,0.07927626915939998,-0.5900111904036001
446,223.25008183999998,-0.0827061581308,-0.48873532785962,0.12340435193799998
447,223.75137331999997,0.7815254715043001,0.016066324247800023,-0.030085959344799997
448,224.2526649,-0.9442764451752,0.841176923711,0.712550131128
449,224.75395618,0.2416256033486,-0.043383217749799974,-0.3112547853071
450,225.25023478163266,0.3140620015663266,-0.05651089895530612,0.03880385343959185
451,225.746513914,0.19388611641220002,-0.05856153708600001,-0.2946918103144
452,226.247805402,-0.761556078159,0.35758888227460006,0.884701047657
453,226.749096724,0.459040851272,-0.12071639277459999,-0.6774639720668
454,227.25038818000002,-0.21766559053,-0.4127580168746,-0.046472313438839945
455,227.75167921,0.52950075879744,0.18567684781700003,0.22906703549159999
456,228.25297063999997,-1.098496781416,0.5805846718704,0.5279088250874
457,228.754262022,0.33675090257859996,-0.6852587666126,-0.5056371783366
458,229.25054052244897,0.11356218804598775,0.40650717314,-0.12328094066469386
459,229.746819374,-0.2467340234132,-0.1005946209808,0.12559419275419997
460,230.248110806,-0.32656626912979997,0.47582148898039994,0.4831799642288
461,230.749402848,0.771399204998,-0.3405840740032,-0.4414331717044
462,231.25069424,-0.47868299353,0.1645830290864,-0.23973302344400005
463,231.75198506,-0.6605380018120001,-0.1442145106574,0.6303897813520001
464,232.253276466,0.288579136858,-0.39764906888199997,-0.6016090842032
465,232.7495542959184,-0.43861656722040815,-0.21448526145634286,-0.07967375477183673
466,233.24583277999997,-0.27821642062516,-0.047250612924599984,0.6172635540039999
467,233.747125004,-0.14224332065540002,0.01208956859280001,-0.35337781119260003
468,234.24841636000002,-0.15034596522600002,-0.4312819024876,-0.25516569663140004
469,234.74970724,0.6072604591014,-0.172299453378,-0.0038232604414199845
470,235.25099854,-0.9148798081586,0.5267597186141321,0.7648320508819999
471,235.752290534,0.30337172701259996,-0.3300952275036,-0.573436953611
472,236.253581906,0.05575131261800001,0.261340408993486,-0.12112652236079999
473,236.74986002857145,-0.21393071277914286,-0.027351305854142846,0.16280060067161223
474,237.24613850000003,-0.4200127274866,0.29557131331508,0.3311464399472
475,237.74742984,0.947383392468,-0.07159468839014,-0.326430286314
476,238.24872126,-0.32140829985799996,0.012183738014600001,-0.3247260568286
477,238.750012776,-0.4372481031782,0.21420346005500002,0.805768010094
478,239.25130420000002,0.5845558610074,-0.06386183919659999,-0.46280405496199994
479,239.75259562,-0.36247212595,0.18551544129696002,-0.012704105096799995
480,240.25388708,-0.19681494579960002,0.1888353792624,0.6298004053730201
481,240.7501657142857,0.34106853647510205,-0.010229238392448972,-0.4014811631479592
482,241.24644434,-0.3284960023322,-0.2171643146756,-0.2614861624862
483,241.74773563,-0.22543296752460001,0.22361437823264002,0.7299159054704001
484,242.24902716,0.009701706051999999,0.1626995707168,-0.32493776116898
485,242.750318262,-0.21786140797388,-0.56841530632764,-0.140621501861
486,243.251609524,0.217283223588,0.38123225077721995,0.5222026910834
487,243.752901376,-0.56609699643554,0.292769555628,-0.26422206305659995
488,244.25419266,-0.04730881028560001,-0.8851626093206001,-0.23583777206844403
489,244.7504711,0.06244233236734695,0.05676306313816326,0.24674838362510204
490,245.2467495,-0.6075031476970001,0.2613068050248,0.012277585815999985
491,245.748040464,0.10455557166388,-0.53315802264122,-0.3941995975196
492,246.24933182,0.12459133678074,-0.1806886583194,0.08982876261760002
493,246.75062373,-0.857742150051226,0.2579259566308,0.3663214182292
494,247.25191518,0.3634973416596,-0.07587635882996001,-0.40732389527
495,247.753206746,0.2353009859202,0.1138503407384,-0.243372002986846
496,248.24948549183674,-0.5970013505510204,0.01816423223877551,0.513383398275898
497,248.74576437200002,-0.21550431942480003,0.1975918596016,0.11380019503999998
498,249.24705622000002,0.698088803207,-0.4201393255416,-0.3101881128264
499,249.74834731399997,-0.10763269226699998,0.09964576992819998,-0.3849408824306
500,250.24963928,-0.61898655884922,0.27992492435219996,0.8821388913384
501,250.75093252800002,0.009418244685999966,0.1015570727014,-0.17819789649360002
502,251.25222482,0.0843464833932,-0.6259158485796,-0.11375223616639998
503,251.753516838,0.5582637798041,0.19557689147458,-0.19640502682095998
504,252.24979630612248,-0.9156459224542857,0.7769892091613264,0.8804414062044899
505,252.746075052,0.3171990121202,-0.3807826525224,-0.40099503275242
506,253.24736764000002,0.4671636336948,0.18408172153176,-0.14220817890160004
507,253.74866091200002,0.09160229325925999,-0.06582231710439602,0.1020979868948
508,254.24995378,-0.58499557163772,0.50678303380708,0.783720066092
509,254.751246636,0.43556640305,0.04320996477419998,-0.4957130500277999
510,255.25253966,-0.16527804082740002,-0.27376033357179996,0.0719876681136
511,255.75383299199999,0.7520033650085,0.0934538491424,-0.1440783874332
512,256.25011339591833,-0.9982919601373469,0.7077917794495918,0.903192349522449
513,256.746393952,0.05686072233300002,0.23941423318829996,-0.144538154017
514,257.24768758,0.76941702229954,-0.09624455570992,-0.17016839469908004
515,257.748981244,0.3493454718161,-0.1113619002154,-0.37326995689200004
516,258.250275088,-0.6653889747421999,0.45955704348958,1.0563664465264
517,258.751568856,0.04788444521959999,0.2199269895442,-0.19593215079899998
518,259.25286288,0.19659168748139996,-0.7665676214496,-0.1531678139914
519,259.7541575,0.585079870936,0.6281101097898,-0.2703997515434
520,260.2504388367347,-0.3846868022204082,0.22095987143285714,0.6926350207844899
521,260.74672039,-0.3175509326096,0.49342758973800005,0.5627031028308
522,261.24801486,0.8894562139098801,-0.2806285374316,-0.6081206722214
523,261.74930916,-0.13901885031199998,0.07960864242817998,-0.16436303340679997
524,262.25060388,0.4353052136808,0.017920125558000023,0.4548683892828
525,262.751898832,-0.9952425718819999,0.6677519690204001,0.7074865124919999
526,263.25319384,0.5991721576816,-0.27597876720854,-0.40594706314760004
527,263.7494756163265,0.294724435989796,0.162834508510551,-0.25756579218142855
528,264.24575786,0.2868791523852,0.1042693972428,0.006692992004408005
529,264.74705338,-0.6187366722716,0.3418590653292,0.9588789073032999
530,265.24834876,0.10140046084440002,-0.06113900138645999,-0.149747239635
531,265.74964479,0.2951283867396,-0.518487165634,-0.2890557375942
532,266.25094042,0.42784600256120003,0.47990386290720005,-0.18069096219980005
533,266.75223564,-0.47717390315400005,0.3516534672124,0.639377431194
534,267.25353142,-0.1855717850438,0.28123627352,0.317782219304
535,267.74981502857145,0.8457751201218368,-0.31242939926283675,-0.5650290140340817
536,268.246098168,-0.306634917742,0.023973280144600012,-0.3016000733788
537,268.747393596,0.04520698763060002,0.13940698250220002,1.0523011231319999
538,269.24868968,-0.448360765759,0.4838193280964,0.124134213132
539,269.749986134,0.42715832314942,-0.7590843256191201,-0.3981574725692
540,270.25128248199997,0.49226283612300004,0.457624901154,-0.4222507609900001
541,270.75257881,-0.18196929795200004,0.15129724295026,0.4913046003178
542,271.2538752,-0.2907140195956,0.43277862010477997,0.51367992986966
543,271.75015869387755,0.6125668057271428,0.03828681033591839,-0.5782529218441734
544,272.24644224,0.0030103395460000203,-0.41758007524707996,-0.03778195934360003
545,272.747739098,0.6694583444491999,0.08209039366679999,0.09295792353000003
546,273.249035824,-0.842952723128,0.7152754949862,0.7598374645686
547,273.75033256800003,-0.13119955584728002,0.3175989440846,0.22021602328
548,274.25162938,0.7588140556386,-0.49024845864822,-0.3637591331512
549,274.752925936,-0.14572641934399996,-0.09275591386592001,-0.5308361284268
550,275.2542228,-0.11985992189120001,0.24759220164870002,0.9558739413364
551,275.7505068142857,-0.7415603984265307,0.4323848851836734,0.1187365443122449
552,276.24679078,0.531297315908,-0.7065126938648,-0.5603938386458
553,276.74808785,0.40499509540872,0.38531742553500004,-0.11073424257579997
554,277.249384866,-0.5540831726134,0.08541247760239999,0.459185084504
555,277.750682204,-0.157188119737,0.5032365805728,0.4655425282118
556,278.25197932,0.8770824238739999,-0.4112287594042,-0.6718337933280359
557,278.753275912,-0.576456701364,0.1478322063448,-0.12423881981799999
558,279.24956003265305,-0.04654456446714286,0.2582902861128776,0.7597967603022449
559,279.74584469,-0.06599343007399998,-0.129023508724,-0.1984494939722
560,280.24714198000004,-0.3318944566082,-0.49218879281059996,-0.156281105534
561,280.748438836,0.6202265896088001,-0.060222906424000015,-0.02925180726040001
562,281.24973608,-1.2735657626558,0.39146048103982006,0.38412775685280004
563,281.75103338,-0.3098854375582,-0.4997644921874,-0.37591226687100004
564,282.25233064,0.289726611916,0.006351970692199981,-0.045966587803199996
565,282.753628102,-0.3298002296098,-0.354850619492446,-0.1880742647264
566,283.24991247755105,-0.5952606404210204,0.22830136092857142,0.5727976724892245
567,283.746197316,0.6896655674427999,-0.1351241017066,-0.33533332700966
568,284.24749476,-0.0983868818868,-0.13630685314439997,-0.47846602087199996
569,284.748791578,-1.0217434980154,0.15372668508600001,0.5932231946128
570,285.25008882000003,0.8669930766139999,-0.4089749852446001,-0.63523115891062
571,285.751386498,-0.2803951983154,-0.16078535609391997,-0.39117551116360005
572,286.25268394,-0.31774824696802,0.3652247787128,0.9680823428998001
573,286.753981254,0.04726564027239998,0.07709155645499999,-0.2948987081204
574,287.25026569795915,-0.0017284906795918395,-0.5458979328289796,-0.09893673853408165
575,287.746549796,0.5458647240226,0.1093075044622,0.060488919706000024
576,288.24784722,-0.820751161034,0.6533858104216,0.6070241789038
577,288.749144838,0.4610995915192,-0.43372796236760003,-0.6094182979602
578,289.25044244000003,0.07616859102199999,0.4115798672676,0.04739562390431999
579,289.75173939399997,-0.3637718509168,0.036430609394999994,0.29216512307360004
580,290.253036846,-0.13280058778978002,0.10315421630300001,0.08284233393839999
581,290.754335164,0.38768208048680003,0.07081241280879999,-0.12921520968279998
582,291.25061985510206,-0.1354258581604081,-0.24194608931232653,-0.2250205836946939
583,291.74690423600003,-0.35047157538580004,0.49993638867582,0.6003501201929999
584,292.24820186,0.76787034605784,-0.182722056818,-0.23746749630859998
585,292.749499176,-0.79466583157352,-0.1062178181372,-0.39491163640500004
586,293.25079676,-0.2478480056272,0.2185438073398,0.7249785750604001
587,293.7520942,0.02852936616000001,-0.023124954394439998,-0.33923992195560004
588,294.25339176,-0.30125663130860003,-0.36663873488680004,-0.11311693618
589,294.7496757714286,-0.23570565434020407,0.20240382201857138,0.6211467951887756
590,295.2459603,-0.02031071287659997,-0.026458311686959998,-0.41437374281796
591,295.747258224,-0.24443644763679998,-0.3758122093436,-0.052755684616
592,296.24855592,0.06733243657689998,0.298226364391,0.6816126417303999
593,296.749852916,-0.4213870921295,0.056764763736800006,-0.3951091436676
594,297.25115038,-0.00022710586280001222,-0.7336888272305999,-0.2169594515704
595,297.752448004,0.37294032596599996,0.2740687974976,0.29570624366462
596,298.25374554,-0.69777762603406,0.3870564167187,0.18701533391519998
597,298.75003053061226,0.23104268480755102,-0.7773804534698163,-0.4337504188567347
598,299.24631508,0.19776597199799997,0.27086817202040003,-0.203767864127
599,299.747612726,-0.58954504456,0.4961129060178,0.6594963203419999
600,300.24891024600004,-0.0017918791977999948,-0.40815921101419994,-0.40910802114352
601,300.75020747400004,0.4734863390468,0.044927642831399994,-0.03969099338859999
602,301.25150487999997,0.047467749348399986,-0.023865644563600012,-0.0920167439204
603,301.752801984,-0.49369988293839995,0.59717183692344,0.9485363522974
604,302.25409940000003,0.9142779133926,-0.0716676558278,-0.6596035465534
605,302.75038382653065,-0.4513135514,-0.04085055189938774,-0.06841634914183672
606,303.2466684,0.12271152128323999,0.1475233564006,0.8422586118138
607,303.74796569800003,-0.5217439829014,0.49953225828224,0.12580262246659996
608,304.2492632,0.49270107329240004,-0.5654004234236,-0.4367678771176
609,304.750560642,0.486541125095,0.46980860998400004,-0.1777579753538
610,305.25185822,-0.2005578129092,0.019109495946699986,0.41908073980099997
611,305.75315562,-0.533885772981,0.5195702220097,0.49963440336240006
612,306.24944015306124,0.7341492555314285,-0.25085924473959187,-0.6484253450059592
613,306.74572498000003,-0.46246622039,-0.34670248354464,0.11208737015800001
614,307.24702258,0.853913983758,0.213446309926,-0.19634635583007998
615,307.748319798,-0.5665671008472001,0.48834356442224,0.78086963024
616,308.249617204,-0.2029552648728,0.55034929863,0.45382830998317997
617,308.750914516,0.85000973359,-0.18954098035646796,-0.720131911532
618,309.25221192000004,-0.24543978892360002,-0.19930505864120002,-0.01462328989199996
619,309.753509768,0.5911905036206,0.03451358798339999,0.12056545859759998
620,310.24979430816325,-1.0536144005285715,0.7101102839216531,0.7850710516061223
621,310.7460786,-0.04578520712379998,0.32041312132599997,0.006915572055999996
622,311.24737600000003,0.9844443900486,-0.2438167890056,-0.40665517264580003
623,311.748674004,-0.1695332702438,0.09566599709538,-0.15323605102219998
624,312.249971544,0.028850939707060003,0.201604476234058,0.7891886042598
625,312.751268704,-0.531451664798,0.5335319579832,0.2986429726584
626,313.252566066,0.2888432087892,-0.685084531248,-0.37873046114
627,313.75386339600004,0.46210179852319994,0.40536435293899997,-0.24160372313120004
628,314.2501478693878,0.0528154347569388,0.04052405050857143,0.1191285464721633
629,314.74643262,-0.25831301302039994,0.6367476986442,0.6848355685537599
630,315.24773032,0.3723395245756,-0.017608936706800016,-0.410812262296
631,315.74902782000004,-0.21391339135739998,-0.3132361084836,0.012938847428380043
632,316.25032548,0.72737037283226,0.0016894828379999927,-0.27837849956399996
633,316.75162334,-1.045259216036,0.712771062306,0.925098641964
634,317.25292096,0.355501262504,-0.1381533512058,-0.5122713590106001
635,317.754218524,0.49363851055436003,-0.21189719540760002,-0.10458684258600001
636,318.2505030510204,0.09405698039510203,-0.057049540906734704,-0.3966162916330612
637,318.746787682,-0.36386740613118,0.2794802787362,1.1261142568186
638,319.24808536,-0.29985114190044,0.532189086407,-0.060987944461000004
639,319.749382654,0.5121248219874,-0.5282010397782,-0.357815286514
640,320.25068024200004,0.2781732681488,0.429613890699,-0.2369246876093028
641,320.75197887999997,0.10339951866020002,-0.0794181694127,-0.08558136860000001
642,321.25327672,-0.49441395662140003,0.4466301886806,0.9630179290434
643,321.7495611244898,0.4521439931877551,-0.0743818276810204,-0.5025440208223878
644,322.24584578,-0.09238863272600004,-0.24106694283062002,0.05401444978719999
645,322.74714397,0.63050369090208,0.21027666879879997,-0.16284459340600002
646,323.24844168,-1.0890962362086,0.41067269510640003,0.8919499929865999
647,323.74973866,0.2123442150268,0.10221221811600004,-0.2967847158132
648,324.25103618,0.7955581985044,-0.015497600711399996,-0.37182995141360003
649,324.75233427,0.08602426581260003,0.014489891495400005,-0.1442466118456
650,325.25363216,-0.695229052775,0.31520858486399994,1.02896131863406
651,325.74991690408166,0.002121471315918378,-0.12755420520877553,-0.4721339171028572
652,326.2462017,0.0973831138076,-0.4148731184628,-0.199352409378
653,326.747500048,0.33470891455819995,0.1787312678396,-0.18347009693632
654,327.24879799999997,-0.6894337428539999,0.323276871173,0.5801405524734
655,327.75009578,-0.05993855058080001,0.2600857309646,-0.12153643555160003
656,328.25139368,0.521564625397,-0.11212009115386,-0.0845188242468
657,328.75269144600003,0.06833564341400006,0.0053023720820000175,-0.404906972066
658,329.253989344,-0.5386282624655,0.326059724848,0.7999065389044
659,329.75027382040815,0.510216934162449,-0.5414509283540817,-0.7142238001920408
660,330.24655866,-0.611096864022,-0.29121293911204,-0.06072431692498
661,330.74785679599995,0.05351754765299999,0.1006309205006,0.6932772054358
662,331.24915488,-0.68831160372294,0.0725986436194,-0.245294590811
663,331.75045313199996,0.0713166591588,-0.909459994769,-0.6805302986606
664,332.25175132,0.053938979796000014,0.2478081685334,0.2361650757836
665,332.753049128,-0.5771980055304,0.286162090798974,0.40246510469255997
666,333.25434717999997,0.1997283268752,-0.2197352417794,-0.48872465671660004
667,333.7506326163265,0.20990300739591836,-0.0269643216310204,-0.08526880028367347
668,334.24691789999997,-0.07090437197600001,-0.34075956654980005,-0.2981768910796
669,334.74821658,-0.6527340095594001,0.32082991672699995,0.7589770116760001
670,335.249515044,1.0232394438184,-0.2242637933246,-0.559329072335788
671,335.750813062,-0.43747840745399996,-0.12153503806560001,-0.3907366542226
672,336.25211126,-0.23307747113521798,0.2187106576126,0.8999091293438
673,336.753409588,-0.4737765247054,0.31173171345539996,-0.016344757008000012
674,337.2496950102041,0.32289095714857147,-0.46536850960057147,-0.22517219363979588
675,337.745981024,0.45365605676739995,0.2238227496248,-0.09303781981912
676,338.24727966,-0.8571895354892,0.5501490489900001,0.72391839304148
677,338.748577944,0.3589150366671,-0.40961837190897993,-0.6521899554277999
678,339.2498764,0.0999633380908,0.2551208425634,-0.03616623337359996
679,339.751175044,-0.4729576162948,-0.013269554249799989,0.3187919514954
680,340.25247386,-0.37936014192080003,0.14087066926560002,0.310551517232
681,340.753773288,0.7651318610686001,0.0643216876806,-0.277322001262
682,341.25005936326534,-0.2706058647571429,-0.24577722074081634,0.007831163992448965
683,341.746344562,-0.6652262934105999,0.4630587362846,0.48341191162074
684,342.24764322000004,0.7253528904554599,-0.32892598315040006,-0.3818037576666
685,342.74894247,-0.3338030054358,-0.016174509481199997,-0.37355858717895996
686,343.25024144,-0.58964604354836,0.23169936423460002,0.7880107412334
687,343.75153987199997,0.5981929946400001,-0.5138040837846001,-0.544611349856
688,344.252838702,-0.5339751242114,-0.026941864749000004,-0.31485868160180003
689,344.754138436,-0.5121444686273999,0.316373402819,0.7769695256902
690,345.2504248,0.31245468550979594,-0.3095741263142857,-0.45664128965204087
691,345.746711348,-0.34905858400199996,-0.18998705269058,-0.24131242655200003
692,346.24801099999996,-0.16642864426480003,0.21251069108874002,0.6822400947612001
693,346.74931031799997,-0.12990670133899998,-0.1519315956824,-0.37003305525712
694,347.2506097,-0.08382475387600001,-0.5545794960154,-0.06745791200979999
695,347.751910144,0.6883671171628,0.179014308098,-0.026036774176799966
696,348.2532103,-1.22484518308,0.6134851066392,0.7699208826871999
697,348.74949663877555,0.30575617497265306,-0.5471943440287755,-0.4969388321720408
698,349.24578418,0.434323489549,0.34023967298378,-0.17793286555880003
699,349.747084616,-0.3668591690724,0.0733835036796,0.19393763039919995
700,350.24838564,-0.44259417733446,0.29379535600400003,0.6123906248384
701,350.749685952,0.914435834972,-0.30218842017034,-0.56394716818674
702,351.25098656,-0.264388831427,-0.0330199810674,-0.3200656972836
703,351.75228801799994,0.00014804571440000914,0.209468262058,0.994812783939
704,352.25358914,-0.6504412403258,0.5513602003038001,0.284283544206
705,352.74987720408166,0.36386874558959187,-0.6784326829232653,-0.39879976122734695
706,353.24616534,0.695296886364,0.10585184677191999,-0.40618936001500006
707,353.74746625200004,-0.7021914143142,0.6936091519052,0.7343380026799999
708,354.24876751999994,-0.06191940004999998,0.24826637977299995,0.0390144587886
709,354.75006936799997,0.8920862505731999,-0.3136496586476,-0.4749479968722
710,355.25137115999996,-0.06012746230540001,-0.10847024160059998,-0.2741564590198
711,355.752672992,0.4799549266234,0.00834719854080001,0.6583963304692
712,356.2539749,-0.8219686040404,1.0171429613968,0.7237264756339999
713,356.7502638653061,0.08484868979857144,0.08618830477081632,0.05029754617142856
714,357.24655290000004,0.9541477964559201,-0.22824535550948002,-0.40478304619059996
715,357.74785498,-0.11430432436839996,0.12304380686219998,-0.2480680188042
716,358.24915708000003,0.24008363997659998,0.20974461311700004,0.989238212315
717,358.750459136,-1.0278582881737999,0.6150460500072,0.46011667459
718,359.25176128,0.65790143966,-0.6616826117964599,-0.5199025485080001
719,359.75306370799996,0.31960878421862005,0.237976028687,-0.4079996346584
720,360.24935306326535,0.17279136210591836,-0.20048066686897958,0.4198120768632653
721,360.74564244,-0.173437877029,0.2357916199776,0.18306787872999997
722,361.246945,-0.09658678734600003,0.33550439318664005,0.27864002213399996
723,361.74824828,-0.1514931305052,0.5764219746992,0.41899307830800003
724,362.24955144,0.19617059436399997,-0.41784625225196004,-0.25160539716679997
725,362.75085440000004,0.12222926631600002,-0.3044216355278,-0.2102465672834
726,363.2521575,0.4163435821178,0.43687858831939996,-0.17545819533539997
727,363.75346061999994,-0.1304099361142,0.11276604478720004,0.41181094332539997
728,364.2497510142857,-0.6428308782130612,0.5628764630087552,0.8146945019857142
729,364.74604115,0.717444005038,-0.2201249528972,-0.6313028825228
730,365.24734466200005,-0.19806518579459997,-0.4433600514884,-0.045027454800600025
731,365.748648838,0.7094337113234,0.0647128839268,-0.062584550025
732,366.24995285999995,-1.031482339775,0.7709325561792001,0.9750237362680001
733,366.751256724,0.031395291198000004,0.26709067774600004,-0.111934570663
734,367.25256074,0.90633993214,-0.295537551442,-0.31106890235
735,367.75386527,-0.06780406128599997,0.21481196810220002,-0.3524805792372
736,368.2501567142857,-0.11059599105367345,0.1499659324814286,0.9838002506571428
737,368.74644804,-0.4372678433722,0.658234994078,0.2506555871722
738,369.24775252,0.4409516827672,-0.7138195265706,-0.37583862713599997
739,369.74905707,0.323060921837,0.5032366506564,-0.269774403638
740,370.25036176000003,-0.01742156266800001,0.11512409819459603,0.302796483846
741,370.751666346,-0.49644842511168,0.3621753330198,0.8295731944136
742,371.252971122,0.5007959995706,-0.2727148455454,-0.676246523262
743,371.754276284,-0.23475472147399998,-0.40222647396905997,0.037894529893
744,372.250568344898,0.6726314155965306,0.21835443568742857,0.10683207864136735
745,372.746860468,-1.152505904270746,0.52776584319722,0.5967950247
746,373.248165668,0.4947113343388,-0.05777171855800001,-0.5512175574631
747,373.749470356,0.32389634863419997,0.18611528377519998,-0.08756365650921999
748,374.25077541999997,0.13811359599200002,-0.09021955541219999,-0.005787574041000027
749,374.752081304,-0.5742988507146,0.40489765748780004,0.8869949922220001
750,375.25338694,0.285330131446,-0.04554859954160001,-0.5671430574616
751,375.7496787102041,-0.22718166088367348,-0.564784952427551,-0.1186754707604694
752,376.2459708,0.4219286495174,0.042378566641999994,-0.030620418274600006
753,376.74727647599997,-1.0953206673338,0.3759950166196,0.5870756776654
754,377.24858204,0.08796127887159999,0.17279687018,-0.30424030173579997
755,377.749888068,0.3495406401694,-0.285858421572,-0.015355887629780025
756,378.25119381999997,0.08685303853000004,-0.13757817812464002,-0.4096666173434
757,378.75249912,-0.68012505741398,0.414514894638,0.9613246339411999
758,379.2538046,0.48013044249346004,-0.3954977904938,-0.77176231121996
759,379.75009699183676,-0.7143007089336735,-0.6088396114836735,0.09908770409408164
760,380.246389586,-0.129080840622,0.059188329324,0.6276640666248
761,380.74769596600004,-0.198747012054,0.40013573184660006,-0.2750938028378
762,381.249002,0.18212469946020002,-0.7229531346984,-0.405029904004
763,381.75030774,0.2389447661134,0.015197691158399982,-0.18948825014226
764,382.25161338,-1.0427199924322599,0.39872883914699997,0.78985449689346
765,382.752918354,0.1587554892764,-0.281419624722,-0.6753316561881999
766,383.25422366,0.265396651666,-0.09360122246199999,-0.022243989484460002
767,383.7505167530612,-0.04476420670204083,-0.2260160661979184,-0.18741598236734697
768,384.24680958,-0.56457493691368,0.3488540250028,0.67400974113092
769,384.74811515,0.642192678431,-0.5147386150582,-0.5245338356447999
770,385.24942068800004,-0.3627435303398,-0.071717795668,-0.4147150916606
771,385.750726518,-0.2702668268082,0.26299489032699996,0.9350994272902
772,386.2520323,-0.40631464831819997,0.134564610904,-0.0765876024628
773,386.753337886,-0.04991040611739999,-0.69739552220372,-0.3515638761617
774,387.24963044693874,0.598760342152449,0.03409120637857144,0.044448289966510214
775,387.74592287599995,-0.7785189561028,0.5322814548284001,0.4461023254314
776,388.24722840000004,0.4294266687076,-0.35263048429980004,-0.471158147382
777,388.748533504,0.15877380274800001,0.16924375113,-0.16513562600259998
778,389.2498388,-0.10053306151800001,-0.20803478787700003,-0.0829994018792
779,389.751144538,-0.9328944364636,0.19420682449979998,0.8825425479974
780,390.25245012,0.724988158654,-0.19923937686479998,-0.47281265213132
781,390.753755524,-0.3276442852068,-0.5783635426388,-0.3052693883236
782,391.2500479122449,0.26004153914308165,-0.10497021185346939,0.4819816664355714
783,391.74634000799995,-0.910480503464,0.771287084626,0.451695807033
784,392.24764526,0.2610861836606,-0.7154805626242,-0.40668618630520004
785,392.74895087600004,-0.08001315286060001,0.04761320467320001,-0.02475125214088
786,393.25025633999996,0.16740215300400002,-0.1927806184044,-0.33530638305620003
787,393.75156146399996,-0.7478294295242001,0.296000276743,1.00068005561964
788,394.25286668,-0.04280494561220001,0.05569464144476001,-0.268201292065696
789,394.754171808,-0.1287774461132,-0.8458696301080001,-0.1941104039546
790,395.25046395714287,0.7000118322253062,-0.04516159057020409,-0.2270657846326531
791,395.746756796,-1.086414714719,0.5562615528088,0.6936159112152
792,396.2480624,-0.408674186919,0.0327181946,0.14253770455672
793,396.749367172,0.7375977611301999,-0.37733585335139996,-0.28339601874
794,397.25067214,-0.23135102228440002,-0.20508551078140003,-0.39425120516
795,397.75197804000004,-0.2213107155462,-0.0051687106161599945,0.8338251727098
796,398.25328362,-0.7529399895624,0.3424593813576,0.179918322824
797,398.7495755367347,0.07014413570591838,-0.6569560030226531,-0.37914495447755103
798,399.24586758,0.0788985974718,0.13874703662800003,-0.152612971722
799,399.74717267200003,0.22184686432631998,-0.38311533494259997,-0.14392137804000002
800,400.24847786,-0.6810569457351999,0.3185450761654,1.0539019620904
801,400.74978355,-0.33864197987,-0.027850539597999973,-0.054696983562399985
802,401.25108912,0.05142713880080001,-0.6257707148398,-0.2532523941246
803,401.75239452,0.341597905246,0.3855781177772,-0.1657950282342
804,402.25370000000004,-0.09519989212980003,-0.18012444877604,0.09637626420371999
805,402.74999261836734,-0.8228660634159184,0.43304926613979594,0.7839008448021837
806,403.24628524,0.717807748572,-0.355081444179,-0.6355198592998
807,403.747590162,-0.437093508574,-0.5320836844112,-0.05964258198400001
808,404.24889542,0.5116810008106,0.0928670928492,0.385717556422
809,404.75020143200004,-1.3386994589288,0.6252022310078,0.8042005470060001
810,405.2515074,0.16124109975399997,-0.22561102693720003,-0.44855151358219997
811,405.75281318000003,0.11568427321681998,-0.08249620797000003,-0.086873264112832
812,406.254119,-0.03485063321060001,-0.4350280614668,-0.32756314923200003
813,406.7504116326531,-1.0215084671006123,0.2308690583155102,0.7914767121091837
814,407.246704448,0.6875898643335999,-0.25596204060259997,-0.47711913812943996
815,407.748010418,-0.5273918610978,-0.49425757868172,0.0027686098639999913
816,408.24931649999996,0.36555714034091996,-0.0028119260106000076,0.37305860339990005
817,408.750623034,-1.2419384829626,0.8069885227512,0.7514683097322519
818,409.25192946199996,0.3992778517058,-0.6815204018638,-0.5518905603684601
819,409.753235742,0.08690664001937998,0.168342788734,-0.23563289731977996
820,410.24952897959184,-0.22403369901387754,-0.12558093696489794,-0.027992960212244938
821,410.74582202,-0.6125525810052,0.10242622617376,0.679978134384
822,411.24712833999996,0.590345113176,-0.305998699788798,-0.6165377040118
823,411.74843514,-0.32841009503400004,-0.3965283447052,-0.13681176021680003
824,412.24974199999997,0.0689769016404,0.1481201583004,0.7760191075832
825,412.7510488,-1.132177544632,0.4086409806222,0.4955949714016
826,413.25235559,0.1671887705368,-0.8213847068478001,-0.6684071963184001
827,413.7536622,0.103613415658,0.145817413726,-0.016878373887800013
828,414.2499558795918,-0.4581428665857143,0.2656094845932653,0.2940013442559184
829,414.74624952,-0.2448100262944,0.03170281966679999,0.01649508888199999
830,415.24755647999996,0.39552156531899996,-0.2573543737234,-0.181533779833
831,415.74886363999997,-0.11226682705759998,-0.11776623278319999,-0.21787526590079997
832,416.2501709,-0.5801695722118,0.3113197946314,0.8147750260165999
833,416.75147888,0.70772219627858,-0.38746102067439997,-0.59771461630736
834,417.25278676,-0.4382006437602,-0.2652048630098,-0.461126816222
835,417.75409416,-0.1214602989514,0.33450085307,1.1572354891249998
836,418.25038863061224,-0.3606007426950204,0.041183801404693875,-0.41341116561167346
837,418.74668336,-0.264664954512,-0.7782805709182,-0.17121315181
838,419.24799121999996,0.8341917873072,0.20673650714199998,-0.2302665449854
839,419.749299278,-1.0821058080000001,0.6229576778766,0.7113764195365999
840,420.25060746,0.027695880752199985,-0.16408671740439998,-0.09516983158622
841,420.751915178,0.4302239774374,0.07851804898360001,-0.23668636675619997
842,421.25322314,-0.2741924310374,-0.533800631684,0.04717697308740001
843,421.7495188204082,-0.46870115403857143,0.6666347558616327,0.6390617331902041
844,422.24581456,0.529891159922,-0.5871641753042,-0.6675622385596001
845,422.747123454,-0.42740801678639995,-0.1290315369058,-0.2675784583268
846,423.24843238,-0.24259716500792,0.4920367067408,1.00673382994114
847,423.749740972,-0.28194796740680006,0.06567975611240001,-0.2726343936958
848,424.25104978,0.133092018883,-0.8996425080170001,-0.3454156342102
849,424.752359346,0.7269516419805,0.026619414199599994,0.08243129807380001
850,425.25366892,-1.316282128798,0.6765799666196,0.5844255909016001
851,425.749965222449,0.19365716909489794,-0.6954241187885715,-0.5935978414167348
852,426.2462616,-0.07875948637299998,0.1805299239906,0.09312707173952
853,426.74757058,-0.05663665118400002,-0.2501792495656,-0.012077236839600013
854,427.24887975999997,-0.5865341845345999,0.475635477366,0.67774524647376
855,427.750189596,0.5371216337636,-0.3176693913774,-0.47716023232800003
856,428.25149940000006,-0.2861545011466,-0.22064308053885998,-0.34080647294500005
857,428.752809452,-0.29016406558134,0.36802036173059993,0.9620199847713999
858,429.25411954000003,-0.21323196271,0.12223627126479998,-0.258347692946
859,429.750416177551,0.08088199237591837,-0.7113451920212244,-0.20664768949795917
860,430.24671307999995,0.6577780867704,0.33085270502196,-0.1729129140782
861,430.748023388,-1.0146289803202,0.6930129697462,0.9655400904220001
862,431.24933376,0.03245321047620001,-0.7547063807834,-0.45896427031259995
863,431.750643948,0.42273979286139995,0.2840161159184,-0.21813607508016003
864,432.25195426,-0.5599227284002,0.2688958828072,0.50941218755082
865,432.75326468400004,-0.081628463718,0.014958885048179988,-0.165642743365
866,433.24956204897956,0.36447511973122454,-0.08822703796857143,-0.014667680787959185
867,433.745859468,0.0018462057460000025,-0.151791075384,-0.402459994178
868,434.24717003999996,-0.7075697475389999,0.35665211742060005,0.913610231454
869,434.74848123199996,0.2649466674714,-0.35759659481312,-0.6113349100576
870,435.24979234,-0.471478551374,-0.22267578317222,0.023249839201399992
871,435.751103296,-0.0418645788942,0.34646172442199996,0.7712506915262
872,436.25241426,-0.256770693026,0.09121158234099999,-0.28060963334419997
873,436.753724828,0.025819830826,-0.911134467755,-0.465574325404
874,437.2500224795918,0.8774174231271428,0.02483933603387755,0.1663479154010204
875,437.74632054200003,-1.3366359941477,0.6305982111427,0.42894170651740005
876,438.2476318,0.05597627841319999,-0.3169384192562,-0.285369804804
877,438.74894321,0.37494732425099997,-0.4158524276642,-0.21647541903099998
878,439.25025464,-0.011409227473999972,-0.38893261864924,-0.5217950232140001
879,439.75156567799996,-0.026332327587999985,-0.025117504247999998,0.906376676071
880,440.25287676,-1.14148908931,0.6177045100452,0.26358745308878
881,440.754187724,-0.06921990612050999,-0.19958257335440005,-0.1631394801516
882,441.2504855836735,0.7508229250577552,-0.14533531353538776,-0.47342696323836736
883,441.74678401,-0.04854051457800001,-0.1321422088723,-0.07348345594600002
884,442.2480956,-0.41482735808200005,0.42899920797580005,1.0481029040874
885,442.749406724,-0.509978870446,0.03126688055257999,-0.002465420050400029
886,443.25071790000004,0.26268802260859997,-0.5821091695876001,-0.38069758142523996
887,443.75202951600005,0.417324528575,0.6877678828764,-0.0265223854874
888,444.25334111999996,-0.10088510486740003,-0.4227781798392,-0.030759675562800026
889,444.74963943061226,-0.8687766883063265,0.20803596161448978,0.7054980599053061
890,445.24593778,0.013489678536599981,-0.284905009592,-0.7046565770604001
891,445.74724932,0.7482770572543199,-0.5181836658942001,0.09119946688040001
892,446.24856086,-0.4062675490223999,-0.83843083151716,0.48607414893
893,446.74987218,-0.21962535504540004,1.0805458996216,-2.69034729658
894,447.25118358,-0.31074958001880004,-0.6373604693178,-0.08136530382199998
895,447.75249529399997,0.9600894386659999,-1.8706787240540002,-0.234218040274
896,448.25380694,-0.874870474624,-0.871369068562,1.71936312074546
897,448.7501058387755,-1.6614273901295917,0.7731005005867349,-0.9734222484634694
898,449.24640472,1.3724010207455999,-1.2671789190759999,-1.250208814224
899,449.74771625200003,-0.20497473514599998,-1.4106350809080002,2.92645391751
900,450.24902782,-1.255121299706,0.7306920297560001,-1.4998941671454
901,450.75033971600004,1.1747253998879998,-1.124852836918,-1.8392090092739999
902,451.2516517,-0.325648653979,-2.1103719043480003,2.7106142955812
903,451.752963272,-1.6792182021975999,0.5820085623737999,-2.127393920956
904,452.25427488,-0.776163440447,-1.5521405416196001,1.25894888130336
905,452.75057381428576,0.4993394781020408,-1.8826144559836735,-1.9338409391232856
906,453.24687278,-1.44336610436,-0.31350571767119995,1.4064036088686
907,453.74818430799996,-0.8943384169527999,0.2872760905113999,-0.056467292311999984
908,454.24949591999996,0.6169326191419999,-1.68076862033,-1.41731460086596
909,454.75080821000006,-0.6750462943027999,-1.7559295841706,2.4159015697140003
910,455.25212049000004,-1.49357079495,1.1561464687176,-0.881066909832
911,455.753432462,0.6684629845454001,-1.358256459802,-1.571905095322
912,456.24973138367346,0.5511823300424489,-1.902368891897959,2.5560166417387755
913,456.74602997,-1.396579549798,0.3360176615231999,-1.0867247632819999
914,457.24734170000005,-0.30666761543983995,0.014325128672599989,-1.399982155649
915,457.74865421000004,0.6656426676860001,-2.1804729449563998,2.5709437262979997
916,458.24996678,-0.7194559499900001,-0.20348124536399992,-0.6557643873406
917,458.75127892999996,-1.4564379350999999,0.624975353096,-1.3123615939359998
918,459.25259114,0.13865805941200002,-2.128729214375,2.385226754838
919,459.753903416,-0.09874269681400001,-1.405503412494,-1.3107731805232001
920,460.25020261428574,-2.18616386747551,1.0905188095808163,-0.5960532067304082
921,460.74650168,-0.3110650781992,-1.721866021452,1.8222343200020001
922,461.24781386,0.6799359585560001,-1.96567644843,-1.8294344587672
923,461.74912617,-1.667698766159,0.326131937936,0.8590214098091999
924,462.2504384,-1.0500175924200001,-0.9945179791379999,0.6063603211677999
925,462.75175088000003,1.041434201522,-2.368240604972,-1.97307211809486
926,463.25306314,-2.151662345328,0.05092265259784,1.372655404064
927,463.74936256122453,-1.0442778826857142,-0.7753921078410205,0.5044440258918368
928,464.24566182,0.7001492975239999,-2.238320992782,-1.7342119786295997
929,464.74697424,-1.481987191818,-1.249631074124,1.8552040149752
930,465.24828676,-1.6696414099244001,0.166296882996,-0.310235136188
931,465.749599144,0.7350313596757999,-1.630106391265,-1.8376383421624
932,466.25091156,-0.6849460223796001,-0.9389641151598,2.5809053468529997
933,466.75222401599996,-0.33651621286,1.2829567476503998,-0.467605630333
934,467.25353669199995,0.9232014544500001,-1.0340272116752,-1.281463526684
935,467.74983583673463,0.5519973722102041,-1.2899899490591837,2.470507085315184
936,468.246135088,-1.507026635546,1.49513187888,-0.52974348839
937,468.747447988,0.56125056101,-1.026199386138,-1.4377991223679998
938,469.24876102,0.8279128716799999,-1.957743016482,2.7522884480520005
939,469.750073768,-1.23519846766,1.0285130942986,-0.908033958183676
940,470.25138654,0.1911140042368,-0.18309577574400002,-1.40522733033
941,470.75269897,1.201984423448,-1.864586696749,2.8239918478334
942,471.254011352,-0.3841213016714001,0.22735214056419994,-0.845638407662
943,471.75031134693876,-0.6393269520091835,0.7420842193810203,-1.3249146936846938
944,472.24661138000005,0.9989768086817999,-1.665728026405,2.960592868552
945,472.747924056,0.44732660364559995,-0.59095346929,-0.7832643223462
946,473.24923664,-1.052558523386,1.2533532241786,-1.0128061985876
947,473.750549472,0.9788602231179999,-1.4957337383820002,2.7744485183184002
948,474.25186229999997,0.7945407832460001,-0.70496587724,-1.0205229561552
949,474.753175304,-0.964471079138,1.5564626396704,-0.9684648267416001
950,475.2494752510204,0.994126379767347,-1.0983664414795917,2.8880904600653063
951,475.74577517800003,1.3547167250528,-1.3073569855239997,-1.5825846662234
952,476.24708832,-1.6286760804659999,1.8287283722033998,-0.10502623158500005
953,476.748401134,0.6153952517179999,-0.9037028144578001,2.45926714051
954,477.24971404,1.598213975507,-1.752360180548,-1.6041149214148
955,477.75102702600003,-1.4466457198824,1.4367948456200004,1.337519999612
956,478.25234006,0.26459805060599995,-0.22986983490819995,0.816568016176
957,478.75365289399997,1.556961389588,-1.80284730941,-1.266769766078
958,479.24995265510205,-0.8354200473142857,-0.5489160925367347,2.310222911411633
959,479.74625222000003,-1.282887276896,1.039870281916,-0.289135505518
960,480.24756486,0.9569436367667999,-1.750705248922,-1.7262166710459999
961,480.748878096,-0.506034332872,-1.7343470903145999,2.4996176588684
962,481.25019138000005,-1.8518721254940003,1.146347423826,-0.7460687624654001
963,481.75150418199996,0.591273803076,-1.7839168610662,-1.5598502648532
964,482.25281702,0.09478009130420002,-1.9043826243254,2.6865939042808002
965,482.75413013799994,-1.817049167124,1.0862555183301599,-1.0204727405060598
966,483.250430122449,0.04458373654285718,-1.0704416670314285,-1.4042321385263266
967,483.746729804,0.58268213232,-2.501879607616,2.94348233679
968,484.24804262,-1.0263740133296,0.4479313344160001,-1.4210675952978
969,484.749355592,-0.8054381044649999,0.07891240856799996,-1.19605524734438
970,485.25066862,0.6774605105096001,-1.8205151099099999,2.8870968644664
971,485.75198187200004,0.03841192672999996,-1.185762686222,-1.22789157074
972,486.25329522,-1.7291306254806,1.207206846568,-0.41588630062
973,486.749595467347,-0.5764579280632653,-1.55221828712449,2.416220658155102
974,487.24589579999997,1.063061601972,-2.1450479044807995,-1.7930582985608001
975,487.747209336,-1.9206063004288,0.745854924132,0.41635670338700004
976,488.24852294,-0.9892522573879999,-1.186011964404,1.355800348576
977,488.74983596,0.7269120796727999,-2.399856266076,-1.689260134182
978,489.25114892,-2.0038939085636,-0.127359245332,1.422308836512
979,489.75246256400004,-0.65377021234,0.42674373846799996,0.21654976624000008
980,490.25377626,1.2372734164944,-1.9319118186394,-1.1862874269780002
981,490.7500770040816,-0.6662380043346938,-0.636181955477551,2.4373779367183674
982,491.24637786200003,-1.373806217832,1.3785926957219998,-0.03059927466204006
983,491.747691366,1.065308371238,-1.6304869457185998,-1.32161601748
984,492.24900478,0.49906525289599996,-1.1604774661180002,2.6914357790079997
985,492.750318482,-1.213006681944,1.9617696312800001,-0.47981642369599997
986,493.25163224000005,1.19391343574,-1.072421140676,-1.289177190866
987,493.75294576400006,0.7783025448259999,-1.1925958124738,3.0390916919168003
988,494.2542593,-1.29298161749,1.6710295155440003,-0.748587216944
989,494.75055985714283,0.6657155018775509,-0.720542844467347,-1.4162826407640816
990,495.24686034,1.246264335114,-1.5814954001644,2.9454813946207996
991,495.748174452,-0.890616020798,1.13272194374,-0.83876071375426
992,496.24948866,0.19652747913000002,-0.37850504514200006,-1.3771295937799999
993,496.75080256,1.025961112378,-2.1414005285066,3.2006897349514
994,497.25211654,-1.5947648256681999,0.39443202422500007,-0.5747980335280001
995,497.75343050199996,-0.41033174388000004,-0.711975209392,-1.708455169042
996,498.24973140612246,-0.11519752896938767,-2.535652275369388,2.8503091116985715
997,498.74603224,-1.6839201411656,-1.032614004024,-1.280013177288
998,499.24734612,-1.7369278525599998,-0.11939053085599996,-1.6981114271416002
999,499.748660222,-0.3414645713120001,-2.937211665668,2.2209099026435997
1000,500.2499744,-2.432588184332,-1.02004979994112,-1.6993342725354
1001,500.751288336,-1.421717013574,-0.6599944913279999,-1.9670406916718
1002,501.25260233,-0.69571309112928,-3.1875621218599997,2.52736098404
1003,501.753916504,-2.62977459173,0.2825525930940001,-1.4703739783988
1004,502.25021755714283,-1.0853643878357142,-1.3522589173244899,-1.5922861595387756
1005,502.74651872000004,0.23691036186399997,-2.9173355295139998,3.2254139788750797
1006,503.2478331,-1.2298869623720001,-0.232519687656,-1.3603956870760001
1007,503.74914751999995,-1.4282340890160001,0.06347400514200002,-1.5287608355553999
1008,504.25046206,-0.14838846955800003,-2.448770809554,2.444497956754
1009,504.7517762,-0.6608192061120001,-1.570065847634,-1.165300658844
1010,505.25309018,-2.5295452116140003,0.7390534191179999,-0.5914795901004
1011,505.74939122040814,-1.0926295351979591,-1.8736300775691834,1.6060689713410206
1012,506.24569206,0.35730204130399995,-2.227025739608,-2.1252815736471997
1013,506.74700623999996,-1.4668222126446,-1.8938241902100001,2.4641281180342
1014,507.24832038,-2.490257044351,0.6520477627706199,-0.968883136786
1015,507.74963477999995,0.10911951357180001,-1.6979947281920003,-1.9433248352516
1016,508.25094932,-0.38600641452000006,-2.6416775408979998,2.7339543951780003
1017,508.75226368000006,-1.4425331100221999,0.4531409227444,-1.4964345856919998
1018,509.25357814,-0.6322975700496,-0.3476654441739999,-1.4197660109980001
1019,509.74987905102034,0.2814388579261224,-2.0794231429,3.061298651122653
1020,510.24617988,0.9278920907658,-1.5474798430019998,-1.9016580674546
1021,510.747494332,-1.7999132936499997,1.4735716686044,-0.17628845311140007
1022,511.24880890000003,0.11196764856599996,-0.93749002621,1.986736505412
1023,511.75012336,1.462152366256,-1.4239126691811999,-1.53891528571
1024,512.25143798,-0.036157725668000004,-0.7287073793972,2.350087731146
1025,512.75275202,-0.99298626016,1.9262218287054,-0.24696708152200003
1026,513.25406588,1.03985245363508,-1.075083149982,-1.4338878439063
1027,513.7503673693877,0.8027780495204082,-1.6530946782448979,3.2041837664816324
1028,514.2466690599999,-0.30347054501400006,0.7117098334699999,-1.184027495906
1029,514.7479836,-0.08788386759920001,0.20308835904119996,-1.366673854107
1030,515.24929818,0.6717885651498,-1.73619616662,3.2329423683945997
1031,515.7506127820001,0.5133527956259999,-1.16690439824,-1.2073202711262
1032,516.25192742,-1.732047596646,1.4556506426767999,-1.0463033592788
1033,516.753241912,0.00893263344399994,-1.8009912335979998,2.84626683345
1034,517.2495431897959,0.45027544385632656,-2.1642917667287755,-1.7545519423867346
1035,517.74584513,-1.975708101294,1.1005194502520002,0.8829900704818001
1036,518.2471605400001,-0.953239560094,-1.2330995337779997,0.9265847352740001
1037,518.748475652,0.10071510282399997,-1.752773385784,-1.8490053758300002
1038,519.24979102,-0.5477777458363999,-1.924990820386,2.5322372695019997
1039,519.7511060639999,-2.2788821106557,0.9023193983188,-0.900007192978
1040,520.25242112,0.014052242014000002,-2.019967880952,-1.7515547148352
1041,520.753736402,-0.8729100788367999,-2.5539669906899998,2.6552095063996
1042,521.2500385897958,-2.9065721184755104,0.5898804800557144,-1.352333553011837
1043,521.7463408,-0.6973885200918,-1.69849651306,-1.6787331168012
1044,522.2476560800001,-0.62734124163402,-2.8788401281860003,2.8718077227920005
1045,522.748971984,-1.71286658377482,0.06107642457800012,-1.6463803674920001
1046,523.25028808,-1.4129750783864,-0.6075061064892,-1.416802823658
1047,523.751604,-0.4348073466964,-2.588234528034,3.032887626534
1048,524.25292,-0.09755673521000001,-1.9804763828486,-2.01099346908146
1049,524.754236032,-2.327093520548,0.55224554462,-0.5949779560180001
1050,525.2505389040816,-0.9092730121714286,-2.0206101890816326,1.8437119931885715
1051,525.746842244,-0.063106688854,-2.26412784308,-1.799222579208
1052,526.24815902,-0.8622531102472,-1.93407161642,1.94143785095726
1053,526.749475072,-2.46363872941,0.993018612786,-0.95099162135
1054,527.25079124,-0.01782321948880001,-1.90599007078,-1.6891005812999997
1055,527.752107972,-0.587592448706,-2.650710167576,2.919610719288
1056,528.25342476,-2.0133293557204,-0.12231408017199996,-1.5267287528540001
1057,528.7497282040816,-1.5902794068489794,-0.476097291144898,-1.5270110359653062
1058,529.2460319,-0.8761387826696599,-2.3084895339080003,2.3096268523359997
1059,529.747348916,0.5841429716759999,-2.480861755704,-2.3349133702302
1060,530.24866616,-2.106242974838,0.56597166109,0.7930157035986
1061,530.749983044,-0.7673030783636,-0.7999282788379999,0.6983368481052001
1062,531.2512998459999,0.570354465248,-2.213979595788,-1.7701878268396
1063,531.7526174019999,-0.39837259734040004,-1.585588006756,2.4604409456706
1064,532.253935306,-1.654910864724,1.02081889551,-0.8880236166616
1065,532.7502394591837,0.17421987871020408,-0.8771023836710204,-1.8328513210530613
1066,533.24654376,0.5861923623176001,-2.0664543797299997,3.0924376413
1067,533.747860908,-0.12397633249200003,-0.497834408052,-0.842924972104
1068,534.24917792,-1.462896974142,0.68526703454,-1.07495527717
1069,534.750495344,-0.37027038783180005,-1.4276119923300001,2.5049931534076
1070,535.2518126800001,1.196795060542,-2.0239984486932,-1.9321801883341998
1071,535.753130422,-1.770684664512,-0.081087198548,1.6345526842126
1072,536.2494351142858,-1.2254450471387754,0.36250607003591834,0.46232919233265307
1073,536.745739596,0.3271313616172,-1.83551161605,-1.746538417809
1074,537.24705722,-0.08678220535459999,-2.257808862302,2.3893818622226
1075,537.748375094,-1.5524646527577999,1.039814698276,-0.9801716891250001
1076,538.2496931860001,0.086062179346,-1.0547461245541998,-1.652222069402
1077,538.7510109360001,0.657572884612,-2.259260655902,2.7040150927202
1078,539.25232852,-1.39903185469178,0.61203735922,-0.6891843413120001
1079,539.7536464159999,-0.167616459274,-0.0007228154474000626,-1.640117514293
1080,540.2499513489796,1.3129915170387754,-2.0870284611020407,2.7904538380332653
1081,540.746255976,-0.5862412977568,0.46290146361300005,-0.9518380582802
1082,541.247573708,-0.3631921172540001,0.27903583762596,-1.2167178514946
1083,541.7488914959999,1.2576682124062,-1.871492656296,2.82721695562264
1084,542.2502092,-0.519873727304,0.3592723131999999,-0.8460152958952
1085,542.75152728,-0.3147928302479999,0.499073392062,-1.5505807790326
1086,543.25284556,1.4361601828900001,-2.036672755982,2.87005206134074
1087,543.7541635,-0.9811513495380001,1.4266660588273998,-0.6705244963450001
1088,544.2504682857143,0.28194442133734693,-0.24266394837142866,-1.253481783897959
1089,544.746773036,1.351223960996,-1.8971574309400001,2.858619058973
1090,545.2480909000001,-1.16876222826,1.4207556115074,-0.750501455222
1091,545.749408972,0.4831393143919999,-0.37856654038000004,-1.484105491992
1092,546.25072708,1.11376984315,-1.8778873466100001,2.9214899646432
1093,546.7520450320001,-0.4089559408248,1.089601535024,-0.7443419863059999
1094,547.2533628599999,0.22132923355979997,-0.1500520024143,-1.3394573574728
1095,547.7496677142857,1.1616846391408162,-1.7272162987265307,3.177561960444694
1096,548.24597254,-0.4054402557286,0.812261308232,-0.84864566585
1097,548.74729069,-0.19476393562379996,0.165405907712,-1.2066160731544
1098,549.248609,1.297283525248,-1.56846965137,3.1156654715698
1099,549.749927004,0.13914429630459998,-0.348071123754,-0.845426282518
1100,550.2512448800001,-0.8714104200224,0.9496398972660001,-1.247169612484
1101,550.752562916,0.499539362752,-1.789977616977,3.0953373456272
1102,551.253880926,0.21061246838000003,-1.5176754153562002,-1.1848041169741999
1103,551.7501860163266,-2.1068128312489796,1.285727185469388,-0.8382158515755103
1104,552.24649152,-0.11263115537000001,-1.5827099133979998,2.250013985958
1105,552.7478097420001,0.7274776457948,-2.2696470769596,-1.438417219902
1106,553.249127962,-1.912012626668,0.8962673898919999,0.74573623476
1107,553.750445956,-0.43269455468800005,-0.6853171688340001,1.1052712017595
1108,554.251763768,0.995616226586,-2.6745294905882004,-1.8090749332059999
1109,554.753081964,-1.77225181172,0.12917584626800005,1.788484872622
1110,555.2493869897959,-0.7525486471979591,0.10796999443877553,0.6046615462265306
1111,555.745691984,0.8318375053479999,-1.863469609942,-1.6965850289958002
1112,556.2470102,0.5866960062159999,-1.803660966746,2.7338148777638
1113,556.74832833,-1.5466368499999998,1.4855215526368601,-0.6602675769930001
1114,557.249646148,-0.38357047045700005,-0.5447326795,-1.59933436633
1115,557.7509646899999,0.011277267601999999,-2.0049446882236,2.9504946920634
1116,558.25228358,-0.21468824102000006,-1.199935798778,-0.7296989033994001
1117,558.75360176,-2.307289310942,1.12015169874,-0.90925496186418
1118,559.2499066551021,-0.43578012459591836,-1.6955579457067347,2.2589773049398367
1119,559.74621174,1.0019033867206,-2.008662231008,-1.7417494898794
1120,560.24753002,-1.72436328523242,-0.247506194912,1.692157417678
1121,560.748848312,-1.1651188514364,0.17451479374200005,0.4286433228988
1122,561.25016654,0.5612614075912,-2.386578795014,-1.9565525350300002
1123,561.751484748,-1.0172916911426,-1.7709365570759998,3.4740126324746
1124,562.2528028199999,-2.2477397641664,1.1088746886446001,-0.587043120222
1125,562.7541212,0.03592161493200004,-1.774688621146,-1.7449616345224
1126,563.2504264204081,0.45297169649222446,-2.3277264200142858,2.94661237166102
1127,563.74673186,-0.771151645506,-0.3920441967460001,-1.0530774695152
1128,564.24805068,-1.2400275426737999,0.6257836370958,-0.971721468732
1129,564.7493693399999,0.71602778599,-1.129826233072,2.6181134721896
1130,565.25068832,1.1300940473419998,-1.34072925574636,-1.19188216541376
1131,565.752006816,-1.6106524414399999,1.7895315098079998,1.1548031643944
1132,566.2533252,-0.015022146050000034,-0.36082633380400003,1.263301525158
1133,566.7496306183674,0.9709121520530613,-1.3705422300140817,-1.5079493992414286
1134,567.245936,0.35200922357400005,-1.370805672452,2.7136662496196
1135,567.74725453,-1.1163235969343999,1.8841268112399998,-0.6519824494255999
1136,568.2485729,0.338295666908,-0.63594713880558,-1.40491700099432
1137,568.749891606,1.0264767957519998,-1.609378806968,3.14633423459
1138,569.2512104,0.6921140365352,-0.6456471901499999,-1.2255754185504
1139,569.752529176,-0.98303327574666,1.856437859376,-0.8111098507474
1140,570.253848044,1.033863565744,-0.29316300889600005,2.8740979077280002
1141,570.7501536938776,1.9781603400428573,-1.0113623965510203,-1.7133313575571432
1142,571.2464596020001,-0.18442839718054002,1.436890120098,1.7762835139968
1143,571.747778314,0.8731970602448,2.272123249816,0.48056102569599995
1144,572.24909688,2.504555866426,0.23188158097599995,-1.988129774102
1145,572.750415544,2.49175172699,0.4180036242486,3.0268476925462
1146,573.2517339,0.26656603627200004,2.8725876072054,-0.5042671286579999
1147,573.75305296,1.247880745258,0.17335884034480004,-2.1609999861582
1148,574.2493593387755,0.9607939033816326,-1.2972305083265305,3.222523367353061
1149,574.745664732,0.4052127113614,-1.1204299390316,-1.5499609333352
1150,575.246982946,-1.355095741732,1.5337068548946002,-0.834557223534
1151,575.74830167,0.7133440777460001,-0.8848736573820599,2.467810121414
1152,576.24962038,1.3298431374776,-2.0461156175119997,-1.7302430524646
1153,576.750939264,-1.2134932933359999,0.8927169840800001,1.8300709512567999
1154,577.2522584,0.17406173401000002,0.588628756617,0.540567444778
1155,577.753577214,1.25497040071892,-0.8371302821239999,-1.6526605053010002
1156,578.2498827591836,1.0222725251959184,-1.6003711698244898,2.875749804042653
1157,578.746188416,-0.8381670520992001,1.0262777096558,-1.0976579749334001
1158,579.247507206,-0.4690941912726,-0.022583239051999947,-1.374254617126
1159,579.748826268,0.7301599860238,-2.1773063265938,2.920920135956
1160,580.25014568,0.6485108170588001,-0.8794557679320001,-1.478951568752
1161,580.75146444,-2.01360920933532,1.4198600109,0.6533135618660799
1162,581.252783,-0.40277828157000006,-0.6717386475100001,1.36570418695946
1163,581.754101802,0.44582950600419996,-1.294581684576,-1.7124912977482
1164,582.2504073755102,-0.22404894934693878,-2.187272183242857,2.8907915722857145
1165,582.746713152,-0.8711719414778,-1.409481764406,-1.41843278179
1166,583.24803196,-2.362877649946,0.9313152144982,-0.6711487714796001
1167,583.749350952,-1.459916087004,-1.37869722653,1.4191303105559998
1168,584.2506698679999,0.6619726279060001,-2.247877787646,-1.6996060805592001
1169,584.751988416,0.06015034251419994,-1.542682974258,2.6929757835368004
1170,585.2533067,-1.062543492012,0.43798359502500006,-1.2206853159601914
1171,585.7496117857143,-0.5419462533061224,0.08348747552144888,-1.7618199063755102
1172,586.24591672,0.4998382021966,-1.734368982158,2.7594677822480005
1173,586.74723479,0.531141440652,-1.3327390119303002,-1.459170853506
1174,587.24855304,-1.8932681493185999,1.331550974602,0.9609424366300001
1175,587.749870898,-0.05737525980359999,-0.6324636713893,1.0496162220479999
1176,588.25118852,0.6879227345073999,-1.253348066912,-1.6475755328079997
1177,588.752506154,0.19370379428400006,-1.981955693246,2.7803628132047997
1178,589.253823642,-1.6162984603519999,0.36920099664200007,-1.001675789508
1179,589.7501280897959,-0.8279417149965306,-0.0997849787081633,-1.5733532510469388
1180,590.24643244,-0.21715251499240004,-1.9043565578308,2.943953037664
1181,590.747750056,0.6513647963242,-1.9481840937836,-2.0347237275629997
1182,591.24906752,-1.8579992297519998,0.305053064616,1.305558083991
1183,591.750385292,-0.681360591448,0.225434558064,0.573999368116
1184,592.25170348,0.8324734251224,-1.6400675443042,-1.615171298568
1185,592.753021062,0.305073442074,-1.7173130867860003,2.865545010018
1186,593.25433816,-1.2200142780880001,1.3808028204365999,-0.6486619442622
1187,593.7506430183673,0.08918942997142855,-0.1607439857473469,-1.6720083743891838
1188,594.24694827,1.09260604491,-1.34681289733,3.168302773254
1189,594.7482662580001,0.590374384585,-1.0132090835004,-0.9996696272040001
1190,595.24958434,-1.7395145321242,1.726628987968,-0.4760260072198
1191,595.750902734,0.319065338272,-0.5600746509840001,2.39600533089
1192,596.252221502,1.546876801892,-1.82064646777,-1.5994541115146002
1193,596.753540004,-0.1372919160494,-0.12054445560319996,2.3531537068248
1194,597.2498454285715,-0.5267052052387755,1.3014642563081633,-0.20161211531489806
1195,597.74615076,1.116501282378,-1.1277951968108,-1.7816511232604
1196,598.2474686999999,1.056914225426,-1.7744937337620001,3.061027614999
1197,598.7487879199999,-0.900365598108,1.571704828064,-0.36878320131600006
1198,599.2501078,0.4950656230246,-0.44157551041560006,-1.7765808154332001
1199,599.75142722,1.24444406761718,-1.738124005574,3.096052109316
1200,600.25274694,0.11581105837620001,0.33122787392619996,-1.0295665693884
1201,600.754066494,-0.7521876576391999,0.9598233672319999,-0.9453289789425999
1202,601.2503729,0.962425276512245,-1.1766410052836733,3.24483363352449
1203,601.7466796,1.3494628030662,-1.522306410086,-1.804151413874
1204,602.24799932,-1.639034428724,1.99914973503,0.49988215573600003
1205,602.749319924,0.7265678599926,-0.358556269186,1.8280811847232
1206,603.2506412,1.49046667762,-1.8399666215691999,-1.6671422456715999
1207,603.751962004,0.005325796092000061,-0.32341298277800007,2.6171460211846
1208,604.25328284,-0.927691736222,1.4992808935030002,-0.35313019310800003
1209,604.7495909571428,0.8555462947408163,-0.9911591923236736,-1.7967972223040816
1210,605.24589952,0.8792450575799999,-2.102774921002,2.9668325668059996
1211,605.747221274,-0.48472745909399995,0.14051321164800004,-1.2459447318619998
1212,606.24854276,-1.3656917734272,0.6680146026352,-1.179923422956
1213,606.749865214,0.144588486858,-1.92035542864,2.8177814908976
1214,607.251188188,1.028189041704,-1.817187681744,-1.7738967917105402
1215,607.752511106,-1.8992498626756,0.9275655705880002,1.2087101071800002
1216,608.25383424,-0.329085477686,-0.29753397818400007,0.7687332722876
1217,608.7501446142857,0.5044274628959184,-1.4481309155223876,-1.7460717794465306
1218,609.24645544,0.19242525983640005,-1.933900772444,2.4460400253552
1219,609.7477796539999,-1.4106776078096002,0.7447911637679999,-0.8566483463026
1220,610.249104248,-0.568759291962,-0.18970274951619992,-1.855098981562
1221,610.750428914,0.3558934879314,-1.7178453475739999,3.12145718247
1222,611.2517534799999,0.46794507886599995,-1.7646313755716003,-1.694695892935
1223,611.753078934,-1.42756484021,0.6702102203184,1.2261466387389999
1224,612.2493915897959,-0.3809207835530612,0.4397838146534694,0.5450936482751021
1225,612.745704216,0.46808524248640004,-1.1469607380716,-1.63278446833282
1226,613.2470302400001,0.3073544877439999,-2.1487241427248,2.8533017706279997
1227,613.748356864,-0.9787204862214,0.03422006929819993,-1.22921230477
1228,614.24968372,-1.442871137356,0.4003893198000001,-1.4679657613400001
1229,614.751011112,-0.171315057276,-1.9346523970319998,2.7755523146775998
1230,615.2523390800001,0.47220250664404,-2.063855993948,-1.8362067797666
1231,615.753666928,-2.4812203246866,0.883368525782,0.9278061777
1232,616.249981622449,-0.6158930778175511,-0.5646330261857143,0.8785244979775509
1233,616.7462970920001,0.047409376623999994,-2.00947493541,-1.871347212764
1234,617.2476266,-0.4400033988273999,-2.1916279120922,3.45741185506264
1235,617.748955804,-1.991746592484,0.7944129977479999,-0.9230448953166
1236,618.25028536,-0.7960232978066,-0.9242360842139999,-1.846914323888
1237,618.751615094,0.1952921554188,-1.97213765707,3.278533339884
1238,619.25294502,0.9094659120919999,-1.8285224042579997,-1.91812374504
1239,619.754275408,-2.297458211837,1.67671984471,0.39959686383453996
1240,620.2505925408163,0.10021494570612245,-0.6759473656142858,1.5878157062816325
1241,620.7469102800001,1.1938644945199999,-1.4778457727014,-1.50787685009982
1242,621.24824174,0.32239909879800005,-0.8046345974204,2.7473719804617995
1243,621.749573644,-1.0181626807220001,1.8533485003700003,-0.244638819714
1244,622.25090652,0.7217937252759999,-0.5552644273140002,-1.6440402066884
1245,622.752238936,0.8625892462899999,-1.6852740874142,2.85459040918
1246,623.25357142,0.11462479281399993,0.3698133634182,-0.603010480334
1247,623.7498912857143,-1.221628169979592,1.2045014486979593,-0.6555850219114286
1248,624.24621114,0.6301437187660001,-0.6654172696392,2.1700059727956
1249,624.747545052,1.0382190456320002,-1.7959699781798,-1.3478471531564202
1250,625.24887944,-0.16111665325199995,0.09171070061460003,2.3472830497732
1251,625.750214014,-0.61483941543,1.5924326347802,-0.07000481296099995
1252,626.25154904,1.1559358811702,-0.34861856326599994,-1.587143290073
1253,626.75288424,1.755426419716,-0.52060958212,3.2007701751999997
1254,627.25421942,0.8948282614419999,-0.7918318264922,-1.381783188296
1255,627.7505420408163,-0.7790921898551021,2.122832585714286,1.2579929646489796
1256,628.24686536,1.65875936185,2.3345753487684,1.2758131868040001
1257,628.7482018860001,2.853067291542,0.7409805684154,-2.315592234222
1258,629.24953876,1.945638128238,0.38518003934199996,2.9896786676018
1259,629.750876114,1.1132990253522,-0.25737727128059995,-1.2510889135182
1260,630.25221372,-0.779187433151,1.4848089645300002,-0.872938852856
1261,630.7535515100001,0.5346762288078,-0.304314877112,1.57925111005
1262,631.2498758061224,1.133537055922449,-1.1389146979810205,-1.7379500685040816
1263,631.746200824,0.7729461442919999,-1.947844791408,2.4372025378699997
1264,632.247539826,-1.0447948299952001,1.5152505629816,-0.761002902238
1265,632.748878946,0.22443627438599997,-0.20399495842400003,-1.81351706277094
1266,633.2502184,1.060772814662,-1.641079299528,3.3774685414378003
1267,633.751558328,0.513084478738,-1.1545569027164,-1.6003169731840001
1268,634.2528987000001,-1.302631108196,1.7487358659199999,-0.27466942936699007
1269,634.754239144,0.43031508281,-0.486799285162,1.7711731349659998
1270,635.2505663367347,1.0315169788485714,-1.596318530242857,-1.4346942406334693
1271,635.746894132,0.580724525608,-0.99717576078,2.681861992414
1272,636.24823584,-1.20532794879154,1.850919198744,-0.8838843788059998
1273,636.749577828,0.061807928715999945,-0.7199578399443601,-1.6383398789634
1274,637.25092054,0.44837224963600003,-2.08057195556,3.0915742238619996
1275,637.7522631659999,-0.146863673342,-0.9496498259320001,-0.9947796129228
1276,638.253605946,-2.4581700157852002,0.85266183776,0.31846689630799996
1277,638.7499357938775,-1.0488720402512246,-1.106243344944898,0.8371292838653062
1278,639.2462655200001,-0.06143916238997996,-1.799143700752,-2.0759903290226003
1279,639.747609644,-0.516148957722,-1.9883448173208,2.951009714816
1280,640.24895462,-0.18333092163239997,-1.432352213174,-1.491917371886
1281,640.750299176,-2.1653214876804,0.624737020612,-0.47502149635999996
1282,641.251644,-0.8231455316068,-1.2938018065968,0.9028895925238001
1283,641.752989232,1.170376258282,-1.8927956064398002,-1.773906591576
1284,642.254334924,0.18188184117607997,-1.5284445713826,2.6789034767015196
1285,642.7506673183674,-1.4331290365367348,1.2202498735306122,-1.0154024345244899
1286,643.247000024,-0.20798248457399993,-0.5414716875300001,-1.8937170400185999
1287,643.748346492,0.6062418507178,-1.851560340424,3.54558842261126
1288,644.24969276,0.35401908684800004,-1.412414669563,-1.3743557859632
1289,644.751039804,-1.70042553284,1.3348378230220002,-0.05779411921799984
1290,645.25238764,-0.47950473773856006,-1.029716627028,1.7604541127748001
1291,645.753735196,0.692326313794,-1.782821396688,-1.7734106770098002
1292,646.2500693122448,-0.3685736479959184,-1.6358904036979593,2.5788641894040816
1293,646.74640389,-1.846146894354,0.7398039683019999,-0.9857672932816
1294,647.2477526,-0.5829860825459999,-1.034238115034,-1.9021709623263998
1295,647.7491011,0.09223516680959999,-2.3000883947157997,3.120068693896
1296,648.25044962,-0.13172850675600004,-0.6611782369971199,-1.259426768488
1297,648.75179892,-1.7723464959380002,0.7477408732335,-0.856399149926
1298,649.2531485000001,0.27943238401799997,-1.232529535352,2.582913789436
1299,649.749484610204,1.151526062412245,-1.8696192038612245,-1.4545708298725508
1300,650.245821746,-1.626051890896,0.892732701556,1.571910135482
1301,650.747172224,-0.13469812632599998,0.5816147233416,0.8385724338199999
1302,651.2485232399999,1.346021751474,-1.153305925984,-1.4734914507084
1303,651.74987433,0.7725571468110001,-1.1696664236072,2.773227882816
1304,652.251226086,-1.3498016201292,1.6241276598186003,-0.6213297602299999
1305,652.752577626,0.567357281964,-0.5640547043516,-1.7673861216205997
1306,653.2539293799999,1.29027615782,-1.598957314338,3.3531988776452
1307,653.7502680857143,0.28119732032040823,-0.7569578772040815,-1.3042542851222447
1308,654.246607,-1.3372482793580003,1.719085225638,-1.0381361438006
1309,654.747959924,0.8655380671940001,-1.0116479296298,2.6530245042028002
1310,655.24931336,1.5815260276660001,-1.702406476026,-1.4738332378080004
1311,655.7506669439999,-1.438492245462,1.928485210136,0.41736241253800005
1312,656.25202066,0.26086417667,-0.6193281414740001,1.9442409274080001
1313,656.75337482,1.771190454652,-1.9654014363706,-1.7306230688950002
1314,657.2497153387756,-0.3316681648387755,0.25276521610408165,2.7097464567979594
1315,657.746056604,-0.20244500178519995,1.2973061364274,-0.0017867454385999259
1316,658.247411446,1.2483898444342,-1.3713255656752,-1.542256244312
1317,658.7487668079999,0.47375073851399996,-1.0396514555279999,2.9625231865519996
1318,659.2501226600001,-1.016190239608,1.7826818823100001,-0.43681353845
1319,659.75147848,1.11720131657,-1.212385660982,-1.606907797076
1320,660.25283462,1.107748544174,-1.536613014628,2.93726447784776
1321,660.75419104,-0.8265215033600001,0.7707782423880001,-0.8639108983234
1322,661.2505345918368,-0.4644523462918367,0.18763074220755108,-1.4421075315257144
1323,661.746877982,0.6592142097492001,-1.991893667676,3.25335664713544
1324,662.248234904,-0.011868538234000034,-1.011996978727322,-1.152688863396
1325,662.749592428,-2.1072355219546,1.091429286632,-1.0486431575564001
1326,663.2509499,-0.02870061364000006,-1.7883496937,2.305322290026
1327,663.75230794,0.8451957619520001,-2.1144799124316402,-1.3769214270040002
1328,664.2536667200001,-1.9850711368079998,0.9597798931540001,1.19376610922
1329,664.7500116714285,-0.4687569950938776,-0.304198637877551,0.7003586525836735
1330,665.24635644,0.578134770386,-1.99363876922,-1.637417100772
1331,665.747715474,-0.30621933850860006,-1.481018471924,2.683580635272
1332,666.24907466,-1.451177440635,1.099570166692,-0.7876434249580001
1333,666.750434232,0.255684788912,-0.6724850446799999,-1.7158548906800002
1334,667.2517942,0.7522778215460001,-2.0468645117240003,3.345843404876
1335,667.753154278,0.276553033844,-0.9042599138122002,-1.523287175038
1336,668.2495012061224,-2.0956417917244896,1.3745666774,-0.40852840043265315
1337,668.745848184,-0.156786602988,-1.193180603828,1.7686804787526
1338,669.24720904,0.713008798172,-2.1297824269182,-1.535178330446
1339,669.748570074,-1.308286704656,-0.5491236461460001,2.3227269864828
1340,670.2499312,-1.6514683106,0.9661182746579999,-0.34430803130599996
1341,670.7512927180001,0.532389748226,-1.862070511486,-1.5368468100408001
1342,671.252654724,0.06072821112200002,-2.034457059168,2.7940296858034004
1343,671.7540165620001,-1.63306656178314,0.9031327578740002,-1.1745094153402
1344,672.2503640591837,-0.48896167250612244,-0.691222047134694,-1.504161077555102
1345,672.7467128720001,0.19070549422500002,-2.45503465088,3.35544469971
1346,673.24807632,-0.6762224680381999,-0.7823316211360001,-1.2992360744659999
1347,673.749439244,-2.0126379809658,0.25193502797080014,-0.7782964167559999
1348,674.25080206,-0.355656740046,-1.193706105086,2.2147936097920002
1349,674.7521655080001,1.006875198046,-2.393977990228,-1.7047153249198002
1350,675.253529382,-0.9257296793080001,-0.25116434192200005,2.592062635464
1351,675.7498796959184,-0.7618004159387756,1.6630980585624489,-0.3396123530244899
1352,676.2462302,1.514180727528,-1.1629850796680001,-1.6593025094665999
1353,676.747594652,1.2333756625814,-1.435044446396,3.092629090742
1354,677.2489591799999,-1.272287806686,1.293640066809,-0.5822844283299999
1355,677.7503241280001,0.32266819368599997,0.15764637172600016,-1.6211602153860003
1356,678.25168958,1.071537924844,-1.4256469067059998,3.210039497134
1357,678.753055124,0.3453934204836,-0.67002113305216,-0.75128231539252
1358,679.2494073530612,-1.1903536446142857,1.7863749183367348,-0.6648839324516326
1359,679.7457597599999,0.8079962319020001,-0.07010879978940006,2.254956292292
1360,680.2471260460001,1.7733528484160002,-1.4694835760019997,-1.517438766543
1361,680.748492684,0.28570687365400005,1.7332217936502,2.173431745466
1362,681.249859408,1.361498904726,2.6927315802786,0.6272793079079999
1363,681.751226494,3.3090794312460003,0.42879447365279993,-1.936054880838
1364,682.2525935399999,1.7059000469060002,-0.401155720118,2.832291765785
1365,682.7539611640001,-0.03800947464799997,1.2891063694843998,-1.3764708493679998
1366,683.2503159183674,0.17672160995510203,0.3594251002273469,-1.8637258995081634
1367,683.746670538,0.725706407262,-1.7340723295459997,3.1609881902400003
1368,684.24803912,0.865410609672,-1.04272488075,-1.44767643195
1369,684.749408162,-1.390787122447,1.8363564391825797,-0.8708218156992001
1370,685.25077778,0.5939213520926,-1.1434341718092,2.563746411912
1371,685.752147618,1.34931450611,-1.3860707118376001,-1.3296384906954
1372,686.2535177799999,-1.5029788069239998,0.9153621040920001,1.7030720060142
1373,686.7498747367346,-0.14757905135306132,0.4904544550510204,0.5123517525671428
1374,687.24623204,0.493857903742,-1.2095494633862,-1.6490254432272002
1375,687.747603446,0.49048406627286006,-2.5145821105460002,2.53015779197588
1376,688.2489754200001,-0.684755502572,-0.15326393072839994,-1.43347854468
1377,688.750347466,-1.9253651415746,0.5397006361099999,-1.2866438499588
1378,689.2517191400001,-0.08678302395799997,-2.318510176292,2.6430231662998
1379,689.753091904,0.528923621238,-2.426417617628,-1.6642739232335
1380,690.2494514224489,-1.8294443753367347,0.059072367269387714,1.8986947819040816
1381,690.745811024,-0.8570618907424801,0.646440353134,0.15707396746199995
1382,691.24718486,0.6989980804519998,-1.523363679944,-1.7552925651806002
1383,691.74855884,0.0073463074188000466,-2.011956949878,2.7059915510406
1384,692.24993274,-2.0302998233138,0.7699291036360001,-0.9689346856400001
1385,692.751307468,-0.3601488107524001,-0.62792164809,-2.09700755488
1386,693.25268248,0.10156953893799998,-2.0449020104054,3.0658683493774
1387,693.75405787,0.362515892268,-1.40674101076,-1.2355807699719998
1388,694.2504199102041,-2.2666933148387756,1.7319159925248981,0.06406261389040817
1389,694.74678182,0.307221352428,-0.8185944038772,1.724490204996
1390,695.2481574999999,0.8863651301215999,-1.6794291288476,-1.5176940970911201
1391,695.74953366,0.3758586596363999,-1.707272095896,2.7563898605044
1392,696.2509097200001,-1.810271636054,0.72371683936826,-1.0049812438726
1393,696.7522865000001,-0.4685369575436,-0.7525269949479998,-1.5950518773970002
1394,697.25366424,0.020123724782000033,-2.348005590208,3.0401248949297
1395,697.7500278530613,-0.15014609243469387,-0.9903550747336733,-1.5375530702489795
1396,698.24639062,-1.81516729901144,0.9263194119919999,-0.91671908496
1397,698.7477684999999,-0.456532863476,-1.6377507369200002,2.395493611792
1398,699.24914774,1.037935543273,-2.360447202196,-1.834824404168
1399,699.75052608,-2.024153996222,1.043118363032,1.2855596299796
1400,700.25190462,-0.14234964051360002,-0.4764878491100001,1.023734212044
1401,700.7532834599999,1.4010043894324,-2.042327037004,-1.595117576812
1402,701.2496478734694,-0.9033225395871429,-0.311442514677551,2.7899214610356733
1403,701.7460133999999,-0.286373438367,1.2042078799141998,-0.3939078392281001
1404,702.247393136,1.235812144628,-1.589221425568,-1.543387902958
1405,702.7487729600001,0.38919512357200003,-1.079127481982,2.6165201176300004
1406,703.2501529,-1.25737912032,1.512525263876,-0.386934759628
1407,703.75153304,1.118303598798,-1.4804788440268002,-1.62069171313
1408,704.2529139,0.536362133062,-1.0260931074066,2.8392806035482
1409,704.75429438,-0.9302626398279998,1.46579695312,-0.2708423566364
1410,705.2506605836734,1.1405915543734695,-1.2411565573510204,-1.7215129905344897
1411,705.74702754,0.717466785771,-1.2113027860080001,3.152011886897422
1412,706.248408714,-1.202364281872,1.2922716018,-0.36948714750199996
1413,706.74978974,0.895478553672,-0.562017867628,-1.7591982772506
1414,707.251170842,0.8577617381820001,-1.6318082465980002,3.0547324266419995
1415,707.7525522000001,-0.806725018116,1.127894640162,-0.7601223117510001
1416,708.253933778,0.04060704163800003,-0.10934730620620003,-1.4404858713008
1417,708.7503016795919,0.9969975177693878,-1.537923014292857,3.191251229044898
1418,709.246669104,0.493799133522,0.0358945540860001,-0.80483591124
1419,709.74805104,-0.8008281184320001,1.2959006353731999,-1.28133373594
1420,710.249433612,0.877604831692,-1.6263750723686,3.1961274273100004
1421,710.75081594,1.2184449902,-1.022266788694,-1.4336939968382
1422,711.25219881,-1.3409323296079998,1.89933257142,-0.4362746821508
1423,711.75358144,0.26881953564539995,-0.851291718224,2.233866046094
1424,712.2499507795918,1.1206628412369388,-1.9938880913142858,-1.7184122895220408
1425,712.74631976,-1.038771262374,-0.45187729289879996,2.666206888204
1426,713.2477023199999,-1.2330857284513999,0.8581913624836001,-0.520336523072
1427,713.7490854,0.28940773403660003,-1.5532403911388,-1.456232937294
1428,714.250468116,0.410524737162,-2.260806308792,2.5990533238294002
1429,714.75185134,-1.7291200946891998,0.8637256817381999,-0.9534244138992
1430,715.2532352400001,-0.79340904261184,-0.7040718904562,-1.5976060637596001
1431,715.7496050000001,0.25562639614897953,-1.8243222263244898,2.8605165541634694
1432,716.2459742960001,0.6148851929386,-1.4810962514880002,-1.252054739176
1433,716.74735792,-2.031390831874,1.6491254309060002,0.11801251160159996
1434,717.248741786,0.188961199614,-0.5866639165860001,1.8246291992272001
1435,717.750125504,0.8893770656459999,-1.5759748800362,-1.3161697218364
1436,718.251509412,0.29818800665997997,-1.259322986236,2.5642068743202
1437,718.75289318,-1.3501679829458002,1.0114511531213999,-0.8849298256440001
1438,719.2542762960001,-0.5570100257671999,-0.4921627611168,-1.3185174026300002
1439,719.7506463673469,-0.33930561281224486,-1.867585870534694,3.3215539298795917
1440,720.247016956,0.7902165155624,-1.4968330385378,-1.8593177946422
1441,720.74840108,-1.8226373394039999,0.7753239436989999,0.68015411793
1442,721.2497851060001,-0.887485965488,-0.34037976683800003,0.6584717360981999
1443,721.75116932,0.37506129251,-2.099030738308,-1.5623089900300002
1444,722.2525532159999,-0.34871503089199996,-1.65164673855,2.5644359447658003
1445,722.75393756,-1.6236432356059998,1.5023548099219999,-0.8704163171914
1446,723.2503087163266,-0.07552958258469387,-1.5773257778285714,-1.517390367370204
1447,723.74667942,0.98006687801,-1.9752618710299998,2.839810712259
1448,724.248064584,-1.953349477163,-0.03112170007719996,-0.5041484419580001
1449,724.7494493199999,-2.4011585171800003,0.6668192681340002,-1.944163080212
1450,725.250833952,-0.9525986411336,-2.2478261916899998,1.5319644317656
1451,725.75221884,-0.585590514078,-1.6951958417859998,1.0011431899288
1452,726.253603336,-2.167335350798,0.840613568302,-1.158283836054
1453,726.7499745612245,-1.104684286297551,1.139818605957143,-1.3442540314204081
1454,727.24634638,0.240620572316,-1.5859105392297999,1.829986768514
1455,727.7477317400001,0.26078913919799995,-1.038349210258,1.332189911248
1456,728.249117348,-1.5675309686166,1.313970841452,-0.6269260895708
1457,728.75050284,-1.078904486651,0.9290210826631999,-1.541477208186
1458,729.251888212,-0.01648544699999997,-0.782038991556,1.6068942783399998
1459,729.75327386,-0.23719005181939995,-0.688969596832,1.4681554626542002
1460,730.2496458081632,-0.09434060623877556,-0.3759076017414285,0.145462723422449
1461,730.7460176799999,-1.46486889505,1.645498542774,-1.4272518856919998
1462,731.247403624,-0.278730595446,0.321809091327258,-0.919066864632
1463,731.74878946,0.3580008946968,-0.397409707347,1.433431281624
1464,732.2501745640001,1.1071775986716,-0.33382910728720006,1.1138051544820002
1465,732.75156038,0.21013565741599996,1.49844016308,-0.008237510710000038
1466,733.252946628,0.009002841106599995,2.4468191961292,-2.1353857201119997
1467,733.7493187163265,0.8416958758663265,0.6360550112080408,-0.8418152723081632
1468,734.245690424,0.6470963816299999,0.07077708401592005,1.033603481486
1469,734.74707636,0.55196006036,-1.179560877728,1.034428909796
1470,735.248462024,-0.14768487400400004,0.033136977919000124,0.22983832996999998
1471,735.74984796,-0.8981852122739999,1.640130998272,-2.487013728106
1472,736.251234164,-0.8227188660114401,0.109527868616,-0.06302518443800004
1473,736.7526202399999,0.9974113625642,-1.776252458942,1.572966113478
1474,737.254006078,-0.22190577497799996,-0.9124478753594001,0.9484482931002001
1475,737.7503783857143,-1.9625207623251022,2.2581956752093877,-2.3486167553710207
1476,738.24675115,-0.9652333630132,-0.05172931101439993,-0.3640406884399999
1477,738.74813742,0.11807111831400004,-1.891409453854,1.255873608308
1478,739.24952395,-0.05022813204199998,-0.9640619613139999,1.327935945442
1479,739.7509102399999,-1.3807406587496,0.07453306652419207,-0.47387327812400004
1480,740.252296712,-2.149291486274,1.1608581077840001,-2.10373147897
1481,740.75368326,-0.10232564828399994,-1.558075699158,0.0008174407510000714
1482,741.2500556510204,-0.11043100406734699,-1.4642028825591837,2.0074789238483675
1483,741.7464285000001,0.76627777480142,-1.664597338948,-1.560450563352
1484,742.24781523,-1.669416181206,1.012205467194,1.062088823752
1485,742.7492020799999,-1.33116291233136,-0.3064763820742001,0.69269196066548
1486,743.2505888100001,1.03099238398,-1.8923774721772,-2.0858464424754
1487,743.7519756,-0.39012138685819997,-1.956935562646,2.900140613822
1488,744.2533625799999,-1.5535976910659999,-0.587679425788,-1.0553073635819998
1489,744.7497355571429,-1.0947469972244896,0.6235400247571428,0.016129893454489744
1490,745.246108656,0.8676262659000001,-1.358651111914,-2.3100789179584
1491,745.7474954400001,0.37197776322799997,-2.24883765472,2.59390195899896
1492,746.248882482,-1.32549780264014,0.37942889935599994,-1.012210472654
1493,746.750269182,-1.1928894595439998,0.4114614551621999,-1.6957018889642002
1494,747.251655462,-0.1238018808744,-1.5731723449766,2.8917781745617996
1495,747.7530421060001,1.0526213282034,-1.3767795388817998,-1.6309461331619999
1496,748.2494150428571,-0.6605244453510204,-0.4952346670591836,2.9101039323081634
1497,748.74578778,-0.8910424467920001,0.913024936522,-0.9401191596840001
1498,749.2471738600001,0.06406346296200002,-0.8623003060500001,-1.6807069210175998
1499,749.7485603599999,0.20271784461019998,-1.8083133043239998,2.83430095676
1500,750.249946988,-0.08953703337000007,-1.279719594534,-1.361624608404
1501,750.75133344,-1.9270411407099999,1.112422311392,-0.3082060526744
1502,751.2527199399999,-0.5437886817544,-1.210010013342,1.53512997374368
1503,751.75410634,0.63069877725,-2.046540949822,-1.8926310655646
1504,752.2504789081634,-0.48925147395489804,-1.502461250332653,2.6356373419591836
1505,752.7468515200001,-1.8781320060039999,1.4139871492932,-0.6462017868640001
1506,753.248238252,0.40797069673600006,-1.2928216143816003,-1.6610998619200001
1507,753.7496247,0.8251413908776,-2.109748064898,3.031290646662
1508,754.251011148,-1.0132912191499999,0.7646873439219999,-0.8946180950839999
1509,754.7523974200001,-0.23722495366399998,0.287924570363,-1.521337338985
1510,755.253783708,0.980642466108,-1.922827420994,3.089421781947
1511,755.7501560999999,0.7077540884577552,-1.084789158755102,-1.4931466119016326
1512,756.24652795,-1.5363458669441998,2.0595932978034,-0.8195028740502
1513,756.74791398,0.9081092762640001,-1.5261305826700002,2.7406540442592
1514,757.2492996,1.382823554148,-1.4756764440099999,-1.7699713860400001
1515,757.75068554,-1.5743404661779998,2.144477684006,0.461448266749
1516,758.2520724679999,0.49930769607799996,-0.931326575274,1.812258496448
1517,758.75345856,1.459521393912,-2.1635350465779997,-1.7477146612199999
1518,759.2498305816326,-1.7138390150224492,1.453918071669388,1.9102723166673468
1519,759.74620264,0.24694459328199997,0.03620087263879992,0.7982769433839999
1520,760.2475884739999,1.438764257934,-1.292362151792,-1.643435774348
1521,760.74897436,0.4118052130619999,-0.6795954927426,2.88125706899
1522,761.250359824,-1.052168671858,1.42327711196,-0.44893335431180004
1523,761.75174562,0.8562122611440001,-0.804017236584,-1.669240829042
1524,762.253132168,1.3716959693850002,-1.6471691044299999,2.924293728146
1525,762.7495042612244,-0.43173860678979586,0.41915841201244886,-0.9544830392306121
1526,763.245875696,-0.6612775051080001,0.8632762884,-1.5612212088612
1527,763.7472614,1.2304638545820001,-1.4623923534800003,2.965334802754
1528,764.2486475239999,1.2827019551960002,-1.4948515338878,-1.5352134136000002
1529,764.75003328,-1.853074815908,2.119350444234,0.37799356607716006
1530,765.251419172,0.578642595192,-0.7807813371064001,1.7756372299388
1531,765.75280488,1.2872238470202,-2.17195778515,-1.8623080604353999
1532,766.2541903279999,-0.49444337400800004,-0.5341177961560001,3.07501934704
1533,766.7505621020407,-1.1215404069142858,1.160482642312245,-0.8969555360816326
1534,767.2469337759999,-0.26122428324339997,-1.3134757459568402,-1.6914614357109798
1535,767.74831934,0.09159510122000006,-2.2952471923504,3.19763393903
1536,768.249704564,-1.609098041314,-0.9445874585940001,-1.3223481999979998
1537,768.75109,-2.2783079779663997,0.40993088823799995,-1.269993552434
1538,769.252478364,-1.164121117552,-2.133443684122,2.0713964346930003
1539,769.75386428,0.24517662623352007,-2.3669992409732,-2.1091192086056
1540,770.2502336959184,-1.8459993104877552,-1.2361633574530613,2.323950285552653
1541,770.7466048599999,-2.19879545256,0.42583143237224,-0.8417970034202001
1542,771.247989656,0.25979978458799996,-2.162558479526,-1.887179215532
1543,771.74937486,-0.45306441236,-2.3244866387188,2.679299993838
1544,772.250760016,-2.333143482842,0.763961400284,-0.73683467617612
1545,772.75214522,-0.5696549685798,-0.7170808809559999,-1.9308695992398401
1546,773.2535304600001,0.03937360065,-2.2788689544019998,2.741366194195
1547,773.749901822449,-0.34294841030612244,-1.3436018524585713,-1.3253339453755102
1548,774.246272954,-2.16134983663,1.2386744562319998,-0.00268115004000002
1549,774.74765808,-0.1156393022624,-0.855843296032,1.8878545690906001
1550,775.2490433,1.122133302902,-1.562451708598,-1.201288575417
1551,775.75042846,-0.09017473658999992,-0.626397805356,2.51782645561718
1552,776.2518143320001,-0.707816909508,1.9785556778784001,-0.3594244577820001
1553,776.7531995800001,1.1090016084256,-0.3822379251412,-1.614748936901
1554,777.2495705591837,1.060370524134694,-1.3056959521530613,3.1094696903673467
1555,777.7459417599999,0.867521284872,-0.4484541282201999,-1.1477623624076
1556,778.247326798,-1.2216459785420002,2.1840426992162,-0.18598451060799998
1557,778.7487118800001,1.02583287109,0.017673776614599995,2.235533660454
1558,779.25009692,1.9031576330359998,-1.246393453208,-1.584899046780072
1559,779.75148196,0.3854619511312,0.6686392138603999,2.5709836276406004
1560,780.252866796,0.8900130443263999,2.8635899229981,0.18660592363600007
1561,780.7542517200001,2.6766916155586,0.6760652712492,-2.1513107987440403
1562,781.250622844898,2.3197871901428573,0.3201721090336734,3.2817657513551017
1563,781.7469939399999,1.627528646106,1.472827949254,-0.8633481267660001
1564,782.248379206,0.14725203372200005,2.55544309685,-1.6501255211196
1565,782.7497642999999,1.9851587045119998,0.9229775351442,2.8414242834740002
1566,783.251149484,2.9161557604224,0.230425203618,-2.1218255762916
1567,783.75253454,0.9742570552400001,1.457894704276,2.48856186057498
1568,784.253919148,1.163381427362,2.3974232632448,-0.5872250504172
1569,784.7502901979592,1.4398292711979592,-0.07438700665510208,-1.9653882009487755
1570,785.2466619600001,1.0407157774459999,-1.3160104672079997,3.079569118276
1571,785.74804724,1.2270047350652,-0.6412229821091999,-1.5228099783906002
1572,786.24943216,-1.508762025058,1.8831898650119998,-0.12925405569399998
1573,786.7508173000001,0.636426855996,-0.443565130778,2.0432000497839997
1574,787.252201946,0.9232384789199999,-1.172545236496,-1.658086306303
1575,787.7535869320001,0.5595010095668,-1.3278643988656,2.5565972785848
1576,788.2499588122449,-1.1055493400436736,1.481218799035102,-0.9954991988653061
1577,788.7463301600001,0.056042819677399984,0.06384205253899995,-1.3540099020479999
1578,789.24771514,0.5363293186892599,-1.3854888728679997,3.050766497052
1579,789.74910024,1.4518121910539998,-0.9254404819859999,-1.4876933140186
1580,790.2504853,-1.1815225483944,0.994578158507,1.3022183355480001
1581,790.75187016,-0.17187800359940006,0.4549021745380001,0.655340025932
1582,791.2532545999999,0.22387387194980002,-0.7797524495637801,-1.8424433087918002
1583,791.7496252938776,0.18987541080612244,-2.2649586009420406,2.751362606027347
1584,792.245996178,-0.12192932739020002,-0.5588269133725999,-0.961125109284
1585,792.7473808999999,-3.084578849092,0.9413993926966,-0.3752797387299999
1586,793.2487656400001,-1.4490113396396,-1.888804460998,1.677109351274
1587,793.7501504420001,-0.4833465572908,-1.959858422044,-1.7342405891388
1588,794.2515349820001,-0.2646352331858,-2.017910234074,2.334216610292
1589,794.7529197599999,-2.023741685674,0.009194910063799959,-1.582720526296
1590,795.25430468,-1.2020404865980001,-0.5354047334959999,-1.6696736634024
1591,795.7506756632653,-0.24600798300734697,-1.826279361012245,2.4184835544183674
1592,796.2470467380001,0.728816904178,-2.3503007394799997,-2.380045735698
1593,796.74843156,-1.371984120212,-0.3323760040190799,1.884832102266
1594,797.2498166720001,-1.3216035512339999,0.6275125656180001,-0.217194164700112
1595,797.75120154,0.634451286584,-1.6085096769079998,-1.682567598238
1596,798.252585618,0.8931844220560001,-1.5882814797998,2.7040097484656003
1597,798.7539702,-1.3514718828745997,1.1928924764602,-0.7539995403968001
1598,799.2503417367348,-0.3346089861020408,-0.14265365496122442,-1.4640057063367349
1599,799.7467128,0.7408226116239999,-1.5011362618274,2.9437163658641996
1600,800.248097444,0.83010323301,-1.5140993520080002,-1.369006495612
1601,800.7494822000001,-1.7077960064076,2.0644625843560003,0.11292588967200007
1602,801.250867422,0.514506708832,-0.543497847008,2.04266728659
1603,801.752252342,1.4086383386628,-1.4949407448419998,-1.487350772726
1604,802.25363636,-0.15587227987799995,-0.6339557289676,2.7615791883654
1605,802.7500070979592,-0.8352420773632653,1.546971986355102,-0.5672437543877552
1606,803.2463786679999,0.8961574915120001,-0.748835910812,-1.762234361985
1607,803.74776364,1.2983492036359998,-1.809345314302,3.1967212091760002
1608,804.2491476800001,-0.46811746649800007,0.5823654354440001,-1.057742161978
1609,804.7505322000001,-0.67590907458,0.913323554092,-1.296604663574
1610,805.25191778,1.1098566934760001,-1.1186335862936765,3.0523499962002
1611,805.7533027200001,1.294880413182,-1.7172544394216598,-1.5433714838518
1612,806.2496732612244,-1.4691266498806121,1.7200866218861224,1.0957603730183672
1613,806.74604406,0.09583605759259996,0.03071898459720005,1.3333506014
1614,807.247428948,1.20174640663,-1.379590359696,-1.5852889507973997
1615,807.74881368,0.7518449463174,-1.1825522135445998,2.7053511991704
1616,808.2501987200001,-0.507349015018,1.09657239282,-0.74108423935
1617,808.7515834999999,0.0038994556297999596,0.13661033534600006,-1.297179795456
1618,809.2529674560001,0.761853800904,-1.4970734642319998,2.883376403899
1619,809.7493380714286,1.0596185960122448,-1.4324050316183674,-1.4784512938844898
1620,810.24570882,-1.775436345856,1.86042066106622,0.4230392869282001
1621,810.7470934600001,-0.140558264272,-0.852034010518,1.2089080470076
1622,811.248478632,0.588040275262,-1.7513577865683998,-1.540649218756
1623,811.7498633800001,0.09422772228579998,-1.730131224376,2.7099461691914
1624,812.251247944,-1.4969017432716,1.117403168198,-1.0948779278874001
1625,812.7526325,-0.44572672952799997,-0.8704319353009999,-1.7683379721408
1626,813.2540167039999,0.2521379908680001,-2.4140404066639998,3.0260806138336
1627,813.7503873367347,-0.22788423371061226,-1.1565293518585509,-1.3300583584363266
1628,814.2467586180001,-2.08082459071,1.30754038944,-0.766925249214
