Time_interval,Time,Acceleration_x,Acceleration_y,Acceleration_z
0,0.26462090499999996,0.30454648760166664,0.35310134231083334,-0.3120876749854167
1,0.754620905,0.35495513633160003,-0.07453187711,-0.5645316696228
2,1.2546209050000001,-0.0729908971354,0.05690107223919999,-0.006897325480560013
3,1.754620905,0.30744974434853,-0.020221995135799985,-0.11044425006599999
4,2.254620905,0.1407237608225,-0.1919350576724,0.4083314991472
5,2.754620905,0.11566726090808001,-0.28492966889439997,0.05675541877640002
6,3.254620905,-0.3416227632992,0.034252905848199997,0.146149435074
7,3.754620905,-0.06684073864134,0.16173542858200002,0.4913825416532
8,4.2546209049999995,0.12582426138468908,-0.1985912716384,0.18100965500000002
9,4.766308973926829,-0.4946335365024634,-0.3004879834995122,-1.4798397087360975
10,5.2501021506444445,-0.07755033372022223,-0.154681352796,0.4257325701991111
11,5.74761670526087,0.10239836704608696,0.13829940037986957,0.4631836414582609
12,6.250598394673912,-0.0649472131829348,0.16955833331217393,0.1929779259869565
13,6.7535800387391305,0.04054280725391302,-0.05339663445934782,0.02894335210917392
14,7.251094451422222,-0.16323466795640001,0.054774151888888886,0.1988770167511111
15,7.748608831891304,0.07583355771491304,-0.1045370912030435,-0.3348704524826087
16,8.25159036123913,-0.5739703670806522,-0.1064583873112174,0.2920962935565218
17,8.749104652955555,0.24563986322911113,-0.14063570410333331,-0.5980680253488889
18,9.24661888402174,0.24211630781108695,-0.23653124470108694,0.325021142523913
19,9.749600236891304,-0.6091905462934782,-0.12547675161413044,0.018485608309782593
20,10.252581512173913,0.6592991948115435,-0.13791258306282608,-0.22598461485000004
21,10.750095561777778,0.0683969577483111,-0.02674480993155555,-0.00584219828644448
22,11.24760953,0.5911404024552174,-0.37627112632978255,0.05100792391804348
23,11.750590603043477,-0.4139993475671739,0.09956939385521739,0.32160434518326086
24,12.253571604565218,-0.6009902358521739,-0.1539904604804348,-0.4942800584434783
25,12.751085357777779,0.26516396598822217,-0.4888958129702222,-0.3639281484517778
26,13.248599040434783,0.5331345654234783,0.03770261029782609,0.15986354452869564
27,13.75157983652174,-0.7310915951799999,-0.03193812397282608,-0.18292646826086956
28,14.249093369111112,0.052064190982899966,-0.6184220492682222,-1.0972389539155556
29,14.746606784565218,-0.10242405470869566,-0.27886648674413045,1.743323346738913
30,15.249587260652174,0.24674132340652175,-0.25751067117608695,-1.1030053367376087
31,15.752567629565217,-0.11664955255239129,-0.13276466605173914,0.45456516224782606
32,16.250080708444447,-0.033151102064755564,-0.39817461168311113,-0.030990643028888838
33,16.74759367891304,0.1241955783021739,-0.24727826533695652,0.046774148895652116
34,17.250573705,-0.1183715954895435,-0.19104258655130432,-0.12963198575434784
35,17.753553609565216,0.23185119164130438,-0.48487275315565226,0.45185693453913045
36,18.251066205555556,0.24220847553333338,-0.3643671817766667,-0.8494087113244444
37,18.748578661304347,-0.15873724223673913,-0.5981280674393487,-0.15080941244999996
38,19.251558130652175,-0.42216278162304344,0.07825716945347826,0.05435419085869557
39,19.749070285555554,0.08613647085666667,-0.6241193003522222,0.3923159281466666
40,20.246582279347827,-0.021516167609565158,0.11318143555739127,-0.10940420115869562
41,20.749561257391303,0.12835004540173914,-0.4672345428347826,0.3899863595797826
42,21.252540051521738,0.41814135730967394,-0.3725580302688696,-0.5006768392630435
43,21.750051492444445,-0.1961004343248889,-0.058182563984444435,-0.06873941423111109
44,22.24756275652174,0.22091838783478263,-0.002243581026304359,-0.34150319514782607
45,22.750540970217394,-0.4027411128658696,-0.1283061834478261,0.08793442149782614
46,23.253519920652174,-0.23617798412133695,-0.22282654634130433,0.21993512695152173
47,23.75102962977778,-0.4051214376957778,-0.2936237726302222,0.4076718859735555
48,24.24854010326087,0.23742240928173913,0.11240849283556523,0.023915726185217423
49,24.75151756456522,-0.01307782661739133,-0.030862202476086953,-0.3501000093934782
50,25.249027749333337,0.6670664178037777,-0.18309853405508889,0.5260075145622223
51,25.746537820652176,-0.5833679074828261,-0.0323398343068913,0.28432413804782614
52,26.249514903260867,0.6626031968597826,-0.061521183,-0.07104962795282606
53,26.752491834347826,0.33767202622304343,-0.10607062364021738,0.38011641085000003
54,27.25000145911111,-0.4090536117522222,-0.0016929919421111192,0.20692023171444443
55,27.747510922826088,0.7322329619969565,-0.1942393241902174,-0.6023083666
56,28.250487308913044,-0.3058821583782609,-0.06475696811608694,0.16994370578617393
57,28.753463485869563,0.03615991188891304,-0.14704216559,-0.7127397267213044
58,29.25097229311111,-0.3497152185526222,0.10225854158666665,-0.37313867143244445
59,29.74848087195652,-0.01093264768459348,-0.28305426659869565,-0.057963754804347845
60,30.251456332826088,-0.5369252561782609,-0.08134386391000001,0.09863465760869562
61,30.748964403333332,0.6424054450606889,-0.18060258298533335,-0.20690097807999994
62,31.24647221956522,-0.2622227179284783,-0.2659434565673913,-0.3396347502451739
63,31.749446874130435,-0.08361198267065215,-0.05840644565673913,0.3672960633371739
64,32.25242125565217,0.06520227212660869,-0.3364498620842826,0.21263013719999999
65,32.749928256000004,0.05630411938044444,-0.36511089006311115,0.4454462792713333
66,33.24743498195652,-0.4781831003928261,0.023711836861086955,0.5627408649658696
67,33.75040855652174,0.4187598753252174,-0.08927194451413042,-0.389046430563913
68,34.25338186282609,-0.16852163259108696,0.1266439116206522,0.4749109123536957
69,34.750887808,0.10046815342044445,0.2503813399273333,-0.15616259049777775
70,35.24839348543478,-0.019734790793695643,0.21733159988913045,0.008933906986956508
71,35.75136600130435,0.35866625671173913,-0.3299312837713044,-0.12270591572434783
72,36.248871191333336,-0.0010166618568888813,-0.10768488388013332,-0.33493959640377774
73,36.74637614695652,-0.5256604111906304,-0.09432724505478261,-0.06114236170217393
74,37.24934796456522,0.07950957184391305,0.09167466992239129,-0.10589286551956521
75,37.75231956565217,-0.6826792229702174,-0.1733421184852174,-0.17352484621782607
76,38.249823863555555,0.451222467434,-0.12655328081008888,-0.4264459927377778
77,38.74732797695652,-0.3987470430578261,-0.23008584395163043,-0.2038448478956522
78,39.25029911173913,0.22478056861736956,-0.25458133680439127,0.5042414561915217
79,39.75326988152174,-0.16505245403630436,-0.1684512087497826,0.019705326710869532
80,40.250773516222225,0.36364066484355556,-0.07844506627999999,0.4663164350666667
81,40.74827702478261,0.05904242984391304,-0.3473139806928261,0.7931729606743478
82,41.25124747543478,0.2838391117297826,-0.19005189903302175,-0.46913154227826087
83,41.74875073911111,-0.3797463588655556,0.036786356888266654,0.6372677167466667
84,42.246253897391306,-0.07688289238108696,-0.1620512436109348,-0.20905671955652178
85,42.74922401847826,0.07855094774549999,0.05028323891543479,-0.000746903243913046
86,43.252194046086956,-0.4441068859006521,-0.030324664463043466,-0.24317747618913046
87,43.749696906888886,0.16147699620288888,-0.31887250313933335,-0.6739407327406667
88,44.247199683913045,0.1333913297623913,-0.09418283986739132,-0.2875337497043478
89,44.750169444130435,0.019683480895652174,-0.32712982210130437,-0.28930911808913046
90,45.253139116304354,-0.39194183247845654,-0.0050581865341304535,0.13044048392434782
91,45.750641641777776,0.5913278137666667,-0.32236135799022225,-0.01858028831266667
92,46.248144098695654,-0.1631639989021739,-0.08776595027630432,-0.2301064055152174
93,46.751113536086955,0.2470019561763261,-0.26447357430152174,0.7244317013586956
94,47.24861584644445,-0.362477955226,-0.32910821005266666,0.57360756132
95,47.746118072173914,-0.23222343686717392,0.005093444234565218,-0.10273602731956523
96,48.24908728217391,0.5492437582256521,-0.05766866546695653,0.587776526152826
97,48.75205641,-0.2109340370997826,0.4368605056195652,0.20555384261521742
98,49.24955840022222,0.3630024837126667,-0.39309825698288886,-0.9445285161762222
99,49.747060322826094,-0.8745901960673913,0.11337155395043479,-0.10548278567391307
100,50.2500292076087,0.1833070387472609,-0.034027503554130444,-0.8993022855993478
101,50.75299800195653,-0.9138508967167391,-0.3742679830749999,-0.1705764583108696
102,51.25049965688889,0.00030474926000000714,-0.5242114570397778,0.6645214292644445
103,51.74800123,0.8172156098573913,-0.14998437071391305,-0.3954981307215218
104,52.25096976826087,0.14564334247393476,-0.4420410669980434,0.6104999623780435
105,52.75393822369565,-0.15056127458876087,-0.29459642780826084,-0.019149396747826074
106,53.251439528888895,0.4901685085465334,-0.04511849781111109,0.19185941484
107,53.74894075413044,0.06058835463913044,-0.48107544858371737,0.08896344638913047
108,54.2519089426087,0.3374360879789348,-0.06161005630347826,0.06139438052804349
109,54.74940998177778,-0.026122415847133335,-0.11845916277555554,0.5931147787448889
110,55.24691092326088,0.4587140121804348,-0.1255718106628261,-0.036493985507173914
111,55.74987881130435,-0.6233952875036957,-0.05798583960391306,-0.110471652876087
112,56.25284661152174,-0.1270126667776087,0.09977779823999999,-0.22152176115652172
113,56.75034724888889,-0.4764602660755555,-0.07182089355819998,-0.44992855922777775
114,57.247847782173906,-0.6451497466726087,-0.22591254765178262,0.3857121882456522
115,57.75081523195652,-0.04809643136956523,-1.0397077980076086,-1.1670533471152174
116,58.253782568260874,-0.248136761383413,-0.20891634793456523,0.5152657757041303
117,58.75128275622222,0.5156303511982222,-0.3715875287795556,0.16108003194999998
118,59.24878282760869,0.2708626545380434,-0.207533225408087,0.04235058247391303
119,59.75174981739131,1.2473521776695653,-0.3604341032573913,0.7291859854913042
120,60.24924965822222,-1.0080142497966667,-0.4999888327173333,0.8842658254666668
121,60.74674936869565,0.8238367982282608,-0.8917005006989129,-0.35547021164782616
122,61.24971597978261,0.030509352665652183,0.19748027167608692,0.003650079595913038
123,61.75268247065217,-0.07532350912891304,0.08853093435652173,-0.11790872127021741
124,62.25018181155556,0.16299901006922224,0.5490627672795555,0.5678138626733333
125,62.747680942608696,0.3227469039639131,-0.7348718202382609,-0.33901425029130433
126,63.25064705826087,-0.5627704184684782,0.0989198684173913,0.08009464327369563
127,63.75361307413044,0.2730644474630435,0.06422815113695653,0.8354910145589131
128,64.25111200111111,-1.3440485477822222,-0.5101487874371111,0.6941972626736889
129,64.74861088217392,1.0417942119680434,-0.23112524332434783,0.19014893408173913
130,65.25157676456521,-0.41139589964891304,0.23937963922267388,-1.3244008240486955
131,65.74965373911111,0.2571499347517778,-0.43609322442888887,0.8215860048488889
132,66.24876132108696,-0.43747399679293475,0.257379065348913,-0.5100911907463043
133,66.75172729152173,0.660095416936087,-0.7608722604173913,-0.13898207314630434
134,67.24922629888889,-1.3110967610155555,-0.2514093862931111,1.341455226511111
135,67.74672538043478,0.2161457292252174,-1.1972064052304348,-0.11313117061521742
136,68.24969154869565,0.7984536031232609,0.11658829711086957,-0.3606217114478261
137,68.75265780673912,-0.09968116815826089,-0.1697670185505435,0.08785347314956525
138,69.25015715800001,0.4774696360094,-0.3857840657384445,-0.5714493751755556
139,69.7476566202174,-0.33620448081558696,0.17209543609152173,0.3109972580532609
140,70.25062323369566,0.09347260872847826,-0.4836315717067391,-0.08243074632826086
141,70.75358999,-0.34317428655521737,-0.34349731393043476,1.324013305753261
142,71.25108987533334,1.0626805556493333,-1.0304074777353334,0.10159551836666667
143,71.74858992195652,-0.38846186207802175,-0.16618709329126088,-0.576183184282174
144,72.25155715608696,0.12634251396356522,-0.6002975054434783,0.09426998056534783
145,72.74905751266667,-0.2207588977271111,0.09519971741580001,0.13940145705888887
146,73.24655803173913,0.32872358207630437,-0.17455420804378258,-0.19366528679739134
147,73.74952575500001,0.29370243783176087,0.2622382459438696,-0.029947913226739127
148,74.25249361217391,-0.32800440555097826,0.23268850730934784,-0.006279696588413045
149,74.749994556,-0.4440651522848489,0.421214689146,0.026261456814222223
150,75.24749564195652,-0.3588391671945652,0.5591023227104348,-0.4907011259973913
151,75.75046390173912,0.44677285527717386,-0.23647831313347825,-0.7797208765321738
152,76.25343230086956,-0.8103704154530434,0.27102872205217393,1.0599857620178261
153,76.75093378622222,0.1268315964308889,-0.6117731518046667,-0.24255259829644443
154,77.24843541543478,-1.043356369540652,0.7629515632291305,1.054385444367826
155,77.75140422608695,0.6990601724717392,-1.3549597367,-0.3955172870608696
156,78.24890612088889,0.338953528134,0.8251118328708889,0.4359433280202222
157,78.74640815869564,0.7460700454965218,-1.3691864130166087,-0.5548719012239129
158,79.24937739804348,0.03242442529565217,0.27991201828565215,0.5422000574730435
159,79.7523468047826,0.49000478045108703,-1.468861360980391,-0.6281152392666521
160,80.24984933777777,-1.2349726743240002,0.45338009679533336,0.2207816866175556
161,80.74735208369565,0.7597725184569566,-1.2702695212273913,-0.3377989997441304
162,81.25032210586956,0.09462921381319346,0.6308767360934783,0.4253597467630434
163,81.7532923873913,0.5182106689130435,-1.1519766475676085,-0.13988259569130435
164,82.25079584666666,-0.05035348137822221,0.42089935411466667,0.023304769684444476
165,82.7482996023913,-0.14592621122826088,-1.1245841876695652,0.3540586907132174
166,83.25127070913044,0.0572175525795652,0.014848326532608685,-0.25374474737456515
167,83.74877504444444,-0.36328194014155557,-1.013979683997778,0.19907267889333338
168,84.24627965413043,0.5541896865484783,0.009008939569130433,-0.12096519056608698
169,84.7492516445652,-0.46104433614782614,-0.2837179448945652,0.6819780391847826
170,85.25222393826087,0.38544636572826085,-0.02653406110065218,-0.6299404061348044
171,85.74976633644444,-0.7989370120800001,-0.2765825616028889,1.1365440897888888
172,86.24933344043478,0.6752865488963044,-0.592617334852687,-0.7148436774393478
173,86.75239516195651,-0.7215331378197827,-0.04436417830978261,1.2612011847847826
174,87.24990141955556,0.8707813713268889,-0.5244357076337778,-1.02172745598
175,87.7474079202174,-0.7006510690421739,-0.29080963713728264,1.2426918382463044
176,88.25038175913043,0.4032580554354348,-0.36748766838391306,-0.3121513594820435
177,88.753355825,-0.8385300338056522,0.43680742184608695,0.7797849489913043
178,89.25086301333333,1.0313223355331111,-0.887241817492889,-0.5336153454137778
179,89.74837041,-1.0090690241954348,0.2813459032263043,0.5381589351043479
180,90.25134512847826,0.7507088197137609,-0.46462366174826086,-0.43714628013152174
181,90.74885292555555,-0.7399653772517779,0.4221404280398667,0.5337075657244443
182,91.24636093586957,0.929679748823913,-1.0697330456553913,-0.18979550450217392
183,91.74933625347826,-1.9280321870326087,0.4488605286541304,0.9580389209413044
184,92.25231177369565,1.3532209934304347,-1.0116234797284782,-0.9201907800976087
185,92.74982036333333,-0.35304209042655554,0.48051152229266664,0.14887865909111114
186,93.24732914391305,0.23480545554043478,-0.07337184186915217,-0.07135146595217393
187,93.75030523521738,0.017992795151521745,0.37760023963647826,0.07055430825934783
188,94.25328150760869,0.0888714330487826,-0.3054291126633631,-0.29688721110000005
189,94.75079081911112,-0.3458654372154978,0.3415430228146667,-0.13403362699733337
190,95.24830026869566,-0.015320614308413038,-0.44349289847565215,-0.09589745686021738
191,95.7512770121739,0.22819630024565218,0.3556703452173913,-0.07257398309913045
192,96.24878673200001,0.18156670599922448,-0.181552951862,0.029481241447777744
193,96.74629655608695,0.18573833130652173,-0.061291828122630426,-0.25773324141086956
194,97.24927362130434,-0.11897939768130433,-0.16856467725652174,-0.11965858417891305
195,97.75225078260868,-0.16811577261673913,0.051461751036760865,-0.14276103357826084
196,98.25646754285715,-0.5216384061930952,0.39872065610904767,0.17754014330952383
197,98.74944114466666,-0.39845423103111116,-0.15920953748822222,0.5061525451128889
198,99.24695272500001,0.2292213770193478,-0.5810461099384783,-0.0371691455795652
199,99.74993166043478,-0.565661764631087,0.09666592270347828,0.36501653296086956
200,100.2497946452381,-0.3540419829387619,-0.06867940371504759,0.06355208444047619
201,100.74795326521739,0.38495163456586956,-0.2044357372173913,-1.2377734495456523
202,101.25093296739132,0.01598462073260869,0.4890260284931522,-0.5627307477434783
203,101.75391275652173,-0.47825191333717393,-1.0564319050652173,-0.5978504471267392
204,102.25142542666666,0.2372431887657778,-0.1372466987994,-1.2340754508311111
205,102.7489381673913,-0.1450072232802174,-0.14333945578549998,0.6976770421262174
206,103.25191823043478,-0.21477769382025436,-0.27984169774608697,-0.7167692184969566
207,103.74943121555556,0.3264993710599556,-0.08394286106800002,-0.08738368358666665
208,104.24694434130434,0.3075195874963043,-0.12734536371415217,-0.0726338676397826
209,104.74992479782608,-0.5755216330286956,0.18475792786521736,0.7566081648180435
210,105.2529054347826,0.6253810032923913,-0.3663133901195652,-0.3636439469082609
211,105.75041904888889,-1.0170731823111112,0.5050369534160001,0.7493519147748666
212,106.24793285217392,0.7615263842891303,-0.5570990721569565,-0.5403299332313043
213,106.75091405,-0.6288132203895652,0.4649246285923913,0.3292154436241304
214,107.25389539130435,0.7410875053881957,-0.42432995787404343,-0.7167949261647826
215,107.75140974,-0.1366007624077778,0.13295557631111113,0.04729871750222221
216,108.2489243021739,-0.32813519451304346,-0.3676789655250435,-0.2729618133878914
217,108.75190627173913,0.05859998449239131,0.06923034364130433,-0.4685620328652174
218,109.24942122888889,-0.018056110522000002,-0.5531692690833333,-0.4123842980466667
219,109.74693640000001,-0.22295169174913046,-0.09005007443260869,-0.12203972237217389
220,110.24991895869566,0.0014890361226087025,-0.760131005097826,1.1256143632391304
221,110.75290170434782,0.3344612555643478,-0.060623029021956515,-0.18792453024782607
222,111.25041742666666,-0.5795189643862222,0.16162407133244444,0.44772623916777776
223,111.74793331956522,0.16182100301173913,-1.0794734501097827,0.4839815368304347
224,112.2509166,-0.07056747441760869,-0.03134540044717391,-0.4856308128598869
225,112.75390006086957,0.010270870210869575,0.15179130452586956,0.22411860590434787
226,113.2514165,-0.5694864273533333,0.08430803883055557,-0.591187810903111
227,113.74893311086957,0.46936435280799993,-0.5576357789630435,-0.21887217913217388
228,114.25191710434783,0.19180430535478263,-0.048763915243021747,-0.5896922505663044
229,114.74943405111111,-0.27886365251644446,-0.22276036735195556,0.37763404850666665
230,115.24695116956522,0.19112366954369567,-0.10067810179667393,-0.38333609829934784
231,115.74993569347826,-0.418615164957,-0.005884027995652169,-0.1366171733476087
232,116.25292037826087,0.15400454659869564,-0.06604464937913043,0.21037751693304346
233,116.75043799555556,-0.008605819285777784,0.13503392004444445,0.34527407745146665
234,117.24795577608695,0.23558538506202176,0.21131823114739132,0.02600208572021739
235,117.75094093695652,-0.4526410627967391,0.1491603359428261,0.08807341956326088
236,118.25392625652174,-0.06793336637154347,-0.21592445739,0.03485877617608696
237,118.75144448666667,-0.08635732534,0.23237689069971112,-0.4266530037111111
238,119.2489628652174,-0.24526481493108696,-0.12380706874130434,0.24857655816717392
239,119.75194863478261,0.06304312659239131,0.25830926453847824,-0.4173887397569565
240,120.24946730666666,-0.0636850343936889,-0.17801990506688886,-0.2610289255775111
241,120.7469861173913,0.21347552185391305,-0.021941610000652166,-0.10982914591282611
242,121.24997230434782,-0.3148179844441956,-0.23627186079413043,-0.24423445828434784
243,121.75295862608695,-0.05823132008304348,0.09020482066108694,0.04304386220869565
244,122.25047787777778,0.20972960786977776,-0.5119081258872888,0.42913710279022216
245,122.75756023170732,0.5282464405178049,-0.47228471249439025,-1.498352969580244
246,123.24674071956522,-0.615847862348087,0.2677074087586957,-0.23120781654347827
247,123.74972790652173,0.4006794681269565,-0.5221018305573913,-0.5349917826419565
248,124.25271522826087,-0.10719780162021739,0.12379333249971738,-0.35644373688239134
249,124.7502354488889,-0.1210254261411111,-0.013299610852888904,-0.22420142486466668
250,125.24775581956521,-0.07067372312026088,0.08974887760847826,-0.5037254561597826
251,125.75074357826087,-0.3871961389915217,-0.07368317636834783,-0.33756695625869565
252,126.25373144130435,0.3254554334926739,-0.048514016366182605,-0.3248251314380434
253,126.75125215333333,0.056634219491333335,0.2550133864251111,0.02476871277111112
254,127.24877293043478,0.23530956714347825,-0.4925837957588261,-0.19748816283847823
255,127.7517610326087,-0.357599519508913,-0.24686649439108696,0.2500857269978261
256,128.24928189333335,0.07220236318833335,-0.07613895534733332,0.24490980573955556
257,128.74680278913044,-0.1428906195885,0.22366092001543478,0.1458249921578261
258,129.24979095869566,0.25967942716173914,0.008809219234260873,0.14916380597282608
259,129.75277913913044,0.005711403394152175,0.2349597682217391,-0.0735072778891304
260,130.25030005777776,0.10217114092288888,0.15013612374,-0.3629802492273334
261,130.7478209826087,0.4478239611336087,0.3314750013073913,-0.19546022624913045
262,131.2508091673913,-0.39942970424999996,-0.7703779158612826,-0.3608771510478261
263,131.75379734565217,0.11706130693630434,0.2883176116921261,-0.10104042550869567
264,132.25131824666667,-0.2584410786123111,-0.35973662700133335,-0.24577883613555554
265,132.7488391347826,0.23043404511391302,-0.4134767851763043,-0.2637422810978261
266,133.2518273043478,-0.9234557450086956,0.03421649206304347,1.0112888813189131
267,133.74934825333335,1.1322847429395555,-0.7211349205922223,0.26307920885777775
268,134.24686926956522,-0.45606113292326084,0.3271841674695652,0.455638947676087
269,134.74985763478261,0.570669771512826,-0.4806456334265218,0.01570322198847825
270,135.2528461347826,-0.33529300084845653,0.5886411193832608,0.6224315269695653
271,135.75036749999998,0.8371150804911112,-1.2748358620733333,-0.8871181805222221
272,136.24788902391305,-0.6868102710588478,0.9818539171622175,-0.2800782141587609
273,136.75087797173913,0.12692687626086957,-1.7448350671230433,-0.3619511437847826
274,137.25386709565217,-0.027770739516304332,0.37408483254237174,0.2792886961456478
275,137.75138914,-0.15745201273333334,-0.6049243244022222,-0.23947715754444454
276,138.24891137826086,0.08629040654760868,-0.003675811945434779,-0.05213170467152178
277,138.7519011130435,-0.2400224271730435,-0.3114466330304348,1.0025274338934782
278,139.24942379333334,0.47014633286377777,-0.3305442734600889,-0.41420327292
279,139.74694670217391,-0.3446416405123913,0.2360284380021739,1.136163068855
280,140.24993708913044,0.5492505969389131,-0.8000572933439131,-0.2633436969391304
281,140.75292767608695,-0.560686324292826,0.7722705478865217,0.8792468050891304
282,141.25045111555556,0.6377048422631111,-1.2073485745066668,-0.7060903443053334
283,141.74797470652175,-0.2636402229952174,0.8551294609232609,0.757967482423913
284,142.25096569565218,0.4814281211652174,-1.2730059189313043,-1.3108820604004348
285,142.7539568043478,-0.3895560950189131,1.0888966380065217,0.6551787231130435
286,143.25148069555556,0.27449289076444444,-1.350425717508889,-0.4664313952355556
287,143.74900467391305,0.2374956565241304,0.4353538945519565,0.18483148445708694
288,144.25199601086956,-0.30137588664282605,-0.8294248264652174,0.17930858029043478
289,144.74952007555555,0.032440307431111134,-0.050405457308222226,-0.145489321902
290,145.24704418043478,-0.40915530242608694,-0.7819867885953043,0.8578044021173913
291,145.75003562173913,0.6879532703115891,-0.4008747164256739,-0.20334374384565218
292,146.25302707391305,-0.5222788218243478,0.27378656539380436,1.1933876016702174
293,146.75055124,0.3583324389322223,-1.0998735613362223,-0.07147200901044447
294,147.2480755,-0.391414718441087,0.9115304727021739,0.6774073995004347
295,147.75106699999998,0.6020014093184782,-0.9639742530702173,-0.9385981663978261
296,148.2485913711111,-0.16693589587666666,0.654309186,0.03086003199777778
297,148.74611584565216,-0.26427509145869565,-0.5126393855263044,-0.5727330290086956
298,149.2491077347826,0.44922839901108697,0.17534049827608694,0.08254460666195652
299,149.75209978478262,-0.41987324282456523,-0.46211913522282605,0.3122998424088043
300,150.2496246911111,0.32893197207755553,-0.10529511174622222,-0.09063458973333335
301,150.74714973043478,-0.5300591743545652,0.11915812025956521,1.0343540337608697
302,151.25014221086957,0.9224201862043478,-0.7584625981163043,0.2253637106282609
303,151.75313480434784,-0.8485428599847826,0.5351249718191304,0.20139447499999993
304,152.25066018222222,0.6885883755357778,-0.6031032495902222,-0.4495451185355555
305,152.74818563695652,-0.41732400135304343,0.6793682607116087,0.037455589867391316
306,153.25117845869565,0.3418764795608696,-0.7790392779413043,-0.673335262001087
307,153.74870401555555,-0.14099747600755555,0.6869773996831111,0.4467799081311111
308,154.2462296043478,0.18378056907630433,-1.0502936357473913,-0.7228761963565217
309,154.74922250869565,0.06969332889363042,0.542573851103913,0.40483416680063045
310,155.25221543913042,-0.22505889802826087,-0.7273117006082608,0.14889747165847825
311,155.7497410311111,0.4455755163844444,-0.3322301917666667,-0.27153929606488886
312,156.2472666195652,-0.7894373562256523,-0.4708041353717391,0.8086857899108695
313,156.75025950652173,0.8753780430760869,-0.42468130527652176,-0.0799182498204348
314,157.25325236956522,-0.26407641823108696,0.26139355610415216,0.7458813190891304
315,157.7507779,0.6854550967644444,-0.4720076133968889,-0.4087626139002
316,158.24830338043478,-0.25120510453130435,0.777135607972826,0.2384230987330435
317,158.75129613913043,0.10251809614313043,-0.4977756919902174,-0.6850899716608696
318,159.24882154444444,-0.6100370671200711,0.44595203269577777,-0.03638834426044447
319,159.74634689782607,-0.3470871127745652,-1.0811948497347825,0.0382423815934782
320,160.24933951086956,0.4099605130763043,0.24311923723413043,-0.28595547053934783
321,160.75233206304347,0.24504653447608693,-0.12205364846769565,-0.18192383523043482
322,161.24985724222222,0.6880245812788889,-0.2520152754619111,-0.07553082581111112
323,161.74738236304347,-0.24635708528065217,-0.15795231577826085,0.784524534078261
324,162.2503747173913,0.22385571084217393,-0.23961620682391302,-0.1491052379
325,162.7533670043478,-0.26710245739945654,0.1215317690054348,1.0448208994391306
326,163.25089189333332,0.24135290115888888,-1.0279881373146667,-0.4831466145333333
327,163.7484167152174,-0.5864524938643478,0.8033014095552174,0.8484544235584783
328,164.2514087673913,0.31145057128491305,-1.286514836802174,-0.34003285739065214
329,164.74893344444445,0.16511556742222222,0.8254372583228888,-0.15829434925155558
330,165.2464589826087,-0.2932392508128261,-0.8131852974098696,-0.24794235452434785
331,165.74944985,-0.2856483913756522,0.3230290063521739,-0.19045962459826085
332,166.25244158913046,-0.1363564100836739,-0.18242344913371739,-0.3901474579260869
333,166.74996591333334,-0.005552480627111104,0.1464739601157778,-0.13628491299555556
334,167.2474902,-0.5852774733476087,-0.2913647798663043,0.24188860606086957
335,167.7504817326087,0.25659073710171737,-0.2764587920408696,-0.1608620415863043
336,168.25347324130433,-0.2552974936708696,0.06362949249108696,-0.0022269642952173316
337,168.7509974822222,0.31531565236975556,-0.21212831074666666,0.2726859728866666
338,169.24852174347828,-0.37192880558152175,0.27416010784130435,1.2629726243617392
339,169.75151339565218,1.1633418286392172,-1.337063916368261,-0.7159398639152174
340,170.2490377888889,-1.1508794688406667,0.7338390178348889,1.0632790459824444
341,170.74656225652174,0.35311940244086953,-1.0923850484260869,-0.2679574489269565
342,171.24955406304346,-0.2873961050588913,0.8960390252819564,0.3555207044869565
343,171.75254591304346,0.22846031381956522,-0.9586453863054348,-0.6898736020886956
344,172.25007046666667,-0.11098806990222221,0.7577572027986667,-0.03690768345555553
345,172.74759501956524,0.11739283765586957,-0.6455534894077826,-0.04845208717173913
346,173.25058687391305,-0.3959186349306522,0.658821753859,-0.16008236101304343
347,173.7535787021739,0.034623117565869575,-1.0046780128543478,-0.31524909057804346
348,174.25110319111113,0.10390004053977779,0.42925125225044447,-0.04874337511688891
349,174.74862766956522,-0.10310676241630434,-0.5137357549443479,0.1272839878021739
350,175.2516193847826,0.1164513398347826,-0.13909063259326085,-0.0867760907882609
351,175.74914376222222,0.017722344398644434,-0.261234372492,0.4819947454733333
352,176.2466680978261,0.4702565566485869,-0.30496019369391303,-0.33362153295760866
353,176.74965965652174,-0.9404954858323913,-0.12746992707608698,1.39730667035
354,177.2526511347826,1.2136915455108694,-1.0353760032526087,-1.0574647032708697
355,177.7501752422222,-1.0881618460084443,0.30435340672755556,1.6864735709424445
356,178.2476992673913,1.4353147666869566,-1.2015640722413043,-0.6477251778478261
357,178.75069051956524,-1.4662496713152173,0.5410834317591304,1.0333479487608697
358,179.25368167826088,-0.003246932577826091,-1.0873384028454347,-0.6773224187945652
359,179.75120546888888,-0.5044467964306667,-0.1773909515292222,0.9022201538955557
360,180.24872916086954,1.942558228876087,-0.877098462798913,-0.8044813300632608
361,180.75172007173913,-1.7032046926436957,0.0947791467547261,0.18662127198478262
362,181.24924362222222,0.2404188182222222,-0.8369531505728888,-0.15004752473644448
363,181.74676709782608,0.10305584029847825,0.2101346928030435,-0.3410944627652174
364,182.2497577978261,-0.3127318160628261,-0.5842040103210869,-0.028071942546999983
365,182.75274842391303,0.5666883719830434,0.3654615749807174,-0.2221496313108696
366,183.2502717,-1.1669880065964444,-0.5609297719528888,0.34433204864222217
367,183.7477949152174,0.20836274975040653,-0.17101009512346088,-0.6308957700254348
368,184.2507853673913,-1.1260339549945653,-0.25588270378369565,0.7892592782869565
369,184.75377577391305,0.06748788476065219,-0.28279610043241304,-0.06956124306152174
370,185.25129882000002,-0.3218989567673333,0.07485751577288889,0.2572972085644445
371,185.74882183260868,0.08142989126586957,-0.13223197147369567,0.287469324855
372,186.2518120804348,-0.6188410196499783,-0.1941302379652174,0.4608964194406521
373,186.74933498222222,0.6697007768659999,-0.036368722388,-0.18334151380666666
374,187.24685786956522,0.1432807967073913,0.4878075433424348,-0.048571213417391325
375,187.7498480043478,0.26099917553130436,-0.1607010131347826,-0.25233297752826084
376,188.25283809565218,-0.22104675,0.4651024834406522,-0.22960382953695654
377,188.7503608888889,0.2442778759748889,-0.5352762540155556,-0.3610692659808889
378,189.24788365652176,0.05570702365391305,0.07483962439418695,0.3981425761726087
379,189.75087371521738,0.02296278868326087,0.08789006001217389,-0.5440005841767391
380,190.25386372173912,0.073432000456,-0.041234301460000004,-0.32725604720043483
381,190.75138643999998,0.7079949895133334,-0.02683141620644446,0.29765704481333327
382,191.24890914782608,1.0169837878445653,-0.20140650669195653,0.16992777326304345
383,191.7518990847826,0.18796016466826088,-0.2735609826728261,0.1892180857621739
384,192.24942176222223,0.6575745930348889,-0.005693512489777776,-0.10108886296222223
385,192.7469444195652,0.20542613902630436,-0.09621007543652176,0.4295305169152173
386,193.24993434565215,0.53653945502,-0.15517839141652173,-0.16418690272163042
387,193.75292425,-0.7385163770534782,0.3674077469521739,0.9515786792978261
388,194.25044686,0.5766177193762222,-0.9069837768586666,-0.22481719117111107
389,194.74796946086957,-0.24555418963065218,0.06953564937163045,-0.1385269268478261
390,195.25095932826088,0.14862467072563912,-0.02014968962173913,0.14946358096739132
391,195.75394917173912,-0.4417979503658261,0.08390461881856522,0.2185970492645652
392,196.2514717088889,-0.02295491638044444,-0.36700172953839993,-0.28330143822644444
393,196.7489942282609,0.09738735403847824,0.3746937364373913,0.24314996476282608
394,197.25198398913045,-0.08112615473597826,-0.49133934405236956,-0.5863775999347827
395,197.7495064422222,-0.6251528229726666,0.1860190371586667,-0.28719468648244445
396,198.2470288869565,-1.3266336685002174,-0.3598382226882391,0.2809223610152174
397,198.75001857173913,-0.4956121283950652,0.4329471854911739,-0.025641420641304372
398,199.2530082347826,-0.2435193355,-0.6970602338584783,-0.16730988545913048
399,199.75053059777778,-0.12734639249622223,0.11620138496444446,0.27123088838000003
400,200.24805292826085,0.052051104930434786,-0.9713788900673912,-0.45937387844934785
401,200.7510425478261,0.4240299301261696,0.29090224451826086,-0.07098942216304346
402,201.24856486444446,-0.0014753166260000005,-0.4910489529117778,0.3846231565533334
403,201.74608718043478,0.2719349534836956,-0.17085652408430435,-0.5836859474543479
404,202.2490767695652,0.0030788171184782482,-0.24404160997391305,0.9714062939695651
405,202.75206637391307,0.23807132080413043,-0.09971182244326089,0.054391404906521716
406,203.24958869777777,-0.5651699456906667,-0.5923838804858289,0.0441426594888889
407,203.74711102608694,0.11852144712521737,-0.13165237837878263,-0.03195394642978261
408,204.25010063913044,-0.5721956854119565,0.11163063218239132,0.6601833364521739
409,204.75309025652174,1.532072373071739,-0.9137209297752173,0.12731893164130434
410,205.25061259777777,-0.5323498961253333,0.3586168249688889,0.6282196680128889
411,205.74813496086955,1.3250491547696304,-1.388092589147826,-0.34800788630869567
412,206.25112456956523,-1.9427499707548694,0.33792735179543476,0.784339241387826
413,206.74864693333333,0.6939650389644445,-1.088725085388,-0.3009294085453333
414,207.24616929130437,-0.5964046004328261,-0.16347473926021738,-0.4089753109710869
415,207.7491589673913,0.5768923720786957,-0.9931943695154348,0.37541801003499997
416,208.25214871304345,-0.6156102988378261,0.568512458436087,-0.20593923070130438
417,208.74967127555558,0.7448274639102221,-0.9125548965088888,0.09908688854444436
418,209.24719394565219,-0.7598967241391305,0.16936975848326088,0.5747721509695652
419,209.7501840673913,1.61159432845,-1.4956136632602175,-1.4159411865586957
420,210.2531743326087,-0.834489418467174,0.7295109694328261,0.7764767978695651
421,210.7506974488889,0.9336522307858666,-1.63097664246,-0.9378627671015555
422,211.24822070652175,-0.8984260390565219,0.8999028737086957,1.1888466710152172
423,211.75121138043477,0.5222804977154347,-1.1928490089367392,-0.6364355605547827
424,212.24873487333332,0.049535715542444445,0.5411538092311111,0.3625394609733332
425,212.74625847173914,-0.09870811064391304,-1.1235598306449999,-0.06338135063195656
426,213.2492494456522,-0.03868362207013042,0.5757409625630434,0.360620623035
427,213.75224048913043,0.14750819357304348,-0.9059588520113696,-0.3312760021447826
428,214.24976433333333,0.44304814869422227,0.3031162327515555,0.4565744823135555
429,214.74728823478262,-0.3725375889239131,-0.6340034524295652,-0.405012203263913
430,215.25027949347825,0.23260127816695655,-0.03905024091330435,-0.2920853573256522
431,215.75327081304346,0.025646084014130436,-0.018256924729565204,0.10329672560456526
432,216.25079489333334,0.30297810584155555,0.008469373964844444,-0.017775090525555547
433,216.74831902826088,-0.9052757493930434,-0.20506039587869565,0.9881302066869565
434,217.25131050652172,0.2545103923256522,-0.5115869751595652,-0.5091294206158696
435,217.7488347088889,-0.5746871081526667,0.21970189414266666,1.2450966728913333
436,218.2463589652174,1.1992263746586849,-0.9195452929743478,-0.5446476314719565
437,218.74935052173913,-0.9681475681897826,0.40948067285326084,0.8204996896413043
438,219.25234212826086,0.9140827221586957,-1.0898098994463044,-0.6322316086569565
439,219.74986645777778,-1.0709663622698,0.6861963589466668,0.9514049105868889
440,220.24739079782609,0.8705461387836957,-1.135789720902174,-0.5349511996830435
441,220.75038241521742,-0.3767680784848913,0.8358674194213044,0.5573651272282608
442,221.25337408043478,0.20149593023273263,-0.4366419198226087,-0.48539303693160873
443,221.7508984,-0.1467092765511111,0.7662728958977777,0.40074375998288886
444,222.24842275652173,0.05320071202608695,-1.225189551145,-0.8808247524652174
445,222.75141440000002,-0.10425514149456522,0.7547436220767392,0.4015376153478261
446,223.2489387088889,0.29810190151533333,-1.3904243972066666,-0.7050027422622221
447,223.7464630478261,-0.16732944421913043,0.6382936712282609,0.35575755778158696
448,224.24945467608694,-0.2105082629873913,-0.37489911914391305,0.11479108229021738
449,224.75244628043475,0.6001939254855218,0.2281361869869565,-0.06877284468695652
450,225.2499705666667,-0.4896489719496667,-0.36849981363044443,0.3164606835608889
451,225.74749481086957,0.2677876526502391,-0.38439877523913046,-0.5236089851504349
452,226.25048638043478,-0.19207983430434783,0.21966456329152173,1.0645043020793479
453,226.7534779,0.19591350270554347,-0.8467708852221739,-0.8620473509282608
454,227.25100209333334,-0.19179480811955557,-0.5072463856866667,0.4242241753577778
455,227.74852627608695,0.6776606084167391,0.05385349416391305,-0.310830064475
456,228.2515177326087,-0.38472363217130434,-0.129227700455,1.0681234856423913
457,228.74904186444445,0.5767353628922222,-0.7327335926622223,-0.4963369793466667
458,229.2465659695652,-0.6282744292173913,-0.05649063245397825,1.6140919354141305
459,229.74955734130435,1.5788867797015218,-0.8824092732254347,-0.6419598953021739
460,230.25254869565217,-0.9689097847728262,0.1376888388876087,1.2337026596230434
461,230.75007270666669,1.0822558548393333,-1.1062299257822223,-0.677383814872
462,231.24759668913043,-1.06445809976,0.3976155643093478,0.5656128239958695
463,231.75058793478263,1.0107858278010868,-0.9556095470556522,-0.5111601353359349
464,232.25357913913044,-0.4341927371963043,0.8142438443395652,0.8408041829673912
465,232.75110301333333,0.026241422036999987,-1.4140431365066668,-1.3723001161933333
466,233.2486268478261,0.025565237444565226,1.1275526253019563,0.5021197070019131
467,233.75161792608694,0.22794539170195655,-1.759539876293826,-0.8947632313021738
468,234.24914168222224,-0.09650107424711113,0.8413905488446667,0.3807227876555557
469,234.74666538913044,0.1968684769586957,-1.1484844049754348,-0.11751284818043478
470,235.24965635,0.11979667131086956,0.39883978042891305,0.3071984518993478
471,235.7526473021739,0.23666680336673915,-0.2748577464984783,0.5298735888065217
472,236.25017092666667,0.48709178300822226,-0.31764319473022223,-0.4260466045664444
473,236.74769450000002,-0.5532377996890653,-0.24794798218695654,0.24096420534369567
474,237.25068533695654,-0.10937537184804348,-0.24614808029673912,-0.02592926443739131
475,237.75367613913042,0.027577109647173904,-0.12128021374628259,0.45253286151195654
476,238.25119959333335,0.38737557033133335,-0.3921031833075555,-0.41975227992222225
477,238.74872301304347,-0.10805214355173912,-0.10137954100000002,0.3006646218717391
478,239.25171369130436,0.19582263462760868,-0.02805229244021739,0.25548523406021745
479,239.74923701111112,-0.7852490322588889,0.40185751038622225,1.086196157698889
480,240.24676029782609,0.7698118660565217,-1.0110916754665,-0.5983098693534782
481,240.74975080869567,-0.872253411872174,-0.08994083880543478,0.2507778042586956
482,241.25274126304348,0.6384877258297826,-0.4034752168152174,-0.20366185638391304
483,241.75026440444447,-0.6431082069802223,0.6802558594244444,1.0128173509977778
484,242.24778749347826,0.8685329661487174,-0.9637579545073262,-0.9618391576108695
485,242.7507778152174,-0.9486178966140544,0.5979382692371739,1.3916456803152175
486,243.25376808913043,0.5653906064852174,-0.921208130277587,-0.8235909835695653
487,243.75129102,-0.04417999317133334,0.4067204740304444,-0.09265429178666663
488,244.2488139195652,0.19451127171652177,-0.46926639913478263,-0.9032796569623913
489,244.75180404130435,-0.4003773383678261,0.6118712357184782,0.7198542615547608
490,245.24932683555554,-0.09316963754244445,-0.9560457991566667,-0.5425901094585778
491,245.7468496108696,-0.4638649118220217,0.640555710927826,0.5976720996863044
492,246.24983961521738,0.6126514478543479,-1.387920646578261,-0.663695542705
493,246.7528295652174,-0.3596080846080435,0.7038494588163043,0.9761862754434784
494,247.25035223333333,0.33273628789626664,-0.8678796503468889,-0.6546159108284445
495,247.74787484565218,0.13631988123173913,0.7065455641391304,0.61156945644
496,248.25086470869567,0.2562854447454348,-1.4250529188715217,-0.2813623677573914
497,248.75385453913046,-0.11556128863804348,0.40844220151500005,-0.003011537632608713
498,249.25137705555557,-0.2318011978817778,-0.5756481514886667,-0.04464051988222221
499,249.74889955217392,0.03835708585086956,0.10685658128326088,-0.23527423199369563
500,250.2518892847826,-0.8780943346269565,-0.7317414582152174,0.3049786194178261
501,250.74941170222223,-0.010292775038888882,-0.20865250857955553,-0.32810588411777775
502,251.2469340847826,-0.7413283711273043,-0.43332812057173914,0.9873128456021739
503,251.74992372391304,0.6918645900910869,-0.3194051592695652,-0.24045281821847822
504,252.2529133456522,-0.42987317756717397,0.17401061502173912,0.916251503926087
505,252.75043568222222,0.1600033011882778,-0.8103983773124444,-0.11117866304022223
506,253.24795800652174,0.22861455089391305,0.4262710336173913,0.5568621470152174
507,253.7509476130435,0.4990392664223913,-0.4376100133356522,0.17581210963913046
508,254.2539372043478,-0.22218973156304345,0.22100023213608697,0.07163275848956518
509,254.7514594888889,-0.12039517827153333,-0.9714388953413333,-0.24350564740000002
510,255.24898176086955,-0.2595330893102174,0.5473878092139131,0.5218252720934783
511,255.75197130434782,-0.26784669299347824,-0.7224152146797825,-0.7158907600304347
512,256.2494935488889,0.19115554736222223,0.5524137983540001,-0.17283231948222222
513,256.74701577826085,0.26189345506676304,-0.8110843877565218,-0.655218974426087
514,257.25000527173916,0.391988492845,0.41969381726796956,0.2727980303021739
515,257.75299473913043,0.01397147197108697,-0.3505961784417391,0.2028580955128261
516,258.2505168733333,0.23172793556711113,0.10588161310222222,-0.2674647755595555
517,258.74803900434785,-0.6939101717982609,-0.4050216525447826,0.22470582042826087
518,259.25102837826086,0.7476331575532609,0.03792308349941305,-0.42089104657673915
519,259.74855043777774,-0.36126701763299335,-0.31542509526888884,0.9238283791968889
520,260.2460724608695,0.5752323001476305,-0.4888204867471739,-0.5031100044545652
521,260.74906172608695,-0.5196537967956523,0.283017055796087,1.3244149787836956
522,261.25205094130433,0.6238701887904348,-0.7114324700706957,-0.8052453994786957
523,261.7495728511111,-0.148301300074,0.41274374642666667,1.346073140108889
524,262.2470947108696,0.5566079856047825,-0.6577136741956522,-0.2839029042938044
525,262.7500837956522,-0.7170956484276086,0.5551992117413044,0.4632201402934783
526,263.25307282608696,0.009629559855869572,-0.6590179224817392,-0.10655501609999998
527,263.75059452666665,-0.0999140839108889,0.5409858673284444,0.6165336608866667
528,264.24811617391305,0.9253783125652173,-1.0858832825239129,-0.6809076641913043
529,264.7511049978261,-1.1307155101358695,0.4465740532445652,0.4005414921391304
530,265.2486264822222,0.6088011555055556,-0.9810242613311112,-0.7448528395265045
531,265.74614789782606,0.19813277073869567,1.250253279537174,0.22813099369565215
532,266.2491365130435,0.3359743317792826,-2.5785483652873915,-0.7684585737517391
533,266.75212506956524,-0.5658442983826086,1.0485769290058695,1.434011832476087
534,267.2496463111111,-0.12260913186244445,-1.178853962108889,-0.31587867738888886
535,267.7471674847826,0.8739011560282609,0.5066720830717392,-0.010132520086434794
536,268.2501558782609,-0.6312418981021739,-0.7698700652760869,0.16358199326413042
537,268.7531442021739,0.28885481363847826,0.34966026323545657,-0.5760829137934782
538,269.2506651888889,-0.6449606604055556,-0.22734291756267777,1.0281735526133333
539,269.74818608695654,0.6650836545304347,-0.3914435376562391,-0.37698961337391307
540,270.25117419782606,-0.27918525358260865,-1.8257138418130434,1.0124765063804346
541,270.7486949577778,0.34772075680888886,-0.4480492597566667,0.5386976983264444
542,271.24621564565217,-0.3711463990123261,-0.817192760493261,0.5483021425513261
543,271.749203523913,-0.2549252109745652,-0.09759700563695652,-0.014633842062391334
544,272.25219133913043,-0.2550111821602174,-0.667635093576087,0.530549287723913
545,272.74971183555556,0.6397692696828888,-0.4748274829366667,-0.6178192668656889
546,273.2472322695652,-0.7091229501667391,0.12003545130478263,1.3213483250673914
547,273.7502199195652,0.6300635912769564,-0.6487498507391304,-0.9519407437956522
548,274.2532075217391,-0.7311764341336087,-0.029150596191304334,1.0374825312673912
549,274.7507278288889,0.5817040761558222,-0.8470325774577778,-0.33284078173111115
550,275.2482480956522,-1.0995994523076087,0.6058457532456522,1.4294717414913043
551,275.75123558043475,1.1674025311446738,-1.2206183360619565,-0.3321251246517391
552,276.2487557711111,-0.8710620701886667,0.8125470796597778,0.5846912384593334
553,276.746275923913,0.6957931207657609,-1.017090881673261,-0.22753238678891305
554,277.2492633065217,-0.7025833382454784,0.9387872827934782,0.8093567619826088
555,277.75225062608695,0.7775890373863044,-1.358274625045652,-0.7080277152217391
556,278.2497706533333,-1.3492759227244444,0.7738516721336199,1.1188403765733332
557,278.74729064130435,0.9570470537221738,-1.6451400790434783,-1.2974711501280434
558,279.2502778260869,0.08120576228652174,0.9657650175534782,0.5691410355089132
559,279.75326496956524,0.4195850438116522,-1.1193153625239132,-0.6439160056565217
560,280.25078479333337,0.6227177868206667,0.6078528317584444,0.3153042581533333
561,280.74830460652174,-0.8470173046874021,-0.12525957856315217,0.4672169788369565
562,281.25129165,-0.04902469334569563,-0.3884688978671304,-0.4656612458223913
563,281.7488113955556,-0.5076273514611112,0.13130973183355554,0.12260880995311112
564,282.2463311130435,-0.1127426287426087,-0.12365751416565217,-0.06080267736217386
565,282.74931805434784,-0.48670806185830434,0.09349449691565218,0.03357929768695652
566,283.25230503260866,0.14730245393586958,-0.046944394034347824,-0.15246651480434784
567,283.7498247066667,0.04786466358222223,-0.019035695660666672,0.4495730718266667
568,284.24734441521736,0.407377833073913,-0.2289998142630435,-0.24627260542608695
569,284.75033134347825,-0.13223973820173915,0.007531381134782617,0.2578638221602174
570,285.2533182673913,-0.01361756545804348,-0.01447506248608695,0.007212866874347817
571,285.75083798444444,-0.5331899007005556,0.18747737609555554,0.99410548736
572,286.24835766304346,0.7133304042667391,-1.060930293606087,-0.3674472932813044
573,286.75134465,-1.3322141999934782,0.43492563264586953,0.3482176221913043
574,287.24886439777777,0.6488356480977777,-0.5102092424895556,0.27211820812666665
575,287.74638422173916,-0.3892774831028261,0.08430778460478261,-0.06142242055347825
576,288.2493713782609,0.6144419534186956,0.03578623738456522,-0.04784359105217392
577,288.7523586456522,-0.14593248167565215,0.2741096408256522,-0.3948024666873913
578,289.2498788,0.4430235627646667,-0.09526596863659999,-0.36424084767555553
579,289.74739912173914,0.18109916277304344,0.11701088496565218,-0.3856530292960869
580,290.25038685,0.07378337692391304,-0.43970351499239135,0.09080616287391303
581,290.753374726087,-0.18465321240630436,0.4793840620797826,-0.0056790372134782495
582,291.2508954866667,-0.266911981176,-0.6382330614413333,0.816718323951111
583,291.74841637608694,0.050349169447826095,-0.23591007610413045,-0.6226729517823913
584,292.25140462391306,-0.22796395420695653,-0.2414971537752174,-0.13408726196086956
585,292.7489257066667,0.3155979050277778,-0.019327460404000005,-0.39147553972206667
586,293.24644687608696,-0.3162405222073913,0.25143432357195655,0.8105031718456522
587,293.74943537391306,0.5195156247752174,-0.3524834229027826,-0.7166410010832608
588,294.252423926087,-0.5900162650858696,0.08032047491282608,1.1901946068326088
589,294.74994525333335,0.32382054561566664,-0.6793968439166667,-0.4836229960511111
590,295.24746661304346,-0.15959129895565216,0.04956527641565218,0.2001077402728261
591,295.75045529565216,0.5444398915365217,0.24038441544326086,0.15089717115826087
592,296.2534441217391,-0.28165871069521736,0.05795151248239132,0.41268162106869566
593,296.7509656622222,0.4361693263248889,-0.02143293752066668,-0.20513113869333333
594,297.24848715217394,-0.4061443041182674,0.3480108094876087,0.11974052765434785
595,297.75147593913044,0.36377555618169566,-0.21001847416478261,0.09625795614130435
596,298.2489974777778,-0.14247507319422223,0.2832716411477778,0.10084093944311111
597,298.74651905434786,0.1590095938308913,-0.2140233620275,0.11700534819782613
598,299.2495078978261,0.27079159603138697,0.23785634404695652,0.03760076608695651
599,299.7524967782609,-0.10140708350304348,-0.14686000599565216,-0.32974993667826086
600,300.2500183866666,0.1334416346602222,0.14339403843444445,-0.4936171214177778
601,300.74754002826086,-0.17797570190304346,0.014433643126521744,0.06802965244586959
602,301.2505289521739,0.15273870918593477,0.04712002169154347,-0.2946140973130435
603,301.75351790869564,-0.12698478251673914,0.06502497195982608,0.03851268603730433
604,302.25103961555556,0.08367655973001556,-0.21795007122351112,-0.22663579526666666
605,302.7485613195652,-0.22703753154869566,0.06038694544173915,-0.12618103228913044
606,303.25155033913046,0.19421017264056523,-0.09952359355173913,-0.17628350461086956
607,303.7490721,-0.398107233314,-0.1565513319517778,0.12520283591377776
608,304.24659388695653,0.2752507484382826,-0.16774109393217393,0.033523372973913015
609,304.7495829826087,-0.007794413845260878,-0.10195677176304348,0.18774485586739134
610,305.25257211086955,0.10476091828195652,-0.0960844133673913,0.39094084247760863
611,305.750094,-0.11158474151533335,0.1798618369782222,-0.03035786943111112
612,306.24761592826087,0.3051770614467826,0.05970424410826087,0.4334901001032609
613,306.7506051847826,-0.30687421493715217,0.3204198739352174,-0.20473691688695653
614,307.2535945043478,0.053679267986956526,-0.0893138983826087,0.2651458615595652
615,307.75111661555553,0.12981096774166664,0.25550939769955555,-0.3143653127253333
616,308.2486387869565,-0.07339637984913043,-0.15687357861891305,-0.35167003715434786
617,308.7516282978261,0.2579028019265217,0.2318493542233913,-0.1416822309130435
618,309.2491506,0.23695881633288887,-0.0678893724998,-0.14128834407977778
619,309.74667298043477,-0.334980859655,0.12715480641304347,0.0912510207901304
620,310.24966271521737,-0.08971863307565216,-0.771829102375,0.3353420755
621,310.75265252826085,0.16543386816847827,0.01522833112956522,-0.533632651606087
622,311.2501751444444,-0.2431478912051111,0.18859200210866664,-0.0021203889482222255
623,311.7476978565217,0.23559180418891304,-0.097667722615,-0.15914494056043474
624,312.25068792173914,-0.5009898250569566,-0.1554534240978261,-0.16760059021086962
625,312.75367810652176,0.4157889613253695,-0.27729720399695656,-0.20180001470630435
626,313.25120111555555,-0.04123637809951111,0.47007913850422217,0.8507068210444444
627,313.7487242152174,-0.9427828367712173,-0.5108128475217392,-0.23557973942130436
628,314.2517147,0.7808160819806522,-0.7105158787503044,0.132717806350587
629,314.7492379888889,0.8137927350263688,0.3967984186116222,0.3843932786777778
630,315.24676139999997,-1.0661584644097826,-0.25676005106608696,0.41390898951956523
631,315.7497522043478,-0.02222856818478262,-0.2798022601995652,0.17092360618478256
632,316.2527431021739,-0.2632778306019565,-0.502523299165,-0.16710790346739127
633,316.75026682888887,0.3690532364117778,0.18412288824311113,0.18550717031999997
634,317.24779066086955,0.009917103275652173,0.2768159962126087,-0.1737867851971739
635,317.75078189565215,0.13428569974673915,-0.5861714443826087,-0.12701016924695652
636,318.2537732304348,-0.5642453872645652,0.3208550838279783,0.42340870527282604
637,318.75129738,0.7092794563802223,-0.9118620587940001,-0.9826560232417112
638,319.2488216217391,-0.8507557355966956,0.8481684559736956,0.7674695616586955
639,319.7518132956522,0.258167672435,-1.1741822699478262,-0.5103554518543478
640,320.24933774888893,0.054308650201644444,0.6221592902875556,0.21919626660888894
641,320.74686230217395,-0.13887080639586957,-0.9609982889493479,-0.09423898620804348
642,321.2498542608696,0.3588175969776087,0.014185739603108698,-0.6413626462782609
643,321.75284632391305,-0.38684947012630433,-0.3073533902652174,-0.08688336870097825
644,322.25037118666665,0.4645095444935556,0.15893512566888887,-0.1492403665888889
645,322.7478961543478,-0.175209198615,0.04449621357565217,0.2046838221245652
646,323.2508885369565,0.18455528552206524,-0.3447498783536957,-0.1572891110978261
647,323.75388102608696,-0.37764230569347823,0.09392301544717392,0.7742226021521738
648,324.25140630888893,0.22047648129133332,-0.38148312560044445,-0.10096655957111109
649,324.74893168695655,-0.18274270009304347,0.23257449914891304,0.16871653431739128
650,325.25192448913043,0.3422328136253152,-0.1978606141054348,-0.016682562630434793
651,325.74945006666667,-0.3064674264753111,0.4390906228435556,0.07427602344555559
652,326.24697575652175,0.4049160225963109,-0.3658357029198913,0.07859991941521742
653,326.74996884347826,-0.5959424099463044,0.5797700298376087,0.5389320125413044
654,327.25296205,0.6363595309069565,-0.8580593064647826,-0.34295429353391305
655,327.75048801555556,-0.5789418409117556,0.6698517084095555,0.5874191178422221
656,328.2480140978261,0.1590908867721739,-0.6036290967206522,-0.23970644366956523
657,328.7510075826087,-0.3083301396978261,0.40081667837347823,0.38988202551304346
658,329.24853383777776,0.3563635435124445,-1.0250630219866665,-1.1230830510364445
659,329.7460601826087,0.056426867501956524,0.9479394419330435,0.8853422351239131
660,330.24905394130434,0.267165214441087,-0.8653077042628696,-0.7036164428847825
661,330.7520477891304,0.19201084840397825,0.5141909711895652,-0.0038579442937174027
662,331.2495743933333,-0.3691800859684445,-0.6809116835382001,0.01248126558044444
663,331.74710107608695,0.2089708351918478,0.5529005254994566,-0.03180498661934786
664,332.25009517826084,-0.23551686594815213,-1.163907682147826,-0.5537260718956523
665,332.75308935869566,0.2271296689752174,0.31769164458521737,0.4213711385880434
666,333.25061630666664,-0.01892993159406666,-0.314295490932,0.18245880339777779
667,333.74814334130434,0.24283067944456524,-0.2663628912298478,-0.18958359180652173
668,334.2511378043478,-0.5184504985344348,0.04887073653065219,0.7973975306
669,334.7486650311111,0.5918218732288889,-0.48751758275777785,-0.11295850532888889
670,335.24619235434784,-1.166832492914687,-0.32214509148434783,0.4870585566804348
671,335.7491871043478,1.1024447627929566,-0.41177588829091305,-0.4349620756326087
672,336.2521819456522,-0.8008654188626086,-0.2886629675173913,1.1015909962217392
673,336.7497095511111,0.40395726410764443,-0.7443535433517777,-0.36761692895777776
674,337.24723727173915,-0.7406585391354348,0.46249440059347824,1.1639668838456523
675,337.7502324586957,0.41991824171760866,-1.752164564754348,-1.0742637281934784
676,338.25322777173915,-0.6794969757176305,1.0135349046450002,1.4085292298369565
677,338.7507559,0.6700588395324111,-1.1607216053533334,-0.4541498820333334
678,339.2482841543478,0.3039352667247174,1.2541107933956521,0.3591789887913044
679,339.75127985,-0.04705686933021738,-1.3143841624398958,-0.4737221572519565
680,340.24880832444444,0.1744900743217111,1.302814124723289,0.47729845046888886
681,340.74633689130434,-0.06251463679999997,-1.3128718043252174,-0.44931335033793474
682,341.24933291956523,-0.41033475980843476,0.8300666757247825,0.2549965070282608
683,341.75232904130434,0.16691692042217393,-0.9203121869478261,-0.4047879758730435
684,342.2498578955556,-0.4937551456138177,0.5106219860786223,-0.08470937942444448
685,342.74738680869564,0.26745864095,-1.1161058830119566,-0.10898522707434778
686,343.25038315652176,0.1374076245108913,0.3744583797734783,0.11382214922086954
687,343.7533795847826,-0.40936258175647827,-0.4967364364602174,-0.17978094967173913
688,344.2509087311111,0.44308696188402225,-0.013477784741777788,-0.3918842951882222
689,344.74843792826084,-0.2903934941191957,0.10276419960413044,1.097647801693261
690,345.2514345521739,0.4686321572260869,-0.3247313215108696,-0.6994243600826087
691,345.7489638688889,-1.1820016935722222,-0.18519375525111112,1.1737793179644445
692,346.2464932391304,0.6532981039589131,-0.5395910953323912,-0.6359706340089131
693,346.74949001739134,-0.6035714235252173,0.03390689651521741,1.1342893683369564
694,347.2524868282608,0.3700165813073913,-0.5667795576828262,-0.7845066111586957
695,347.75001628666666,-0.49427672379866666,0.4459015925533333,1.0190696292673331
696,348.24754576521735,0.4624308374104348,-0.8658987927752174,-0.6901454096436958
697,348.7505425826087,-0.9517926436899999,0.4152097157789131,1.0017441977434784
698,349.25353939130434,0.9220556894152174,-0.8023897312717392,-0.4978252079465218
699,349.7510688155556,0.04209756959444445,0.623092981219111,0.9847964710222221
700,350.2485982086957,0.13332672285382607,-1.1338563237751087,-0.6455183443721739
701,350.75159491521737,-0.7801486188641304,0.8958981782093478,1.104918220823913
702,351.24912423555554,0.8698668096297778,-1.2184554656977777,-0.6155207105136511
703,351.74665349782606,-0.7588314031821086,1.0382458055536958,0.7484070322956522
704,352.2496500847826,0.4141496364852174,-1.311715197295652,-0.9082415207669565
705,352.75264661304345,-0.027932868061521732,0.4858056225706522,0.11257387246369563
706,353.25017575333334,0.12657718224000003,-1.1733939705104444,-0.4885645124268889
707,353.7477048456522,-0.24411736719089128,0.6616784165717392,0.20824936167739122
708,354.25070125434786,-0.20291651594804347,-1.0853119790380434,-0.31654508212608695
709,354.7536976152174,0.39976531046956526,0.3921079655358696,0.28111420507586965
710,355.25122659333334,0.015557794105622228,-0.40436360438244445,0.15590120957111114
711,355.74875554347824,0.16084591874784782,0.01390181213102174,-0.14820207728239135
712,356.2517517021739,-0.8413660163117391,-0.3580032884717392,0.7278930933091303
713,356.7492805022222,0.5667323920110666,-0.5078717922080445,-0.3207763566833333
714,357.2468093521739,-0.5710514064793478,-0.06235410987391302,0.797986372726087
715,357.7498055456522,0.587456794505,-0.5198189799990217,-0.024751455908260868
716,358.2528016717391,-1.0448490471739131,0.21453650236086957,0.482236934673913
717,358.75033043111114,0.26389251221755555,-0.9485407690342222,-0.16714581379777776
718,359.2478591391304,-0.5561727765167391,0.6664611379515218,0.6749915972369565
719,359.75085516304347,0.6028705563497826,-0.8811047514182608,-0.12689831981521732
720,360.2538511521739,0.5865631472869566,0.769003997078261,-0.0035823324978260483
721,360.75137974,0.1037624180409111,-1.2871101356466668,-1.1384104623331113
722,361.2489082956522,0.24894197618021738,0.7434474437155325,0.2411037009999999
723,361.7519041478261,-0.3725621454215218,-1.033149041521739,-0.3099750746673912
724,362.24943259777774,0.4877036379511111,0.8398011758991111,0.42267048098
725,362.7469610086957,-0.3711840185971739,-1.0156870426326088,-0.008829168711521711
726,363.24995670217396,0.4187252961789131,0.15745589103864346,-0.22667065907869569
727,363.7529523565217,-0.3534413654239131,-0.3803898170256521,0.1855859756243478
728,364.25048057555557,0.7341788325228888,-0.01783318221866666,-0.021289454565555536
729,364.748008752174,-0.9990026627217392,-0.16383281800652175,0.5868641086130435
730,365.25100420217393,0.4978802404719565,-0.42244578312413045,-0.3471683108397826
731,365.74853224000003,-0.16986849442328888,0.11446264057579998,0.8501124912755555
732,366.2460602217391,1.7198981604217392,-0.5024281300013044,0.3156942491652174
733,366.74905545869564,0.019306868308695664,0.38378401426086955,0.5758993417543479
734,367.252050647826,0.6171732382445652,-0.3796976678427609,-1.4075133489597826
735,367.74957838888884,-0.9568746950168888,0.42634948766,0.7426294540622222
736,368.2471061086957,0.9872658457263043,-0.7249653268469566,-0.25172237722326085
737,368.7501010434783,-0.5019023735619565,0.2380338032243478,0.977976550083913
738,369.25309594565215,0.28371790858956525,-0.7369254153395651,-0.9376298967241304
739,369.75062342666666,-0.4601511848993334,0.7847037417802222,0.05605758025377779
740,370.24815085434784,0.6772946035132609,-1.402225840279348,0.6260483368421739
741,370.7511455543478,-0.2414601364888913,0.4452812868680435,0.25062141210869565
742,371.24867286666665,-0.21734877382273332,-1.2207580805177778,-0.7725344869644445
743,371.7462001173913,0.016023407959130428,0.5670007752778261,0.06754478161195653
744,372.24919465000005,-0.3076238038173913,-1.1313041721891304,-0.26490553561521735
745,372.7521891152174,0.07099039510380434,-0.24802033795,-0.02793006278152175
746,373.24971619555555,-0.5423663755388889,-0.28951376745333335,0.83714521204
747,373.7472432130435,0.4292824297465217,0.06653550787130436,-0.12339247825932612
748,374.25023749347827,-0.6721487965169566,0.922883228797826,0.9555184322967392
749,374.7532316956521,0.432784701306087,-0.5345866407945217,-1.342096815933913
750,375.2507585155555,-0.601862497832,0.5449301206177778,0.8302981165151111
751,375.7482852586956,0.6687530162541304,-1.3455388843693696,-0.2910818432193478
752,376.251279276087,-0.6665735138659783,0.9746744003921957,0.795807589596087
753,376.7488059022222,0.35119856132777777,-1.0555422245844446,-0.43442259896888896
754,377.24633246521734,0.013612701356521739,0.7556220792577826,0.2965972009043478
755,377.749326276087,-0.09899550206573914,-0.9817941285960218,-0.621980076173913
756,378.25232002173914,-0.3248260858563913,0.726711435245,0.3342161801280435
757,378.74984637777777,0.1248143589871111,-1.3080667615000001,-0.17645218107111116
758,379.24737266521737,-0.3866013378718261,0.7002831553258695,0.39018393597826095
759,379.75036620434787,0.3660153325978261,-1.3661890883466088,-0.33260707227630437
760,380.2533596695652,-0.2345786192171739,0.7741376314117391,0.4557558868695652
761,380.7508857533333,0.07202000502077777,-1.30429634118,-0.4914999326186667
762,381.24841175,-0.34074355112347826,0.6639013154015435,0.5949449124623913
763,381.75140499565214,0.3765749367834131,-1.4838839990086958,-0.24929415660782606
764,382.2489308577778,-0.04016364546333334,0.833936181352,0.6199374411177778
765,382.7464566543478,-0.16384339461739125,-0.9216012287456522,-0.4396444403478262
766,383.2494496869565,0.8041840552043478,0.1527352818630435,0.1676446355021739
767,383.7524426695652,-0.4537763038786956,-0.41160209734934783,-0.16239443026521744
768,384.2499682777778,0.41299591514600004,0.263308384048,0.07787294386866665
769,384.7474938217391,-0.1422193732504348,-0.48768094181521743,0.2821753543343478
770,385.25048662826083,-0.4993740213701522,-0.041805775255,-0.49475734129815224
771,385.753479376087,-0.9137220405186955,-0.21273055542608696,0.65855326858
772,386.2510047644445,0.21865946062666666,-0.5225152544884444,-0.5734213299362221
773,386.74853011521736,-0.4753477325282609,-0.3362497861869565,1.6475434822373913
774,387.2515227282609,0.5979396837104348,-0.48764501187021736,-0.7905540258745652
775,387.7490479844445,-0.8676867110655555,0.3027402818755556,1.3791294417288888
776,388.24657320652176,1.1000981920584783,-1.0957319833847827,-0.28117027488847823
777,388.7495657,-0.23031205522345652,0.7043290983402174,0.564569369602174
778,389.2525581543478,-0.015367067693478263,-0.8043516997582174,-0.2860110013630434
779,389.75008327333336,-0.0060126135755555485,0.5969771785524445,0.2913447379933333
780,390.24760835434785,-0.16642201172369567,-0.8029835470373913,-0.423428255552174
781,390.75060076739135,-0.767471209148261,0.7429255541700001,0.24427397361239137
782,391.2535931391305,1.2709631129608696,-1.4879096088882608,-0.06308896646869568
783,391.7511181777778,-0.8088345160033333,0.7233054697051112,0.5484353807437776
784,392.24864320652176,0.7570799485354565,-1.2949405480772609,-0.8420226470302173
785,392.75163552826086,-0.6157022649617392,0.9229191347678262,0.4240415925804347
786,393.24916054000005,-0.5752845399833333,-1.7597760485555556,-0.6977362951444445
787,393.7466855326087,-0.08466339239108696,0.48075973428695656,0.38247568707391305
788,394.2496778413044,-0.3515189219195652,-0.3248653230071739,0.357270344409587
789,394.7526701586957,0.4122530549280435,-0.5253752690465217,-0.14903263426565214
790,395.2501951822222,-0.21405345066866668,0.0037055968830888956,0.40141445795177777
791,395.747720223913,0.7314182934010869,-0.16921824862939133,-0.14844031955695652
792,396.2507126,-0.4092088814891305,0.33577896724304346,0.33084015227999997
793,396.75370495652174,0.2155631340156522,-0.08147390119336956,-0.4292378840173913
794,397.25123002,-0.4171405129593555,-0.5676311579193333,0.49583661825200004
795,397.7487551173913,0.270297960083913,0.12704038175880433,0.08536543015434782
796,398.2517475369565,-0.6451495678628261,-0.0364768462552174,-0.6298329519378261
797,398.74927269777777,0.4478336134755555,0.0581859121891111,0.020532417326444435
798,399.2467978934783,-0.5232696298978261,-0.21836617977130432,-0.17398048483021739
799,399.7497904456522,0.46212970168543477,-0.19659565753565217,-0.2650949954456522
800,400.25278304565217,-0.31248929963043476,0.008491495085234784,0.5380269237863043
801,400.7503083555556,0.846410822934,-0.38044942281686667,-0.3864240858133333
802,401.2478337195652,0.14334891153847826,0.3780490477583478,-0.4383765096030435
803,401.75082644782606,0.18310811396565216,-0.3247210348271739,0.12301955018260871
804,402.25381922391307,-0.12270295233630435,0.018855098114347824,0.1447836005228261
805,402.7513447333333,-0.21651202444111112,-0.20348751086844444,0.09947570161451111
806,403.24887029130434,0.5539669647406522,-0.09781115471608696,-0.11296008974326086
807,403.7518632130435,-0.3113621486093478,-0.07003662654630434,-0.007734060322173898
808,404.2493888844444,0.42584856966155554,0.2953427831277778,0.06153586708666666
809,404.7469146195652,-0.5748977376313044,-0.413898238671587,0.48238571842217387
810,405.24990774130436,0.035957441874565226,0.261520476448913,-0.7300538498263044
811,405.7529009326087,-0.36667009406499995,0.13575895233913043,-0.05297908573500002
812,406.2504268688889,0.2637033250837778,-0.027118067586200004,0.003239938940400005
813,406.7479529130435,-0.20414264436130433,-0.26212526564913047,-0.2606850396154348
814,407.2509463804348,0.23736830466434783,-0.13866876194891303,0.2468460435267391
815,407.7539399717391,0.08908718051543475,-0.46070685657193916,-0.45327637504130436
816,408.25146634666663,-0.10447149939355554,0.040641257526888894,0.43512276543111117
817,408.74948567391306,0.4082460733902174,0.1340776144023913,-0.43376149305869566
818,409.2491989488372,-0.07398182985697677,-0.03407681420139534,0.3389091491930233
819,409.7462332065217,0.45208402010869564,-0.7449169554430435,-0.0591697485628261
820,410.2492274347826,-0.5362713829173913,-0.07575913097630435,0.5368972550426087
821,410.7522217804348,0.22574303346891306,-0.08655495292304345,-0.34801211560204354
822,411.24974892000006,-0.16267202960555555,-0.025646687571999997,0.6776401520168889
823,411.7472761543478,-0.07331914553212392,-0.023613338048695646,-0.7707805011484565
824,412.25027079130433,0.07760212475586957,-0.12675628842391304,-0.027948483209782604
825,412.7532655,0.036474740366739145,-0.22241112265173915,-0.057309824415652154
826,413.25079292888887,-0.44988509414666666,0.31267035442315555,-0.11943713294311112
827,413.74832041956523,0.46290387342739137,-0.5294728104941304,0.2744526241128261
828,414.25131533913043,0.21130430499717387,-0.43057071252304346,-0.19588887169413044
829,414.7488429711111,-0.24075958997555555,-0.1490992324322222,0.7327465799255555
830,415.2463706869565,0.23418123832,-0.2241241212821739,-0.49962476027608693
831,415.7493832043478,-0.26389818870869564,-0.09768184465739131,1.1726794346130434
832,416.25184237555555,0.0024017439919333436,0.06032032437066667,-1.4447489314627335
833,416.7498887755556,-0.3381132125833333,-0.19778372841488887,0.22707281113919997
834,417.24741676521734,0.1888931147323913,-0.3541454452480435,-0.15737994854895979
835,417.7504121956522,-0.03487135661913044,-0.424333502086087,-0.098988408625
836,418.25340772826087,0.14096252903369566,-0.18611612658913043,0.5355178791565217
837,418.75097518222225,0.5426445906234666,-0.15368404123111112,-0.3726153373568889
838,419.25122217555554,-0.08576537238355555,0.2626761512711111,0.5128903707106667
839,419.7536472913044,-0.6296443233156522,0.4158390825195652,-0.09937426310260868
840,420.25117595333336,-0.7632712178644444,-0.20229831139333332,-0.5962679545686668
841,420.74870474782614,0.029975508516956514,-0.526188709123913,0.3959671829326087
842,421.25170098260867,0.4332188701508696,-0.5142745621717392,0.009651764586913018
843,421.74923002444444,-0.2480293869975111,0.0673446602311111,0.32912508648155553
844,422.2467592282608,-0.25676386219347824,-0.30262630790869566,-0.398311086361087
845,422.7497559456522,0.4044753960823913,0.21473160382608694,0.512207559876087
846,423.2527528608696,0.0010581036015217496,-0.28724962439630436,-0.45384855892217396
847,423.75028262,-0.2238905832041778,0.7824288487513333,-0.0979464848868889
848,424.2478125869565,-0.16335963227121741,0.2145750289378261,-0.23965815886021738
849,424.7387385547619,0.14074090052095237,0.4072326684435715,0.3224062465472619
850,425.24748106521736,-0.2571130829173913,-0.33771213092739133,0.6671425881804348
851,425.75048199565214,0.6123819986047826,-0.4770957059536956,-0.8541629729608696
852,426.25348283478263,0.014653120615965205,0.002521504489347814,-0.5697043356630435
853,426.7510161888889,-0.43208023970555554,-0.47811381486377774,0.19768594108666662
854,427.2485494543478,0.013571952323478265,-0.21338245433993477,-0.3740639582739131
855,427.7515500195652,-0.632426183190174,0.13011026903695652,1.3581740130152173
856,428.24908308444446,1.060114063891111,-0.7768200394033333,-0.2093928230822222
857,428.7466160804348,-0.7808052855380435,0.6617272302391304,0.9844491066847827
858,429.24961638043476,0.8147816185343479,-1.1098511070236956,-0.34667979116000003
859,429.7526165891304,-1.0355469377108695,0.4566585022736957,0.24557334446043483
860,430.25014932444446,0.15199051232066665,-1.0803148971662222,-1.2188356717066444
861,430.7476819652174,-0.7796320092206521,0.4448241381004565,0.11545334695086959
862,431.25068191086956,0.3059991831167391,-1.3410033220347826,-0.43305647889978266
863,431.7536817630435,0.12223656640065217,0.1289846437002174,-0.009200282741304383
864,432.25121411333333,-0.02230457529440446,-0.05124132503999999,0.7227669821786668
865,432.74874638695655,0.7310914986206521,-0.2832216529567826,-0.07886870007608694
866,433.2517459695652,-0.7230539305158695,0.09902566477608696,0.8441872492695651
867,433.74927808666666,1.0221661355742222,-0.7499800092990889,-0.28049794300755554
868,434.2468101217391,-0.9793903309132609,0.688210809978913,1.0983085632913043
869,434.7498094652174,0.9886161880152173,-1.1936524798995651,-0.4383910324745652
870,435.2528087369565,-1.1087156799497826,0.7153627101465653,0.1426325984893478
871,435.7503405577778,0.8027635143488889,-0.9281822495742222,-0.9217106924848889
872,436.2478723195652,-1.103420394947826,0.5876776386673673,0.4386439219630435
873,436.7508713913044,0.36644085885804345,-1.3713279551297826,-0.5634857987
874,437.2538703978261,-0.07619789631395651,0.5773405688676087,0.07687114630521738
875,437.75140198888886,-0.015134498700977779,-0.4240145875726,0.16856609977999998
876,438.2489335130435,0.3668147779147826,-0.13761555194695652,0.00535412457826089
877,438.7519323913043,-0.8111285813373261,0.5544423415413043,0.8924873704230435
878,439.2494638311111,1.5471700071782222,-1.4030628197537778,-0.052236292090000004
879,439.7469952478261,-1.2676898017558695,0.6769128221152174,1.0353162599695653
880,440.24999400869564,0.8427786270373913,-0.7490763155536956,-0.4215856428238261
881,440.7529927456522,-1.1233693386784782,-0.0019115734369565141,0.14401067850869567
882,441.25052408444446,0.24744207065111112,-0.2067924837152889,0.15509210165133333
883,441.7480553869565,-0.7170522186841304,-0.045045758069347845,-0.8863320869047826
884,442.2510540456522,0.03411331383434785,-0.38791208233543484,-0.43023721030565215
885,442.74858528444446,0.3578200552377778,0.27035512726211114,0.30305732089866666
886,443.24611652173917,0.13796939799452176,-0.47844836637108695,0.24116070368917392
887,443.7491151217392,-0.2280825570990435,-0.698669619535326,-0.023747319763043465
888,444.2521137086957,-0.30632701125608697,0.07147240441304346,0.12117851301195652
889,444.7496449066666,0.27302221457733333,-0.11182834974533333,0.5803232405199378
890,445.24717609130437,0.18213626906869565,0.14391993176495652,-0.7355958067823913
891,445.750174673913,0.08302960445356522,-0.2292253167923913,0.4300993214596917
892,446.2531732369565,-0.021655212294565216,0.5381257715854347,-0.4338805675460869
893,446.75070444666665,0.308660742306,-0.3672179036907111,0.3365792804726444
894,447.24823566521735,-0.48769443707608695,0.5026679661391305,-0.5081889421836956
895,447.7512342782609,0.3030460671386957,-0.23384296567608695,0.1380191886165652
896,448.2487655488889,-0.12173701064,0.07054893708222221,-0.12076005931177779
897,448.7462968282609,0.2879142314150217,-0.0560829678723913,0.23578946483782606
898,449.2492955565217,-0.030452396587826086,-0.3332636330323913,-0.07474991544260869
899,449.7522943130435,-0.17264212536282608,-0.10107978790326087,0.533679806685087
900,450.24982573333335,-0.16053097927844442,-0.4069501849933333,0.07559121449206667
901,450.74735719782603,0.001156397426739115,-0.1407690119521739,-0.16442965420934783
902,451.2503561021739,0.5200571346004348,-0.4615389399913043,0.2876961438638913
903,451.7533550673913,0.31451774550547823,0.33155740375210874,-0.8400148515700434
904,452.2508867133334,-0.002015998985177773,0.01745579503859999,-0.2184637916908889
905,452.7484184347826,-0.6298158920130436,-0.08874032810384783,-0.3726889258152174
906,453.25141759347827,0.10013852102276087,0.2145583564517391,0.5596975658450001
907,453.74894947111113,0.3950872381518,-0.08757124409355557,-0.11517656112032001
908,454.2464813978261,0.45803300259760865,-0.10571024795260868,0.39361568116956525
909,454.74948080217393,-0.0583715847228261,-0.36684650442108696,-0.27272967665652176
910,455.2524802891304,-0.34095897495195654,0.18487236617195654,0.6521055698165218
911,455.7500124733333,0.01006650621053333,-0.5131902601644445,-0.07776423560488888
912,456.24754475869565,0.020783921285217402,0.09075988763152176,-0.3562580191641304
913,456.7505445152174,0.10074790857869564,0.013473445950434782,0.2584202600128261
914,457.25354435434787,0.023411042660652172,0.35870786595934784,-0.5307614181404348
915,457.75107687999997,0.48458461431755556,-0.28910772536466667,-0.25579777822688887
916,458.2486095108696,-0.013137528035369562,0.23278018579021736,-0.26615738871521744
917,458.7516096347826,0.16753470607543477,0.06706619519282608,0.31749889127391306
918,459.24914243999996,-0.3530421204088889,-0.5586527016831111,-0.1647071203219778
919,459.7466753195652,0.33354874217956526,0.11045058789130432,0.42190045898993483
920,460.2496757173913,0.08198212674608697,-0.27456745504891306,0.1656353784992174
921,460.75267618913045,0.19789286214869567,-0.06925295752739133,0.17883635601862824
922,461.2502093488889,0.03736783298177778,-0.159909449626,-0.012357817764222213
923,461.74774260652174,-0.006675035496782604,0.2928080208434348,-0.2926556338956522
924,462.25074334565215,0.2341490217691304,-0.23789201352326086,-0.08325514582326086
925,462.75374418913043,-0.19369604598913043,0.45856293904804346,-0.3943387425417391
926,463.2512777022222,0.25263871483397776,-0.5125223742911111,0.09096040729377776
927,463.7488113,-0.48865859566565223,0.5168829055408696,-0.09138921026282606
928,464.2518124,0.30518778637683147,-0.24142342283630439,0.139208036904
929,464.7493461733333,-0.1491485417311111,-0.11966670086875557,-0.019680330521333344
930,465.24688001739133,0.025032413373260877,-0.38404163589478263,0.24119966965580433
931,465.7498813521739,0.013460749467391312,-0.22202798855752173,0.09278869628934784
932,466.2528827717391,0.2772641065173913,0.11127883972565215,0.1761911848369565
933,466.7504168533334,-0.017438204460000016,-0.285848683794,-0.07804739208200001
934,467.2479510043478,0.46254509497391305,0.3061440898136956,-0.3979284970997826
935,467.7509526391304,-0.23836850212913044,-0.1861367717726087,0.32796898098695654
936,468.2539543565217,-0.23227614163282606,0.7227273142912827,-0.23558338830497827
937,468.7514887155556,0.2167214208577778,-0.44445490381022223,0.014489226864444432
938,469.2490231434782,-0.023187806523913043,0.1769334861634783,-0.055149835031956515
939,469.7520250543479,0.4795202884757174,-0.1811207960697826,0.2512353088058696
940,470.24955962444443,-0.5830707365177777,-0.8126312997918889,-0.005536895326666657
941,470.74709427391304,0.02086577210845653,0.02967341567969566,-0.09650944627217391
942,471.2500964108696,-0.43484823079565216,0.04281189133586956,-0.02560569927456524
943,471.7530986173913,0.00874881119306522,-0.001787898373913041,0.07282733916723913
944,472.2506334822222,0.6487427447,-0.3209229243762222,0.42065334317800007
945,472.7481684173913,0.05461543545101522,0.2508797334478261,-0.8408951240526087
946,473.2511708304348,-0.27249688299326086,-0.4333003351230435,0.16995218528717393
947,473.7487059044445,0.454128392054,0.4148420519888889,-0.38383545342333336
948,474.24624104130436,0.2710979496621739,-0.5054110670456522,-0.4032833265608696
949,474.7492436760869,0.008859808073913055,0.08811224166086958,-0.5365397204830434
950,475.2522463847826,-1.0658289362128044,-0.7366197679834784,1.0343798865052174
951,475.74978173333335,0.41409059629048883,-0.29048969607844444,-0.18923411903555556
952,476.2473171586957,-0.3184062048195652,0.026732474593195648,1.6846714537969565
953,476.75032006956525,0.8742409076321739,-1.1153579859543479,-0.5136491837782609
954,477.24972648222223,-0.8092180404452,0.8127808915957778,0.8883141728964222
955,477.7475782282609,1.1914561416835652,-1.264965872317826,-0.5749859498963044
956,478.2505813456522,-1.5095621127244132,0.5480501768158695,0.4440082467434782
957,478.75358452391305,1.1165283555466738,-1.4160369165363043,-1.2709480575304348
958,479.25112033333335,-0.38226859305577776,0.5314768354002223,0.04362203812444444
959,479.74865620869565,-0.020096563740217403,-0.7455853314865217,-0.15545307039565223
960,480.251659573913,-0.10987243566152173,0.25388105666956523,0.021922049326739114
961,480.7491955955556,-0.23495172130715553,-0.48151870169622224,1.0357997894142001
962,481.2467316608696,0.5908795750433914,-0.6112067336640653,-0.6530617941489131
963,481.74973523478263,-0.9180743389221739,-0.06783482949195652,1.4343254048108696
964,482.25273887608694,1.060890053940652,-0.6705649924269566,-0.049638665184782604
965,482.75027518444443,-0.3087768004886667,0.4583751082311111,0.2912664837222222
966,483.24781157173913,0.6302319952993478,-0.7039877817926087,-0.44763834583043477
967,483.75081547826085,-0.9408038232923913,0.4680433882461957,0.22098969376369568
968,484.25381949347826,0.8085671838102392,-1.335092964728261,-1.1175833992869566
969,484.75135615777776,-0.42158097564933333,0.35393711727688887,0.5208959367644445
970,485.24889293913037,-0.037566107893478265,-0.8351490950932609,-0.3569241917323913
971,485.7518972565217,0.04732110192347826,0.1584415253045,-0.08041121651086958
972,486.24943425111115,-0.3192411703425111,-0.16697610086200002,0.47299575810893335
973,486.7469713391304,0.4276098647628261,-0.17592338634843477,-0.2709392983308696
974,487.24997598913046,-0.3002788271235217,0.10281017424130438,0.28842546632282606
975,487.752980773913,0.6014747357106522,-0.09777644466515216,0.17845063626604346
976,488.2505182022222,-1.0852662099953334,0.437326142522,0.8388851377731111
977,488.74805575869567,0.5988936682967392,-1.4780577343180434,-0.38241779284862826
978,489.2510608869565,-0.8262919653932608,1.059071032895652,0.97674880855
979,489.74859869777777,0.8166204432977777,-1.1652510828766667,-0.9286090214844445
980,490.24613659347824,-0.0575181558773913,0.4690406620173913,-0.17676097408652178
981,490.74914207391305,-0.18479584222195652,-0.25206266668456523,0.15156592494565216
982,491.2521476521739,-0.291470548371087,0.23702101730369562,-0.6399214993856522
983,491.7496858911111,0.13781156075066667,-0.6365142544030222,-0.11749677658222218
984,492.24722423913045,-0.125747404015,-0.15938130310608695,-0.26309115983913045
985,492.7502301608696,0.5204811666728261,-0.011072903916304352,0.9097749460884783
986,493.25323618478257,0.06432922249565216,-0.43085405359543477,-0.6653771297093478
987,493.7507748488889,-0.39113475613688886,0.12485926024888888,1.1637531598562223
988,494.24831363043484,0.49789747464869566,-0.3385153620023913,-0.34292915589130435
989,494.7513199652174,-0.0969909772536087,0.22490202113673913,0.7984069845152174
990,495.2488589511112,0.2683026200795556,-0.769060309038,0.07080758410666665
991,495.74639803260874,-0.8446002715817348,0.6811557745896957,0.2192461594043479
992,496.2494046782609,0.32409463534391303,-1.1120053969787391,-0.4008044366826087
993,496.7524114195652,0.3291696132326087,0.6515261621832609,0.10039508861652177
994,497.24995079333337,0.18840973342422224,-0.6432561291685334,-0.6849315113315556
995,497.74749026086954,-0.3988476888032609,0.28974354300476085,-0.2028130966456522
996,498.25049728043484,-0.06271604076891305,-0.6947711525082608,-0.13139795218739128
997,498.75350441086954,0.353433630395,0.18473269888673913,0.1472809004413044
998,499.2510441755556,-0.5339351142362222,-0.26741985679111113,0.17641323933111108
999,499.748584026087,0.30064384022826085,-0.3620583834593479,-0.16965258636565217
1000,500.2515914652174,-0.2924434596146087,0.05873511699326086,0.8449955609195652
1001,500.74913155111113,0.7066608374442223,-0.5464599397351111,-0.2957224316144445
1002,501.24667170652174,-0.7728202553402174,0.5993729590086957,0.7784830798347827
1003,501.7496794804348,0.44714503961913044,-0.6366349866913044,-0.21756731945282604
1004,502.25268735,-0.35815245269804347,0.7124561939476087,0.4596875128673913
1005,502.7502289266667,0.22166929386044443,-0.9989962604064445,-1.173387485116
1006,503.24776982173915,-0.1830563707178478,0.6285160196321522,0.40809236400152177
1007,503.75077805869563,-0.3202811846921739,-0.7399704236069348,-0.4066742503189131
1008,504.25378641086957,-0.744950068873913,-0.1374620594371739,-0.24976155031478262
1009,504.75132739555556,0.9802789562466666,-0.7197892902657779,0.0322817379111111
1010,505.24886851956524,0.7045491182302174,-0.7959876222226087,0.27611838218478263
1011,505.75187725652177,-1.1663210132393478,0.19538124550282604,1.1021625995565218
1012,506.2494186422222,0.8806180530253334,-0.55864500007,-0.3354622734888889
1013,506.74696015434785,-0.688717305005,0.3488261038826087,0.443365439073913
1014,507.2499692782609,0.3600803314476739,-0.45560117910934783,-0.02692671445608693
1015,507.7529785347826,0.000803815342826084,0.5659249541423913,-0.22151221404130436
1016,508.25052042,-0.004239780231777779,-0.33335888386,-0.22214752829577777
1017,508.74806250652176,-0.06136104384369565,0.08358649320999999,-0.45143837513163043
1018,509.2510722434783,-0.04560827666739131,-0.3176251559367391,-0.23738553216086958
1019,509.7486147,0.28089969119444447,0.06223985686022222,-0.24935763677422224
1020,510.2461572652174,-0.450192606996087,-0.24464709279217392,0.3719715968304348
1021,510.7491675304348,0.1731595448778261,-0.16481889201130437,-0.1033168254195652
1022,511.25217796521736,-0.4270029792036956,-0.2568020042826087,1.239714384106087
1023,511.74972110666664,0.5794222500674,-0.3918827752455556,-0.09406859081555559
1024,512.2472643869565,-0.43332591136739135,0.47033787000065214,0.5413353442739129
1025,512.750275376087,0.6840165996323914,-0.8668041223528261,-0.7184498517431739
1026,513.2532865130435,-0.407669839665,0.6704696087987392,-0.09803575008652177
1027,513.7508303266667,0.016585259319422216,-1.4558295753702222,-0.5681595166162222
1028,514.2483742978261,0.11308364767826086,0.22079536289239127,0.1736095988594565
1029,514.7513859434783,-0.2063723614828261,-0.6464011177263044,-0.04337289020326083
1030,515.24893022,0.37053883137999993,-0.11453020967444441,-0.13246881696666665
1031,515.7464746586957,-0.8250564848314564,-0.19895666841739135,1.123950927147174
1032,516.249486776087,0.2998777148463044,-0.46646018149,-0.1792673857332609
1033,516.7524990239131,-0.12883433761158694,-0.02941705543260868,0.4085334798745652
1034,517.2500439066667,0.7905215759522223,-0.2243997128126,0.43001667657
1035,517.7475889304347,-0.17915448610630433,0.4470957488019565,0.23923804449782612
1036,518.2506016304349,0.8431437395059566,-0.7976039667652174,-0.6315572780571956
1037,518.7536144565217,-0.8147257936206521,0.6323107657120218,-0.13290852049347823
1038,519.2511598888889,-0.20785124766159335,-1.2402197838066666,-0.5600935088711111
1039,519.7487054391304,-0.15316430640369566,0.40257416284021735,0.07497256731956525
1040,520.2517186586956,0.06078649316304348,-0.909655320347826,-0.020541833854347855
1041,520.7492644666667,0.28657334620295555,0.03793716096644444,-0.2048868921293333
1042,521.2468103804348,-0.5786213569841304,-0.1922985788097826,0.7763267289026087
1043,521.7498239652174,0.3425230239547826,-0.24929597163847825,0.09901596146456522
1044,522.2528376717391,-0.5101829864386956,0.16062009917608697,0.42612196045717393
1045,522.7503839422222,0.6779200593735466,-0.5650136785011112,-0.3212017800671111
1046,523.2479303347826,-0.32315487348913047,0.571364324905,0.24733469798913046
1047,523.7509443826086,0.24460231576608696,-0.5784010433502174,-0.02886233118789129
1048,524.2539585543478,-0.04089530976,0.6676578629295653,0.3079319311978261
1049,524.751505311111,-0.0008391853759999969,-0.6223478737542222,-0.7886697451193333
1050,525.2490521782609,-0.38281926124456517,0.6726347471808696,0.15083463295434787
1051,525.7520667086957,-0.26880301339130436,-0.7357853077808696,-0.2876589402173913
1052,526.2496137977778,0.16446807847555334,0.40872153208,-0.3927248212946667
1053,526.7471610195653,0.4064592793513043,-0.5813242514534782,0.4524734641754349
1054,527.2501759043479,1.0913912239043477,-0.07755826866326086,0.21701938177021735
1055,527.7531909369566,-0.47393967790391306,-0.6257924696593478,0.08465507761760867
1056,528.2507385488889,-0.5027758929422222,0.20055784121955555,0.09586725236888888
1057,528.7482862847827,-0.5231522370530218,0.004461281971782604,0.3875084441869565
1058,529.2513017347826,0.4659613876458696,-0.1376232245753478,0.5624853527636957
1059,529.748849771111,-0.09693273167688889,0.31309725176755554,-0.12303283480377779
1060,530.2463979543478,0.25057453953567393,-0.17131421488565218,-0.5818659430086957
1061,530.7494138630435,0.055049748540652185,-0.03274937685130433,-0.3016096301521739
1062,531.252429926087,-0.012364755527391304,-0.19180339770152174,-0.30304065998006957
1063,531.7499785911111,0.5900782201213334,-0.07063363408644445,0.025273821119999998
1064,532.2475274195651,-0.19328721970608695,-0.12824339069636959,0.26755201294173914
1065,532.7505439826087,0.326701799176413,-0.01915746928095652,-0.04281811088173912
1066,533.2535607130435,-0.6759817004419565,0.003858984800000011,0.23123744262673912
1067,533.7511100444444,0.19992585709266666,-0.5238105538935556,0.6572150018484444
1068,534.2486595608696,-0.21635985632326085,0.43184315808026086,0.0010353481891304515
1069,534.7516768152174,0.14218351505306523,-0.5124067923369565,-0.09382945560958697
1070,535.2492266666667,-0.8698094672355555,0.6169562180773334,-0.4975460264322223
1071,535.7467766586957,0.5422570965004347,-1.5210656653563044,-0.24140260006086955
1072,536.2497944065218,-0.08385896167521742,0.032748756218913044,0.325172626405
1073,536.7528122956522,-0.2734992451665435,0.5444305047019565,0.05194991568043478
1074,537.2503627577778,0.5484407106844444,-0.004457807534222212,-0.4936335352406666
1075,537.7479133913043,-0.5083160996908695,-0.32508611939521737,-0.06008131603031086
1076,538.2509317673913,0.20132587139456523,-0.01541201056956523,0.4331096359119565
1077,538.753950323913,-0.4239185556265217,0.07420285889269565,0.2168855459971739
1078,539.2515014555556,0.20177249546133333,-0.05699908737266666,0.07787623935111108
1079,539.7490527413044,0.38665144144817826,0.40654602000586954,-0.05688321066956523
1080,540.2520718,-0.03316748822147826,-0.5507483294484782,-0.76354121125
1081,540.7496234222223,0.03908167449924022,-0.005375496554555549,-0.20580823689777783
1082,541.2471752043479,-0.22074414850934784,-0.5179438267049348,0.15788583133195652
1083,541.7501947152174,0.1515352305021739,-0.1354318353528913,-0.07710380138478254
1084,542.2532144326087,-0.7815289971740087,-0.09006376471173914,0.9839311474897826
1085,542.7507666399999,1.1340345643911112,-0.4341922865735555,0.022479025525333304
1086,543.2483190043478,-1.4073711620776521,-0.09910240281847826,0.6370511054847826
1087,543.7513390891305,1.1146293288630436,-0.744091037846087,0.1543682243208695
1088,544.2503853088889,-0.7157500359286222,0.4896315776838889,0.4462790595057778
1089,544.7494607522727,0.6952006952568182,-0.8169276199204546,-1.2380410540886364
1090,545.2494648847826,-0.04859272878847826,-0.1065496258056087,-0.26991881494782605
1091,545.7524854608695,-0.2408284985545652,-0.4811110275784783,0.5625223180141304
1092,546.25003852,0.40711372362044446,-0.17467310558,-0.3658576965422222
1093,546.7475916565218,-0.06285805076826087,-0.02481077676784782,0.3172435552935217
1094,547.2506124891304,0.07147045044760869,-0.03772774990586956,0.49766518757434774
1095,547.7536333891304,-0.2978040815732609,0.16814356656826088,-0.24856748786326086
1096,548.2511867711111,0.059566661374000004,-0.23477550615422224,0.45390880371066666
1097,548.7487402130434,-0.30733610609739126,0.6862616655793478,0.017414611354347805
1098,549.2517613717391,-0.03411570420986957,-0.5141803867923913,-0.35291216687608695
1099,549.7493149866667,0.3619447925027489,0.085402716508,-0.6180210643104445
1100,550.2468686782609,-0.12787777967697828,-0.14007259194913044,-0.18437538977391307
1101,550.7498900826087,-0.10438182204808695,-0.3652277225872174,-0.32229522003043476
1102,551.2529115565218,-0.371297528251087,-0.007383393841304342,0.9635018162321739
1103,551.7504654733333,0.6110590656428888,-0.47953161263577776,-0.23802400168244447
1104,552.2480194608695,-0.7072665487230434,0.565824274155,0.4967470065608695
1105,552.7510411369566,0.18367758085791303,-0.5488467294586956,0.09790685906891305
1106,553.2485952311112,0.310590106578,0.7581083376810223,-0.18433488215333335
1107,553.7461493760869,-0.15963489884273913,-0.4165882545839131,-0.28292883997630436
1108,554.249171176087,0.03226100978343478,0.2744642159465217,-0.46091283923608695
1109,554.7521930108696,-0.07096712548760868,-0.45048302670565216,-0.14428232027173915
1110,555.2497472377778,0.5322905926868,-0.0767126057311111,-0.3097211837291111
1111,555.7473014652173,-0.18679373452115214,-0.33582506099695647,1.0058196316152175
1112,556.2503233369565,0.021827031744260865,-0.1386116872752174,-0.2267604185021739
1113,556.7533451869566,-0.4751418961902174,0.3173271987571739,0.558570177676087
1114,557.2508993888889,0.2387208276277778,-0.313524980036,0.15915810268333336
1115,557.7484535586956,-0.0906176554152174,0.26776336327391304,-0.7573079233565218
1116,558.2514753173913,0.1581766767507609,0.023542555780000023,-0.012572765343999983
1117,558.7490294066666,0.13562687104953333,-0.09657915562577778,-0.21004334558555557
1118,559.2465834391304,-0.0730765772830435,-0.2511947375428261,-0.07469046633260869
1119,559.74960505,0.26092880478652175,0.003685786719956527,0.25752764154565216
1120,560.2526265869566,-0.5208747973326087,0.2829689441978261,0.48179583966565215
1121,560.7501804422222,0.45600359478111113,-0.45695001617817776,0.30297462670422226
1122,561.247734221739,-0.3409259218874783,0.3240339801452174,0.35172078923934785
1123,561.7507555608696,0.3791305960595652,-0.5803252413326739,-0.6931031164654348
1124,562.2537768152174,-0.39850867503146303,0.07868083921454348,-0.863293295297826
1125,562.7513291755555,0.014697958961111106,-0.18767303625755558,0.37315951458666663
1126,563.2488823260869,0.3054613146923913,-0.20775264631652174,-0.1916079003173913
1127,563.7519033108696,-0.3179124352217391,0.024907065503478272,0.5311505691108696
1128,564.24945656,0.3611536789528667,-0.2886454370071111,0.12032933764244445
1129,564.7470097043478,-0.5762733546619565,0.35325313018913046,0.9350969064984783
1130,565.250030347826,0.23796874909673912,-0.3631216702293479,-0.6114868495847826
1131,565.7530508565218,0.01590512042326088,0.4339552974891304,-0.041569564615217394
1132,566.2506036444445,-0.15939189193844444,-0.8372601356875555,-0.4213445239777778
1133,566.748156276087,0.6587183287478261,0.08841691071415216,-0.2758458075460435
1134,567.2511763782609,-0.16764558527152174,-0.23721806900565215,-0.08663186815593474
1135,567.7487287333333,-0.09978553289733331,-0.05923116207303334,0.14844095438599997
1136,568.246280947826,-0.5406216195082609,-0.04756037956086955,0.5266381138949999
1137,568.7493006065217,0.27051712408130435,-0.12588712052956522,0.31977997652304346
1138,569.2523201065218,0.011431625338478258,0.3961952354906521,0.2014227639043478
1139,569.7498718088889,0.24501235452506667,-0.16784104771755554,-0.7347425884199998
1140,570.2474233891305,-0.5632800646529348,0.42681476086434783,0.0979397918565218
1141,570.7504423804347,0.46026461665978263,-0.7618858879278261,-0.3067289642569565
1142,571.2534612065217,0.49908651304934787,-0.11906862649519566,-0.19649515984347823
1143,571.7510122511111,-0.3521569940977778,-0.3535324030766667,0.3494661967177778
1144,572.2485631369565,0.29668534051195655,-0.09433441968304349,0.08382607542203262
1145,572.7515814260869,-0.34943872561869566,0.2589143385225,0.5393059253419564
1146,573.2491319466667,0.09481862120266668,-0.16740830013622224,0.140989239924
1147,573.7466823,0.20548539622643477,0.4991966123197826,-0.10187725390869565
1148,574.2497001,-0.17197108007130435,-0.5264733990663043,-0.4872377022767392
1149,574.752717778261,0.12074888337502172,0.38424102636152174,-0.1329329428552174
1150,575.2502678022222,0.22647486708844444,-0.3763554520253333,-0.09702788458666665
1151,575.7478177717392,-0.01966971551086957,-0.08272905841804348,-0.0465071926676087
1152,576.2508352630434,-0.12521816289086957,-0.18398551967456522,0.4216466675697392
1153,576.7538527065217,0.4701357684597826,-0.08618823080384783,0.02191066737391305
1154,577.2514025199999,-0.1990613032507111,0.12440336676666668,0.1898926522757778
1155,577.7489522608696,-0.3249704949606304,-0.006570963729347826,0.5768835959434783
1156,578.2496693022223,-0.08112941889511112,0.2959377371402222,-0.8408942328335556
1157,578.755633291111,0.11886436733466667,-0.415324469078,-0.039057487953111085
1158,579.2503490666667,0.06195008552888888,-0.16580899551777775,-0.26186785172466664
1159,579.7478984086956,-0.292770518235,-0.13898095293847826,0.5111055892720218
1160,580.2509151978261,0.25555135715065214,-0.32311898470652173,0.005647317244565213
1161,580.7539318521739,0.39048242182369564,0.41473052943021743,0.20856777475500002
1162,581.11479156,0.038659155367,-0.73015028238,-0.74135401244605
