"Time (s)","Acceleration x (m/s^2)","Acceleration y (m/s^2)","Acceleration z (m/s^2)"
5.009501100E-2,-1.670190215E0,4.508078098E0,8.317451477E0
6.009501100E-2,-1.665404558E0,4.493721008E0,8.355736732E0
7.009501100E-2,-1.636690736E0,4.508078098E0,8.379665375E0
8.009501100E-2,-1.607976794E0,4.532006264E0,8.475378036E0
9.009501100E-2,-1.574477315E0,4.536791801E0,8.566305161E0
1.000950110E-1,-1.593619823E0,4.503292084E0,8.681160927E0
1.100950110E-1,-1.574477315E0,4.484149456E0,8.671588898E0
1.200950110E-1,-1.454836130E0,4.436293125E0,8.599804878E0
1.300950110E-1,-1.512263894E0,4.383651257E0,8.599804878E0
1.400950110E-1,-1.550549030E0,4.398007870E0,8.628518105E0
1.500950110E-1,-1.526620865E0,4.436293125E0,8.580661774E0
1.600950110E-1,-1.588834286E0,4.474578381E0,8.518448830E0
1.700950110E-1,-1.631905079E0,4.474578381E0,8.422736168E0
1.800950110E-1,-1.665404558E0,4.484149456E0,8.408378601E0
1.900950110E-1,-1.837687731E0,4.441078663E0,8.374878883E0
2.000950110E-1,-1.794616938E0,4.570291042E0,8.623732567E0
2.100950110E-1,-1.718046665E0,4.517649174E0,8.891729355E0
2.200950110E-1,-1.756331801E0,4.589433670E0,8.767302513E0
2.300950110E-1,-1.555334687E0,4.594219685E0,8.652446747E0
2.400950110E-1,-1.316052437E0,4.493721008E0,8.480163574E0
2.500950110E-1,-1.268195987E0,4.383651257E0,8.422736168E0
2.600950110E-1,-1.277767301E0,4.278367043E0,8.480163574E0
2.700950110E-1,-1.445264935E0,4.326223373E0,8.599804878E0
2.800950110E-1,-1.402194023E0,4.402793884E0,8.595019341E0
2.900950110E-1,-1.177268744E0,4.407579422E0,8.571090698E0
3.000950110E-1,-1.292124271E0,4.369294167E0,8.580661774E0
3.100950110E-1,-1.392622828E0,4.374079704E0,8.767302513E0
3.200950110E-1,-1.454836130E0,4.417150497E0,8.810373306E0
3.300950110E-1,-1.363908887E0,4.354937077E0,8.915657043E0
3.400950110E-1,-1.095912814E0,4.197010994E0,8.748159409E0
3.500950110E-1,-9.092726111E-1,4.096512318E0,8.571090698E0
3.600950110E-1,-7.944171429E-1,4.010370731E0,8.427521706E0
3.700950110E-1,-8.183453679E-1,4.034298897E0,8.398807526E0
3.800950110E-1,-9.523434043E-1,4.134797573E0,8.451449394E0
3.900950110E-1,-1.038485050E0,4.216153622E0,8.618947029E0
4.000950110E-1,-1.115055323E0,4.259224415E0,8.652446747E0
4.100950110E-1,-1.182054400E0,4.283152580E0,8.700303078E0
4.200950110E-1,-1.158126116E0,4.297509670E0,8.671588898E0
4.300950110E-1,-1.076770186E0,4.244867325E0,8.724231720E0
4.400950110E-1,-9.714859724E-1,4.192225456E0,8.743373871E0
4.500950110E-1,-8.614161611E-1,4.139583111E0,8.748159409E0
4.600950110E-1,-8.662018180E-1,4.115654945E0,8.700303078E0
4.700950110E-1,-8.949156404E-1,4.096512318E0,8.714659691E0
4.800950110E-1,-8.853443861E-1,4.086941242E0,8.724231720E0
4.900950110E-1,-9.044869542E-1,4.149154663E0,8.767302513E0
5.000950110E-1,-9.954141974E-1,4.244867325E0,8.872586250E0
5.100950110E-1,-1.024128079E0,4.316651821E0,8.982656479E0
5.200950110E-1,-1.024128079E0,4.345366001E0,8.982656479E0
5.300950110E-1,-1.019342422E0,4.331008911E0,9.020941734E0
5.400950110E-1,-1.258624673E0,4.393222332E0,8.882157326E0
5.500950110E-1,-1.115055323E0,4.321437836E0,8.781659126E0
5.600950110E-1,-1.115055323E0,4.273581028E0,8.647661209E0
5.700950110E-1,-9.954141974E-1,4.144368649E0,8.513663292E0
5.800950110E-1,-9.427721500E-1,4.077369690E0,8.446663857E0
5.900950110E-1,-9.714859724E-1,4.058227062E0,8.441878319E0
6.000950110E-1,-9.810572863E-1,4.063013077E0,8.566305161E0
6.100950110E-1,-9.379864931E-1,4.019941807E0,8.695517540E0
6.200950110E-1,-9.667003751E-1,4.091726780E0,8.767302513E0
6.300950110E-1,-1.201196909E0,4.153940201E0,8.748159409E0
6.400950110E-1,-1.210768223E0,4.187439442E0,8.776873589E0
6.500950110E-1,-1.105484009E0,4.187439442E0,8.767302513E0
6.600950110E-1,-1.014556766E0,4.173082829E0,8.633303642E0
6.700950110E-1,-9.571290612E-1,4.139583111E0,8.590232849E0
6.800950110E-1,-1.004985452E0,4.134797573E0,8.585447311E0
6.900950110E-1,-1.100698471E0,4.120440483E0,8.628518105E0
7.000950110E-1,-1.210768223E0,4.153940201E0,8.609375954E0
7.100950110E-1,-1.277767301E0,4.163511276E0,8.633303642E0
7.200950110E-1,-1.301695466E0,4.240081787E0,8.609375954E0
7.300950110E-1,-1.320838094E0,4.326223373E0,8.628518105E0
7.400950110E-1,-1.272981644E0,4.388436794E0,8.628518105E0
7.500950110E-1,-1.325623751E0,4.398007870E0,8.657232285E0
7.600950110E-1,-1.426122308E0,4.412364960E0,8.709874153E0
7.700950110E-1,-1.517049551E0,4.393222332E0,8.772088051E0
7.800950110E-1,-1.646261930E0,4.445864677E0,8.776873589E0
7.900950110E-1,-1.727617979E0,4.527220249E0,8.762516975E0
8.000950110E-1,-1.880758643E0,4.594219685E0,8.791230202E0
8.100950110E-1,-1.966900229E0,4.536791801E0,8.810373306E0
8.200950110E-1,-1.880758643E0,4.479363918E0,8.786444664E0
8.300950110E-1,-1.703689694E0,4.402793884E0,8.690732002E0
8.400950110E-1,-1.603191137E0,4.316651821E0,8.523234367E0
8.500950110E-1,-1.521835208E0,4.206582069E0,8.408378601E0
8.600950110E-1,-1.497906923E0,4.149154663E0,8.441878319E0
8.700950110E-1,-1.426122308E0,4.010370731E0,8.551948547E0
8.800950110E-1,-1.383051515E0,3.857230186E0,8.685946465E0
8.900950110E-1,-1.454836130E0,3.742374659E0,8.733802795E0
9.000950110E-1,-1.469193101E0,3.670589924E0,8.877371788E0
9.100950110E-1,-1.378265858E0,3.704089403E0,8.977870941E0
9.200950110E-1,-1.344766378E0,3.742374659E0,9.059226990E0
9.300950110E-1,-1.335195065E0,3.842873096E0,9.040083885E0
9.400950110E-1,-1.191625714E0,3.857230186E0,8.968298912E0
9.500950110E-1,-9.332008362E-1,3.809373617E0,8.992227554E0
9.600950110E-1,-7.609176040E-1,3.723232031E0,8.987442017E0
9.700950110E-1,-6.987041831E-1,3.661018610E0,9.035298347E0
9.800950110E-1,-6.604190469E-1,3.493520975E0,9.073583603E0
9.900950110E-1,-7.274180651E-1,3.531806231E0,9.111868858E0
1.000095011E0,-7.561319470E-1,3.527020693E0,9.059226990E0
1.010095011E0,-7.034898400E-1,3.517449379E0,9.040083885E0
1.020095011E0,-6.412764788E-1,3.436093330E0,9.097511292E0
1.030095011E0,-5.934200287E-1,3.431307554E0,9.054440498E0
1.040095011E0,-4.977070987E-1,3.397808075E0,8.901300430E0
1.050095011E0,-4.163511395E-1,3.397808075E0,8.652446747E0
1.060095011E0,-3.732803464E-1,3.416950703E0,8.470592499E0
1.070095011E0,-4.163511395E-1,3.407379389E0,8.484949112E0
1.080095011E0,-4.929214716E-1,3.254238844E0,8.623732567E0
1.090095011E0,-3.541377485E-1,3.125026464E0,8.839086533E0
1.100095011E0,-3.062812984E-1,3.010170937E0,9.006584167E0
1.110095011E0,-2.201396823E-1,2.636890650E0,9.059226990E0
1.120095011E0,-1.292124242E-1,2.488535643E0,8.882157326E0
1.130095011E0,5.742774159E-2,2.603390932E0,8.796015739E0
1.140095011E0,1.148554832E-1,2.450250387E0,8.829515457E0
1.150095011E0,3.349951804E-1,2.239681959E0,8.958727837E0
1.160095011E0,5.407779217E-1,1.933400750E0,9.140582085E0
1.170095011E0,6.795616150E-1,2.076970100E0,9.475577354E0
1.180095011E0,8.374879360E-1,2.163111687E0,9.815358162E0
1.190095011E0,8.949156404E-1,2.081755638E0,1.002114105E1
1.200095011E0,8.183453679E-1,2.258824587E0,1.018385315E1
1.210095011E0,7.178468257E-2,2.445464849E0,1.020299530E1
1.220095011E0,-5.312066078E-1,2.790031195E0,1.046620655E1
1.230095011E0,-6.795616150E-1,3.029313564E0,1.068634605E1
1.240095011E0,-6.029912829E-1,3.244667530E0,1.094955635E1
1.250095011E0,-4.307080805E-1,3.225524902E0,1.079162979E1
1.260095011E0,-3.924229145E-1,3.019742250E0,1.055713367E1
1.270095011E0,-4.354937077E-1,2.857030153E0,1.035613632E1
1.280095011E0,-6.125625968E-1,2.785245657E0,1.008335495E1
1.290095011E0,-8.279166222E-1,2.761317253E0,9.609575272E0
1.300095011E0,-7.944171429E-1,2.909672260E0,9.140582085E0
1.310095011E0,-7.417750359E-1,2.780459881E0,8.614161491E0
1.320095011E0,-8.709874153E-1,3.081955671E0,8.173882484E0
1.330095011E0,-6.077769399E-1,3.196810961E0,8.317451477E0
1.340095011E0,-2.967100143E-1,3.038884640E0,8.451449394E0
1.350095011E0,-1.148554832E-1,2.813959360E0,8.561519623E0
1.360095011E0,1.627119333E-1,2.617748022E0,8.973084450E0
1.370095011E0,9.092725813E-2,2.612962246E0,9.260223389E0
1.380095011E0,-6.221338734E-2,2.665604353E0,9.332008362E0
1.390095011E0,-1.531406492E-1,2.823530674E0,9.485149384E0
1.400095011E0,-8.135596663E-2,2.967100143E0,9.609575272E0
1.410095011E0,9.571290575E-3,2.852244616E0,9.662218094E0
1.420095011E0,-2.871387079E-2,2.627319336E0,9.690931320E0
1.430095011E0,9.571290761E-2,2.589034081E0,9.662218094E0
1.440095011E0,3.780659735E-1,2.627319336E0,9.686145782E0
1.450095011E0,4.737788737E-1,2.622533560E0,9.566504478E0
1.460095011E0,6.699903607E-1,2.445464849E0,9.279366493E0
1.470095011E0,1.028913736E0,2.215753794E0,9.451649666E0
1.480095011E0,-2.440679073E-1,2.569891453E0,9.183652878E0
1.490095011E0,-9.667003751E-1,3.445664644E0,9.475577354E0
1.500095011E0,-4.785645306E-1,3.096312523E0,9.422935486E0
1.510095011E0,-9.571290575E-3,2.909672260E0,9.485149384E0
1.520095011E0,2.440679073E-1,2.727817774E0,9.379864693E0
1.530095011E0,3.589234054E-1,2.727817774E0,9.403793335E0
1.540095011E0,3.062812984E-1,2.828316450E0,9.408578873E0
1.550095011E0,2.249253243E-1,2.981456995E0,9.360722542E0
1.560095011E0,2.153540403E-1,3.148954630E0,9.351150513E0
1.570095011E0,3.110669553E-1,3.163311481E0,9.198010445E0
1.580095011E0,4.642075896E-1,3.163311481E0,9.116654396E0
1.590095011E0,6.508477330E-1,3.172882795E0,9.207581520E0
1.600095011E0,7.513462901E-1,3.081955671E0,9.317651749E0
1.610095011E0,6.269195080E-1,3.014956474E0,9.279366493E0
1.620095011E0,5.503492355E-1,3.043670416E0,9.207581520E0
1.630095011E0,6.077769399E-1,3.148954630E0,9.111868858E0
1.640095011E0,7.561319470E-1,3.239881754E0,9.006584167E0
1.650095011E0,7.848458290E-1,3.244667530E0,8.872586250E0
1.660095011E0,7.896314859E-1,3.263810158E0,9.006584167E0
1.670095011E0,6.604190469E-1,3.268595695E0,9.025727272E0
1.680095011E0,6.747759581E-1,3.292523861E0,9.016156197E0
1.690095011E0,6.843472719E-1,3.306880951E0,9.011369705E0
1.700095011E0,7.178468108E-1,3.349951744E0,9.049654961E0
1.710095011E0,6.699903607E-1,3.488735437E0,9.044869423E0
1.720095011E0,5.790630579E-1,3.330809116E0,9.054440498E0
1.730095011E0,7.657032609E-1,3.249453068E0,9.025727272E0
1.740095011E0,9.092726111E-1,3.239881754E0,8.829515457E0
1.750095011E0,9.044869542E-1,3.263810158E0,8.752944946E0
1.760095011E0,7.561319470E-1,3.321237803E0,8.714659691E0
1.770095011E0,6.652047038E-1,3.416950703E0,8.709874153E0
1.780095011E0,6.412764788E-1,3.464807272E0,8.681160927E0
1.790095011E0,6.891329288E-1,3.479164124E0,8.599804878E0
1.800095011E0,7.226324677E-1,3.412165165E0,8.523234367E0
1.810095011E0,6.939185858E-1,3.326023579E0,8.618947029E0
1.820095011E0,6.221339107E-1,3.335594654E0,8.781659126E0
1.830095011E0,6.077769399E-1,3.407379389E0,9.078369141E0
1.840095011E0,6.077769399E-1,3.474378586E0,9.389435768E0
1.850095011E0,6.221339107E-1,3.550948858E0,9.623932838E0
1.860095011E0,8.949156404E-1,3.369094372E0,9.695717812E0
1.870095011E0,8.805587292E-1,3.354737282E0,9.743574142E0
1.880095011E0,7.322037220E-1,3.349951744E0,9.604789734E0
1.890095011E0,7.130611539E-1,3.416950703E0,9.475577354E0
1.900095011E0,6.221339107E-1,3.440878868E0,9.250652313E0
1.910095011E0,6.364908218E-1,3.426522017E0,9.250652313E0
1.920095011E0,5.216353536E-1,3.388236761E0,9.288937569E0
1.930095011E0,3.972085714E-1,3.340380430E0,9.121439934E0
1.940095011E0,4.019941986E-1,3.311666489E0,9.006584167E0
1.950095011E0,5.551348329E-1,3.302095175E0,8.863015175E0
1.960095011E0,6.221339107E-1,3.287738323E0,8.796015739E0
1.970095011E0,6.317051649E-1,3.273381472E0,8.738588333E0
1.980095011E0,5.599204898E-1,3.249453068E0,8.690732002E0
1.990095011E0,4.785645306E-1,3.206382275E0,8.729017258E0
2.000095011E0,5.647061467E-1,3.201596737E0,8.944371223E0
2.010095011E0,5.647061467E-1,3.153740168E0,9.131011009E0
2.020095011E0,4.354937077E-1,3.125026464E0,9.308079720E0
2.030095011E0,4.450650215E-1,3.129812002E0,9.360722542E0
2.040095011E0,5.934200287E-1,3.158525944E0,9.336793900E0
2.050095011E0,7.848458290E-1,3.254238844E0,9.308079720E0
2.060095011E0,7.896314859E-1,3.292523861E0,9.236295700E0
2.070095011E0,7.704889178E-1,3.321237803E0,9.116654396E0
2.080095011E0,7.657032609E-1,3.306880951E0,8.973084450E0
2.090095011E0,8.470591903E-1,3.263810158E0,8.834300995E0
2.100095011E0,8.805587292E-1,3.244667530E0,8.805587769E0
2.110095011E0,8.135597110E-1,3.192025423E0,8.858229637E0
2.120095011E0,6.412764788E-1,3.144168854E0,8.997013092E0
2.130095011E0,5.982056856E-1,3.110669374E0,9.126225471E0
2.140095011E0,4.977070987E-1,3.038884640E0,9.293723106E0
2.150095011E0,4.881358147E-1,2.986242771E0,9.442078590E0
2.160095011E0,6.029912829E-1,3.024527788E0,9.580862045E0
2.170095011E0,7.034898400E-1,3.043670416E0,9.652647018E0
2.180095011E0,7.704889178E-1,2.991028309E0,9.657432556E0
2.190095011E0,7.896314859E-1,2.957528830E0,9.643074989E0
2.200095011E0,6.891329288E-1,2.971885681E0,9.623932838E0
2.210095011E0,6.604190469E-1,2.995813847E0,9.571290970E0
2.220095011E0,6.604190469E-1,2.995813847E0,9.513862610E0
2.230095011E0,6.029912829E-1,2.976671457E0,9.346364975E0
2.240095011E0,5.359922647E-1,2.943171740E0,9.169296265E0
2.250095011E0,5.264210105E-1,2.981456995E0,9.040083885E0
2.260095011E0,6.269195080E-1,3.048455954E0,9.035298347E0
2.270095011E0,6.508477330E-1,3.029313564E0,9.064012527E0
2.280095011E0,6.699903607E-1,2.933600664E0,9.198010445E0
2.290095011E0,7.369893789E-1,2.866601467E0,9.260223389E0
2.300095011E0,7.944171429E-1,2.857030153E0,9.394221306E0
2.310095011E0,8.518448472E-1,2.847458839E0,9.518648148E0
2.320095011E0,9.427721500E-1,2.885744095E0,9.700503349E0
2.330095011E0,1.004985452E0,2.962314367E0,9.777072906E0
2.340095011E0,9.858429432E-1,2.976671457E0,9.762716293E0
2.350095011E0,8.949156404E-1,2.962314367E0,9.676574707E0
2.360095011E0,8.997012973E-1,2.938386202E0,9.528220177E0
2.370095011E0,8.183453679E-1,2.900100946E0,9.274580956E0
2.380095011E0,7.226324677E-1,2.895315409E0,9.154939651E0
2.390095011E0,5.934200287E-1,2.909672260E0,9.030512810E0
2.400095011E0,6.460621357E-1,2.952743053E0,8.920442581E0
2.410095011E0,7.274180651E-1,2.933600664E0,8.901300430E0
2.420095011E0,7.992027402E-1,2.947957516E0,8.915657043E0
2.430095011E0,8.422735929E-1,2.995813847E0,9.016156197E0
2.440095011E0,8.757730722E-1,3.014956474E0,9.073583603E0
2.450095011E0,8.901300430E-1,3.029313564E0,9.164510727E0
2.460095011E0,9.044869542E-1,3.058027267E0,9.245866776E0
2.470095011E0,8.997012973E-1,3.081955671E0,9.293723106E0
2.480095011E0,8.327022791E-1,3.038884640E0,9.288937569E0
2.490095011E0,7.657032609E-1,2.976671457E0,9.312865257E0
2.500095011E0,7.561319470E-1,2.971885681E0,9.327222824E0
2.510095011E0,8.327022791E-1,3.010170937E0,9.284152031E0
2.520095011E0,9.332008362E-1,3.010170937E0,9.274580956E0
2.530095011E0,9.858429432E-1,3.019742250E0,9.255437851E0
2.540095011E0,1.043270707E0,3.000599623E0,9.255437851E0
2.550095011E0,1.067198873E0,3.000599623E0,9.265008926E0
2.560095011E0,1.024128079E0,3.005385160E0,9.212367058E0
2.570095011E0,9.762716293E-1,3.010170937E0,9.169296265E0
2.580095011E0,9.379864931E-1,3.038884640E0,9.126225471E0
2.590095011E0,8.805587292E-1,3.043670416E0,9.073583603E0
2.600095011E0,8.518448472E-1,3.000599623E0,8.968298912E0
2.610095011E0,8.135597110E-1,2.986242771E0,8.973084450E0
2.620095011E0,7.752745152E-1,2.981456995E0,9.054440498E0
2.630095011E0,7.369893789E-1,3.014956474E0,9.221938133E0
2.640095011E0,6.652047038E-1,2.981456995E0,9.360722542E0
2.650095011E0,5.934200287E-1,2.967100143E0,9.556933403E0
2.660095011E0,5.790630579E-1,2.895315409E0,9.676574707E0
2.670095011E0,5.024927258E-1,2.924029350E0,9.753145218E0
2.680095011E0,4.594219327E-1,3.000599623E0,9.777072906E0
2.690095011E0,4.402793646E-1,3.038884640E0,9.710074425E0
2.700095011E0,4.354937077E-1,3.029313564E0,9.504291534E0
2.710095011E0,3.924229145E-1,3.000599623E0,9.308079720E0
2.720095011E0,4.737788737E-1,3.038884640E0,9.025727272E0
2.730095011E0,6.077769399E-1,3.038884640E0,8.906085968E0
2.740095011E0,5.264210105E-1,3.062813044E0,8.743373871E0
2.750095011E0,5.503492355E-1,3.058027267E0,8.729017258E0
2.760095011E0,6.221339107E-1,3.029313564E0,8.796015739E0
2.770095011E0,7.274180651E-1,3.029313564E0,9.035298347E0
2.780095011E0,7.704889178E-1,3.043670416E0,9.250652313E0
2.790095011E0,7.322037220E-1,3.010170937E0,9.446864128E0
2.800095011E0,6.795616150E-1,3.029313564E0,9.513862610E0
2.810095011E0,6.891329288E-1,3.043670416E0,9.523433685E0
2.820095011E0,6.699903607E-1,3.062813044E0,9.403793335E0
2.830095011E0,6.747759581E-1,3.043670416E0,9.293723106E0
2.840095011E0,7.274180651E-1,2.981456995E0,9.102297783E0
2.850095011E0,7.609176040E-1,2.981456995E0,9.035298347E0
2.860095011E0,7.944171429E-1,3.038884640E0,8.982656479E0
2.870095011E0,8.183453679E-1,3.062813044E0,9.016156197E0
2.880095011E0,8.566305041E-1,3.067598581E0,9.040083885E0
2.890095011E0,8.422735929E-1,3.081955671E0,9.097511292E0
2.900095011E0,8.662018180E-1,3.062813044E0,9.164510727E0
2.910095011E0,7.800601721E-1,2.995813847E0,9.231510162E0
2.920095011E0,6.987041831E-1,2.957528830E0,9.308079720E0
2.930095011E0,6.173482537E-1,2.957528830E0,9.466006279E0
2.940095011E0,5.982056856E-1,2.943171740E0,9.571290970E0
2.950095011E0,6.317051649E-1,2.957528830E0,9.628718376E0
2.960095011E0,6.604190469E-1,3.005385160E0,9.585647583E0
2.970095011E0,6.939185858E-1,3.043670416E0,9.494720459E0
2.980095011E0,7.561319470E-1,3.091526747E0,9.312865257E0
2.990095011E0,8.470591903E-1,3.101098061E0,9.178867340E0
3.000095011E0,8.662018180E-1,3.105883837E0,9.092725754E0
3.010095011E0,8.470591903E-1,3.105883837E0,9.049654961E0
3.020095011E0,7.992027402E-1,3.058027267E0,9.059226990E0
3.030095011E0,7.178468108E-1,3.038884640E0,9.121439934E0
3.040095011E0,7.369893789E-1,3.019742250E0,9.169296265E0
3.050095011E0,7.465606928E-1,2.981456995E0,9.250652313E0
3.060095011E0,7.322037220E-1,2.962314367E0,9.265008926E0
3.070095011E0,7.226324677E-1,3.010170937E0,9.303294182E0
3.080095011E0,7.896314859E-1,3.048455954E0,9.226723671E0
3.090095011E0,7.992027402E-1,3.029313564E0,9.174081802E0
3.100095011E0,8.183453679E-1,3.010170937E0,9.150154114E0
3.110095011E0,8.901300430E-1,3.024527788E0,9.164510727E0
3.120095011E0,8.709874153E-1,3.067598581E0,9.150154114E0
3.130095011E0,8.518448472E-1,3.019742250E0,9.193224907E0
3.140095011E0,8.135597110E-1,3.048455954E0,9.226723671E0
3.150095011E0,8.279166222E-1,3.072384357E0,9.269794464E0
3.160095011E0,7.561319470E-1,3.072384357E0,9.322437286E0
3.170095011E0,7.896314859E-1,3.187239647E0,9.379864693E0
3.180095011E0,7.992027402E-1,3.196810961E0,9.365508080E0
3.190095011E0,8.662018180E-1,3.168097258E0,9.389435768E0
3.200095011E0,8.566305041E-1,3.101098061E0,9.303294182E0
3.210095011E0,7.704889178E-1,3.148954630E0,9.260223389E0
3.220095011E0,8.518448472E-1,3.110669374E0,9.159725189E0
3.230095011E0,1.071984529E0,3.067598581E0,9.159725189E0
3.240095011E0,1.105484009E0,3.005385160E0,9.245866776E0
3.250095011E0,1.076770186E0,2.991028309E0,9.226723671E0
3.260095011E0,1.086341500E0,3.005385160E0,9.221938133E0
3.270095011E0,1.105484009E0,2.991028309E0,9.183652878E0
3.280095011E0,1.143769264E0,2.938386202E0,9.154939651E0
3.290095011E0,1.191625714E0,2.871387243E0,9.068798065E0
3.300095011E0,1.201196909E0,2.852244616E0,8.973084450E0
3.310095011E0,1.339980721E0,2.804388046E0,8.944371223E0
3.320095011E0,1.392622828E0,2.799602509E0,8.958727837E0
3.330095011E0,1.306481123E0,2.785245657E0,9.083154678E0
3.340095011E0,1.167697430E0,2.756531715E0,9.140582085E0
3.350095011E0,1.095912814E0,2.818745136E0,9.202795982E0
3.360095011E0,1.110269666E0,2.904886723E0,9.202795982E0
3.370095011E0,1.124626637E0,2.919243574E0,9.178867340E0
3.380095011E0,1.024128079E0,2.876172781E0,9.131011009E0
3.390095011E0,1.105484009E0,2.828316450E0,9.131011009E0
3.400095011E0,1.071984529E0,2.775674343E0,9.159725189E0
3.410095011E0,1.019342422E0,2.790031195E0,9.193224907E0
3.420095011E0,9.523434043E-1,2.818745136E0,9.202795982E0
3.430095011E0,8.805587292E-1,2.813959360E0,9.241081238E0
3.440095011E0,8.518448472E-1,2.809173822E0,9.293723106E0
3.450095011E0,8.135597110E-1,2.828316450E0,9.418149948E0
3.460095011E0,7.848458290E-1,2.809173822E0,9.494720459E0
3.470095011E0,8.470591903E-1,2.804388046E0,9.561718941E0
3.480095011E0,8.805587292E-1,2.794816732E0,9.504291534E0
3.490095011E0,9.332008362E-1,2.799602509E0,9.466006279E0
3.500095011E0,1.052842021E0,2.828316450E0,9.293723106E0
3.510095011E0,1.052842021E0,2.885744095E0,9.073583603E0
3.520095011E0,1.052842021E0,2.952743053E0,8.949156761E0
3.530095011E0,8.997012973E-1,2.914458036E0,8.977870941E0
3.540095011E0,8.039883971E-1,3.024527788E0,8.982656479E0
3.550095011E0,6.795616150E-1,2.967100143E0,9.049654961E0
3.560095011E0,6.604190469E-1,2.890529871E0,9.241081238E0
3.570095011E0,6.460621357E-1,2.914458036E0,9.379864693E0
3.580095011E0,6.747759581E-1,2.861815929E0,9.394221306E0
3.590095011E0,7.465606928E-1,2.794816732E0,9.394221306E0
3.600095011E0,8.662018180E-1,2.761317253E0,9.403793335E0
3.610095011E0,9.475577474E-1,2.799602509E0,9.355937004E0
3.620095011E0,1.024128079E0,2.876172781E0,9.379864693E0
3.630095011E0,1.057627559E0,2.885744095E0,9.370293617E0
3.640095011E0,1.067198873E0,2.809173822E0,9.413364410E0
3.650095011E0,9.667003751E-1,2.785245657E0,9.494720459E0
3.660095011E0,8.949156404E-1,2.770888567E0,9.638289452E0
3.670095011E0,8.757730722E-1,2.790031195E0,9.705288887E0
3.680095011E0,9.379864931E-1,2.813959360E0,9.705288887E0
3.690095011E0,1.000199914E0,2.866601467E0,9.638289452E0
3.700095011E0,1.067198873E0,2.914458036E0,9.446864128E0
3.710095011E0,1.162911773E0,2.871387243E0,9.375079155E0
3.720095011E0,1.201196909E0,2.828316450E0,9.365508080E0
3.730095011E0,1.172483087E0,2.857030153E0,9.360722542E0
3.740095011E0,1.172483087E0,2.919243574E0,9.384650230E0
3.750095011E0,1.220339537E0,2.991028309E0,9.346364975E0
3.760095011E0,1.225125194E0,2.943171740E0,9.332008362E0
3.770095011E0,1.244267821E0,3.010170937E0,9.375079155E0
3.780095011E0,1.215553880E0,2.995813847E0,9.384650230E0
3.790095011E0,1.196411371E0,3.005385160E0,9.384650230E0
3.800095011E0,1.172483087E0,2.976671457E0,9.288937569E0
3.810095011E0,1.182054400E0,2.991028309E0,9.107083321E0
3.820095011E0,1.201196909E0,2.991028309E0,8.939585686E0
3.830095011E0,1.263410330E0,2.976671457E0,8.872586250E0
3.840095011E0,1.287338614E0,2.943171740E0,8.877371788E0
3.850095011E0,1.210768223E0,2.967100143E0,8.963513374E0
3.860095011E0,1.153340459E0,2.962314367E0,9.011369705E0
3.870095011E0,1.043270707E0,2.933600664E0,9.107083321E0
3.880095011E0,9.571290612E-1,2.904886723E0,9.164510727E0
3.890095011E0,9.284151793E-1,2.909672260E0,9.226723671E0
3.900095011E0,8.901300430E-1,2.933600664E0,9.212367058E0
3.910095011E0,8.709874153E-1,2.928814888E0,9.207581520E0
3.920095011E0,8.422735929E-1,2.971885681E0,9.145368576E0
3.930095011E0,8.470591903E-1,3.000599623E0,9.102297783E0
3.940095011E0,8.518448472E-1,3.000599623E0,9.068798065E0
3.950095011E0,8.518448472E-1,2.981456995E0,9.092725754E0
3.960095011E0,8.087740541E-1,2.981456995E0,9.178867340E0
3.970095011E0,7.992027402E-1,2.995813847E0,9.269794464E0
3.980095011E0,7.848458290E-1,3.034099102E0,9.308079720E0
3.990095011E0,8.327022791E-1,3.072384357E0,9.336793900E0
4.000095011E0,9.140582681E-1,3.058027267E0,9.312865257E0
4.010095011E0,9.714859724E-1,3.019742250E0,9.308079720E0
4.020095011E0,9.379864931E-1,3.014956474E0,9.312865257E0
4.030095011E0,8.709874153E-1,2.995813847E0,9.327222824E0
4.040095011E0,8.518448472E-1,3.010170937E0,9.312865257E0
4.050095011E0,8.518448472E-1,3.005385160E0,9.279366493E0
4.060095011E0,8.757730722E-1,2.991028309E0,9.265008926E0
4.070095011E0,9.619147182E-1,2.976671457E0,9.260223389E0
4.080095011E0,1.019342422E0,2.967100143E0,9.241081238E0
4.090095011E0,1.000199914E0,2.962314367E0,9.221938133E0
4.100095011E0,9.906286001E-1,3.014956474E0,9.236295700E0
4.110095011E0,1.024128079E0,3.014956474E0,9.226723671E0
4.120095011E0,1.057627559E0,3.024527788E0,9.274580956E0
4.130095011E0,1.033699393E0,3.053241730E0,9.422935486E0
4.140095011E0,9.954141974E-1,3.081955671E0,9.523433685E0
4.150095011E0,8.997012973E-1,3.062813044E0,9.609575272E0
4.160095011E0,8.949156404E-1,3.072384357E0,9.590433121E0
4.170095011E0,8.757730722E-1,3.134597778E0,9.600004196E0
4.180095011E0,7.992027402E-1,3.129812002E0,9.590433121E0
4.190095011E0,7.657032609E-1,3.086741209E0,9.470791817E0
4.200095011E0,8.327022791E-1,2.962314367E0,9.255437851E0
4.210095011E0,9.332008362E-1,2.924029350E0,9.154939651E0
4.220095011E0,1.024128079E0,2.928814888E0,9.068798065E0
4.230095011E0,1.062413216E0,2.919243574E0,8.977870941E0
4.240095011E0,1.076770186E0,2.880958557E0,8.886942863E0
4.250095011E0,1.091127157E0,2.847458839E0,8.829515457E0
4.260095011E0,1.076770186E0,2.861815929E0,8.676374435E0
4.270095011E0,9.714859724E-1,2.861815929E0,8.484949112E0
4.280095011E0,8.470591903E-1,2.852244616E0,8.317451477E0
4.290095011E0,7.178468108E-1,2.861815929E0,8.231309891E0
4.300095011E0,6.508477330E-1,2.885744095E0,8.231309891E0
4.310095011E0,5.216353536E-1,3.014956474E0,8.312665939E0
4.320095011E0,3.206382394E-1,3.096312523E0,8.427521706E0
4.330095011E0,1.339980662E-1,3.139383316E0,8.743373871E0
4.340095011E0,1.148554832E-1,3.120240688E0,9.183652878E0
4.350095011E0,2.057827413E-1,3.029313564E0,9.547362328E0
4.360095011E0,3.206382394E-1,2.981456995E0,9.954142570E0
4.370095011E0,3.589234054E-1,3.014956474E0,1.016471100E1
4.380095011E0,3.780659735E-1,3.091526747E0,1.028913784E1
4.390095011E0,3.684946895E-1,3.172882795E0,1.031785107E1
4.400095011E0,4.259224236E-1,3.206382275E0,1.021735287E1
4.410095011E0,6.364908218E-1,3.263810158E0,9.920642853E0
4.420095011E0,7.896314859E-1,3.282952785E0,9.600004196E0
4.430095011E0,9.379864931E-1,3.316452265E0,9.159725189E0
4.440095011E0,1.091127157E0,3.306880951E0,8.906085968E0
4.450095011E0,1.225125194E0,3.273381472E0,8.671588898E0
4.460095011E0,1.263410330E0,3.263810158E0,8.547162056E0
4.470095011E0,1.316052437E0,3.302095175E0,8.551948547E0
4.480095011E0,1.344766378E0,3.263810158E0,8.657232285E0
4.490095011E0,1.363908887E0,3.201596737E0,8.757730484E0
4.500095011E0,1.450050473E0,3.120240688E0,8.891729355E0
4.510095011E0,1.478764415E0,3.058027267E0,9.011369705E0
4.520095011E0,1.445264935E0,3.010170937E0,9.131011009E0
4.530095011E0,1.344766378E0,2.995813847E0,9.217152596E0
4.540095011E0,1.177268744E0,2.928814888E0,9.212367058E0
4.550095011E0,9.858429432E-1,2.914458036E0,9.226723671E0
4.560095011E0,9.284151793E-1,2.904886723E0,9.212367058E0
4.570095011E0,9.092726111E-1,2.995813847E0,9.226723671E0
4.580095011E0,9.379864931E-1,3.058027267E0,9.442078590E0
4.590095011E0,9.906286001E-1,2.981456995E0,9.657432556E0
4.600095011E0,1.172483087E0,2.971885681E0,9.719645500E0
4.610095011E0,1.215553880E0,2.871387243E0,9.801001549E0
4.620095011E0,1.138983607E0,2.842673302E0,9.872786522E0
4.630095011E0,1.033699393E0,2.909672260E0,9.896714211E0
4.640095011E0,8.805587292E-1,2.986242771E0,9.748359680E0
4.650095011E0,7.800601721E-1,2.981456995E0,9.566504478E0
4.660095011E0,7.752745152E-1,2.952743053E0,9.384650230E0
4.670095011E0,8.327022791E-1,2.909672260E0,9.231510162E0
4.680095011E0,8.662018180E-1,2.895315409E0,9.131011009E0
4.690095011E0,8.614161611E-1,2.871387243E0,9.107083321E0
4.700095011E0,8.757730722E-1,2.847458839E0,9.087940216E0
4.710095011E0,9.092726111E-1,2.833101988E0,9.121439934E0
4.720095011E0,9.092726111E-1,2.833101988E0,9.135796547E0
4.730095011E0,8.901300430E-1,2.828316450E0,9.131011009E0
4.740095011E0,8.709874153E-1,2.847458839E0,9.111868858E0
4.750095011E0,8.614161611E-1,2.861815929E0,8.987442017E0
4.760095011E0,8.279166222E-1,2.900100946E0,8.930013657E0
4.770095011E0,7.992027402E-1,2.933600664E0,8.896514893E0
4.780095011E0,7.992027402E-1,2.919243574E0,8.973084450E0
4.790095011E0,8.422735929E-1,2.909672260E0,9.073583603E0
4.800095011E0,8.853443861E-1,2.904886723E0,9.207581520E0
4.810095011E0,8.949156404E-1,2.904886723E0,9.346364975E0
4.820095011E0,9.092726111E-1,2.900100946E0,9.470791817E0
4.830095011E0,9.523434043E-1,2.904886723E0,9.494720459E0
4.840095011E0,9.667003751E-1,2.852244616E0,9.509077072E0
4.850095011E0,8.949156404E-1,2.828316450E0,9.499505997E0
4.860095011E0,8.518448472E-1,2.837887764E0,9.470791817E0
4.870095011E0,7.848458290E-1,2.833101988E0,9.312865257E0
4.880095011E0,7.800601721E-1,2.799602509E0,9.231510162E0
4.890095011E0,7.896314859E-1,2.828316450E0,9.073583603E0
4.900095011E0,7.657032609E-1,2.847458839E0,9.016156197E0
4.910095011E0,8.518448472E-1,2.823530674E0,8.973084450E0
4.920095011E0,9.236295223E-1,2.766103029E0,8.925228119E0
4.930095011E0,9.475577474E-1,2.732603550E0,8.973084450E0
4.940095011E0,9.188438654E-1,2.703889608E0,9.188439369E0
4.950095011E0,8.997012973E-1,2.742174864E0,9.394221306E0
4.960095011E0,8.709874153E-1,2.751745939E0,9.432506561E0
4.970095011E0,9.332008362E-1,2.756531715E0,9.485149384E0
4.980095011E0,9.858429432E-1,2.766103029E0,9.523433685E0
4.990095011E0,9.810572863E-1,2.804388046E0,9.628718376E0
5.000095011E0,9.092726111E-1,2.790031195E0,9.643074989E0
5.010095011E0,8.183453679E-1,2.818745136E0,9.671789169E0
5.020095011E0,7.465606928E-1,2.823530674E0,9.638289452E0
5.030095011E0,7.369893789E-1,2.785245657E0,9.571290970E0
5.040095011E0,7.992027402E-1,2.780459881E0,9.461220741E0
5.050095011E0,7.322037220E-1,2.828316450E0,9.355937004E0
5.060095011E0,7.513462901E-1,2.823530674E0,9.231510162E0
5.070095011E0,8.135597110E-1,2.847458839E0,9.174081802E0
5.080095011E0,8.231309652E-1,2.857030153E0,9.183652878E0
5.090095011E0,7.992027402E-1,2.823530674E0,9.298508644E0
5.100095011E0,7.992027402E-1,2.794816732E0,9.360722542E0
5.110095011E0,7.800601721E-1,2.833101988E0,9.489934921E0
5.120095011E0,7.513462901E-1,2.890529871E0,9.566504478E0
5.130095011E0,8.279166222E-1,2.904886723E0,9.470791817E0
5.140095011E0,8.374879360E-1,2.919243574E0,9.365508080E0
5.150095011E0,9.284151793E-1,2.866601467E0,9.255437851E0
5.160095011E0,9.523434043E-1,2.857030153E0,9.245866776E0
5.170095011E0,9.667003751E-1,2.823530674E0,9.226723671E0
5.180095011E0,9.427721500E-1,2.847458839E0,9.221938133E0
5.190095011E0,8.997012973E-1,2.895315409E0,9.245866776E0
5.200095011E0,9.236295223E-1,2.928814888E0,9.221938133E0
5.210095011E0,9.810572863E-1,2.924029350E0,9.193224907E0
5.220095011E0,9.858429432E-1,2.866601467E0,9.207581520E0
5.230095011E0,9.810572863E-1,2.804388046E0,9.255437851E0
5.240095011E0,9.092726111E-1,2.828316450E0,9.250652313E0
5.250095011E0,8.662018180E-1,2.785245657E0,9.212367058E0
5.260095011E0,8.039883971E-1,2.780459881E0,9.178867340E0
5.270095011E0,7.034898400E-1,2.866601467E0,9.068798065E0
5.280095011E0,7.082754970E-1,2.885744095E0,8.939585686E0
5.290095011E0,8.135597110E-1,2.809173822E0,8.858229637E0
5.300095011E0,8.853443861E-1,2.823530674E0,8.925228119E0
5.310095011E0,8.901300430E-1,2.837887764E0,9.064012527E0
5.320095011E0,8.662018180E-1,2.857030153E0,9.221938133E0
5.330095011E0,8.470591903E-1,2.837887764E0,9.351150513E0
5.340095011E0,8.470591903E-1,2.847458839E0,9.518648148E0
5.350095011E0,7.992027402E-1,2.852244616E0,9.667003632E0
5.360095011E0,7.513462901E-1,2.828316450E0,9.700503349E0
5.370095011E0,7.992027402E-1,2.861815929E0,9.614361763E0
5.380095011E0,8.231309652E-1,2.924029350E0,9.485149384E0
5.390095011E0,7.417750359E-1,2.962314367E0,9.346364975E0
5.400095011E0,7.465606928E-1,2.986242771E0,9.293723106E0
5.410095011E0,7.704889178E-1,2.952743053E0,9.274580956E0
5.420095011E0,7.800601721E-1,2.900100946E0,9.317651749E0
5.430095011E0,7.130611539E-1,2.871387243E0,9.446864128E0
5.440095011E0,7.034898400E-1,2.904886723E0,9.518648148E0
5.450095011E0,7.034898400E-1,2.900100946E0,9.509077072E0
5.460095011E0,6.843472719E-1,2.871387243E0,9.413364410E0
5.470095011E0,6.652047038E-1,2.852244616E0,9.279366493E0
5.480095011E0,6.508477330E-1,2.813959360E0,9.135796547E0
5.490095011E0,6.364908218E-1,2.818745136E0,9.040083885E0
5.500095011E0,6.125625968E-1,2.785245657E0,8.973084450E0
5.510095011E0,6.412764788E-1,2.751745939E0,8.963513374E0
5.520095011E0,7.130611539E-1,2.770888567E0,9.030512810E0
5.530095011E0,6.508477330E-1,2.813959360E0,9.193224907E0
5.540095011E0,6.029912829E-1,2.804388046E0,9.370293617E0
5.550095011E0,6.460621357E-1,2.756531715E0,9.528220177E0
5.560095011E0,6.460621357E-1,2.737389088E0,9.542576790E0
5.570095011E0,6.317051649E-1,2.766103029E0,9.609575272E0
5.580095011E0,6.795616150E-1,2.837887764E0,9.652647018E0
5.590095011E0,6.077769399E-1,2.866601467E0,9.552147865E0
5.600095011E0,6.269195080E-1,2.842673302E0,9.346364975E0
5.610095011E0,6.987041831E-1,2.842673302E0,9.288937569E0
5.620095011E0,7.369893789E-1,2.880958557E0,9.250652313E0
5.630095011E0,6.747759581E-1,2.857030153E0,9.207581520E0
5.640095011E0,6.747759581E-1,2.770888567E0,9.150154114E0
5.650095011E0,7.752745152E-1,2.761317253E0,9.212367058E0
5.660095011E0,8.135597110E-1,2.766103029E0,9.236295700E0
5.670095011E0,7.657032609E-1,2.732603550E0,9.255437851E0
5.680095011E0,7.752745152E-1,2.689532757E0,9.250652313E0
5.690095011E0,8.997012973E-1,2.699103832E0,9.274580956E0
5.700095011E0,9.571290612E-1,2.737389088E0,9.293723106E0
5.710095011E0,9.140582681E-1,2.718246460E0,9.317651749E0
5.720095011E0,8.949156404E-1,2.694318295E0,9.360722542E0
5.730095011E0,9.427721500E-1,2.689532757E0,9.379864693E0
5.740095011E0,8.901300430E-1,2.684746981E0,9.341579437E0
5.750095011E0,8.422735929E-1,2.713460922E0,9.317651749E0
5.760095011E0,8.135597110E-1,2.746960402E0,9.269794464E0
5.770095011E0,7.800601721E-1,2.770888567E0,9.236295700E0
5.780095011E0,7.704889178E-1,2.746960402E0,9.231510162E0
5.790095011E0,7.322037220E-1,2.737389088E0,9.231510162E0
5.800095011E0,7.369893789E-1,2.742174864E0,9.198010445E0
5.810095011E0,8.135597110E-1,2.766103029E0,9.178867340E0
5.820095011E0,8.709874153E-1,2.794816732E0,9.236295700E0
5.830095011E0,9.427721500E-1,2.823530674E0,9.308079720E0
5.840095011E0,1.009771109E0,2.823530674E0,9.389435768E0
5.850095011E0,1.057627559E0,2.790031195E0,9.466006279E0
5.860095011E0,1.043270707E0,2.790031195E0,9.537791252E0
5.870095011E0,9.619147182E-1,2.790031195E0,9.518648148E0
5.880095011E0,9.619147182E-1,2.794816732E0,9.418149948E0
5.890095011E0,9.619147182E-1,2.780459881E0,9.284152031E0
5.900095011E0,8.757730722E-1,2.770888567E0,9.126225471E0
5.910095011E0,8.709874153E-1,2.809173822E0,9.054440498E0
5.920095011E0,8.901300430E-1,2.823530674E0,8.963513374E0
5.930095011E0,9.906286001E-1,2.775674343E0,9.020941734E0
5.940095011E0,9.236295223E-1,2.813959360E0,9.054440498E0
5.950095011E0,8.709874153E-1,2.813959360E0,9.126225471E0
5.960095011E0,8.662018180E-1,2.742174864E0,9.135796547E0
5.970095011E0,8.662018180E-1,2.656033039E0,9.121439934E0
5.980095011E0,7.992027402E-1,2.684746981E0,9.121439934E0
5.990095011E0,7.944171429E-1,2.689532757E0,9.116654396E0
6.000095011E0,8.901300430E-1,2.718246460E0,9.188439369E0
6.010095011E0,9.092726111E-1,2.737389088E0,9.274580956E0
6.020095011E0,8.279166222E-1,2.756531715E0,9.432506561E0
6.030095011E0,8.087740541E-1,2.780459881E0,9.537791252E0
6.040095011E0,8.327022791E-1,2.804388046E0,9.580862045E0
6.050095011E0,8.183453679E-1,2.799602509E0,9.552147865E0
6.060095011E0,7.848458290E-1,2.818745136E0,9.408578873E0
6.070095011E0,7.752745152E-1,2.890529871E0,9.231510162E0
6.080095011E0,7.800601721E-1,2.914458036E0,9.107083321E0
6.090095011E0,7.992027402E-1,2.837887764E0,9.020941734E0
6.100095011E0,7.848458290E-1,2.775674343E0,9.064012527E0
6.110095011E0,7.561319470E-1,2.756531715E0,9.202795982E0
6.120095011E0,6.795616150E-1,2.756531715E0,9.312865257E0
6.130095011E0,6.604190469E-1,2.818745136E0,9.413364410E0
6.140095011E0,7.082754970E-1,2.871387243E0,9.365508080E0
6.150095011E0,7.274180651E-1,2.847458839E0,9.231510162E0
6.160095011E0,7.609176040E-1,2.833101988E0,9.049654961E0
6.170095011E0,7.657032609E-1,2.833101988E0,8.973084450E0
6.180095011E0,7.944171429E-1,2.818745136E0,9.001798630E0
6.190095011E0,7.752745152E-1,2.756531715E0,9.121439934E0
6.200095011E0,7.896314859E-1,2.737389088E0,9.346364975E0
6.210095011E0,8.566305041E-1,2.770888567E0,9.576076508E0
6.220095011E0,8.231309652E-1,2.852244616E0,9.667003632E0
6.230095011E0,7.609176040E-1,2.914458036E0,9.667003632E0
6.240095011E0,7.034898400E-1,2.924029350E0,9.590433121E0
6.250095011E0,6.699903607E-1,2.866601467E0,9.446864128E0
6.260095011E0,6.460621357E-1,2.885744095E0,9.327222824E0
6.270095011E0,6.317051649E-1,2.909672260E0,9.159725189E0
6.280095011E0,6.029912829E-1,2.895315409E0,9.020941734E0
6.290095011E0,5.838487148E-1,2.895315409E0,9.001798630E0
6.300095011E0,5.407779217E-1,2.900100946E0,9.083154678E0
6.310095011E0,5.359922647E-1,2.885744095E0,9.241081238E0
6.320095011E0,5.312066078E-1,2.871387243E0,9.442078590E0
6.330095011E0,5.455635786E-1,2.895315409E0,9.600004196E0
6.340095011E0,6.173482537E-1,2.938386202E0,9.671789169E0
6.350095011E0,6.843472719E-1,2.924029350E0,9.676574707E0
6.360095011E0,7.704889178E-1,2.857030153E0,9.662218094E0
6.370095011E0,9.188438654E-1,2.804388046E0,9.671789169E0
6.380095011E0,9.858429432E-1,2.766103029E0,9.662218094E0
6.390095011E0,1.009771109E0,2.684746981E0,9.614361763E0
6.400095011E0,1.038485050E0,2.646461725E0,9.556933403E0
6.410095011E0,1.024128079E0,2.632104874E0,9.403793335E0
6.420095011E0,9.906286001E-1,2.641676188E0,9.183652878E0
6.430095011E0,9.571290612E-1,2.660818815E0,9.030512810E0
6.440095011E0,8.566305041E-1,2.699103832E0,8.934800148E0
6.450095011E0,8.135597110E-1,2.718246460E0,8.939585686E0
6.460095011E0,7.992027402E-1,2.746960402E0,9.049654961E0
6.470095011E0,7.704889178E-1,2.813959360E0,9.131011009E0
6.480095011E0,7.609176040E-1,2.919243574E0,9.198010445E0
6.490095011E0,8.183453679E-1,2.967100143E0,9.217152596E0
6.500095011E0,8.709874153E-1,2.976671457E0,9.207581520E0
6.510095011E0,8.901300430E-1,2.904886723E0,9.212367058E0
6.520095011E0,8.901300430E-1,2.880958557E0,9.250652313E0
6.530095011E0,7.944171429E-1,2.876172781E0,9.303294182E0
6.540095011E0,7.513462901E-1,2.861815929E0,9.418149948E0
6.550095011E0,7.274180651E-1,2.861815929E0,9.456435204E0
6.560095011E0,7.082754970E-1,2.895315409E0,9.480362892E0
6.570095011E0,6.843472719E-1,2.904886723E0,9.489934921E0
6.580095011E0,6.795616150E-1,2.933600664E0,9.518648148E0
6.590095011E0,7.082754970E-1,2.957528830E0,9.528220177E0
6.600095011E0,7.657032609E-1,2.928814888E0,9.556933403E0
6.610095011E0,7.896314859E-1,2.952743053E0,9.552147865E0
6.620095011E0,7.944171429E-1,2.991028309E0,9.537791252E0
6.630095011E0,7.417750359E-1,2.976671457E0,9.432506561E0
6.640095011E0,7.178468108E-1,2.933600664E0,9.351150513E0
6.650095011E0,6.795616150E-1,2.890529871E0,9.265008926E0
6.660095011E0,6.939185858E-1,2.876172781E0,9.193224907E0
6.670095011E0,6.891329288E-1,2.890529871E0,9.150154114E0
6.680095011E0,6.939185858E-1,2.880958557E0,9.121439934E0
6.690095011E0,7.034898400E-1,2.904886723E0,9.049654961E0
6.700095011E0,7.322037220E-1,2.876172781E0,8.949156761E0
6.710095011E0,8.231309652E-1,2.842673302E0,8.920442581E0
6.720095011E0,9.044869542E-1,2.790031195E0,8.982656479E0
6.730095011E0,8.757730722E-1,2.694318295E0,9.150154114E0
6.740095011E0,8.614161611E-1,2.608176708E0,9.422935486E0
6.750095011E0,8.805587292E-1,2.656033039E0,9.633503914E0
6.760095011E0,8.422735929E-1,2.708675146E0,9.681360245E0
6.770095011E0,6.891329288E-1,2.761317253E0,9.623932838E0
6.780095011E0,5.312066078E-1,2.761317253E0,9.552147865E0
6.790095011E0,4.642075896E-1,2.751745939E0,9.422935486E0
6.800095011E0,4.546363056E-1,2.809173822E0,9.255437851E0
6.810095011E0,4.115654826E-1,2.890529871E0,9.087940216E0
6.820095011E0,3.972085714E-1,2.967100143E0,9.020941734E0
6.830095011E0,4.929214716E-1,2.995813847E0,9.054440498E0
6.840095011E0,5.312066078E-1,3.019742250E0,9.121439934E0
6.850095011E0,5.886343718E-1,3.010170937E0,9.255437851E0
6.860095011E0,6.652047038E-1,3.000599623E0,9.461220741E0
6.870095011E0,7.082754970E-1,2.986242771E0,9.494720459E0
6.880095011E0,7.082754970E-1,2.986242771E0,9.494720459E0
6.890095011E0,7.082754970E-1,2.986242771E0,9.494720459E0
6.900095011E0,5.958128572E-1,2.828316450E0,9.753145218E0
6.910095011E0,6.077769399E-1,2.818745136E0,9.724431038E0
6.920095011E0,6.053841114E-1,2.852244616E0,9.659825325E0
6.930095011E0,6.460621357E-1,2.864208698E0,9.485149384E0
6.940095011E0,7.130611539E-1,2.864208698E0,9.284152031E0
6.950095011E0,7.944171429E-1,2.833101988E0,9.020941734E0
6.960095011E0,8.111668825E-1,2.773281336E0,8.908478737E0
6.970095011E0,8.063812256E-1,2.701496840E0,8.975478172E0
6.980095011E0,7.848458290E-1,2.651247501E0,9.147761345E0
6.990095011E0,7.728816867E-1,2.622533560E0,9.367900848E0
7.000095011E0,7.657032609E-1,2.670390129E0,9.566504478E0
7.010095011E0,7.034898400E-1,2.699103832E0,9.602396965E0
7.020095011E0,6.484549642E-1,2.761317253E0,9.451649666E0
7.030095011E0,6.628118753E-1,2.775674343E0,9.198010445E0
7.040095011E0,7.369893789E-1,2.763710260E0,9.004191399E0
7.050095011E0,8.159525394E-1,2.734996319E0,8.874979019E0
7.060095011E0,8.709874153E-1,2.749353170E0,8.898907661E0
7.070095011E0,9.858429432E-1,2.794816732E0,9.083154678E0
7.080095011E0,9.571290612E-1,2.816352367E0,9.260223389E0
7.090095011E0,9.284151793E-1,2.785245657E0,9.573683739E0
7.100095011E0,8.614161611E-1,2.742174864E0,9.786644936E0
7.110095011E0,7.800601721E-1,2.746960402E0,9.824930191E0
7.120095011E0,6.891329288E-1,2.801995277E0,9.686145782E0
7.130095011E0,6.915257573E-1,2.880958557E0,9.458827972E0
7.140095011E0,7.274180651E-1,2.892922640E0,9.116654396E0
7.150095011E0,7.657032609E-1,2.868994236E0,8.889336586E0
7.160095011E0,8.470591903E-1,2.859423161E0,8.822337151E0
7.170095011E0,9.571290612E-1,2.809173822E0,8.896514893E0
7.180095011E0,9.882357717E-1,2.768495798E0,9.054440498E0
7.190095011E0,9.547362328E-1,2.725425005E0,9.336793900E0
7.200095011E0,9.619147182E-1,2.699103832E0,9.528220177E0
7.210095011E0,9.619147182E-1,2.679961443E0,9.633503914E0
7.220095011E0,8.997012973E-1,2.622533560E0,9.638289452E0
7.230095011E0,8.279166222E-1,2.636890650E0,9.533005714E0
7.240095011E0,7.944171429E-1,2.718246460E0,9.370293617E0
7.250095011E0,7.944171429E-1,2.780459881E0,9.188439369E0
7.260095011E0,7.992027402E-1,2.785245657E0,9.044869423E0
7.270095011E0,8.039883971E-1,2.770888567E0,8.968298912E0
7.280095011E0,8.805587292E-1,2.723032236E0,9.006584167E0
7.290095011E0,8.709874153E-1,2.699103832E0,9.078369141E0
7.300095011E0,8.614161611E-1,2.699103832E0,9.159725189E0
7.310095011E0,8.709874153E-1,2.670390129E0,9.226723671E0
7.320095011E0,8.422735929E-1,2.622533560E0,9.260223389E0
7.330095011E0,7.992027402E-1,2.622533560E0,9.274580956E0
7.340095011E0,7.848458290E-1,2.627319336E0,9.212367058E0
7.350095011E0,7.274180651E-1,2.636890650E0,9.164510727E0
7.360095011E0,7.082754970E-1,2.665604353E0,9.145368576E0
7.370095011E0,7.561319470E-1,2.732603550E0,9.164510727E0
7.380095011E0,8.135597110E-1,2.790031195E0,9.212367058E0
7.390095011E0,8.805587292E-1,2.785245657E0,9.312865257E0
7.400095011E0,9.427721500E-1,2.756531715E0,9.480362892E0
7.410095011E0,8.662018180E-1,2.766103029E0,9.542576790E0
7.420095011E0,7.944171429E-1,2.727817774E0,9.595218658E0
7.430095011E0,7.992027402E-1,2.727817774E0,9.600004196E0
7.440095011E0,8.183453679E-1,2.737389088E0,9.489934921E0
7.450095011E0,7.561319470E-1,2.766103029E0,9.341579437E0
7.460095011E0,7.274180651E-1,2.823530674E0,9.241081238E0
7.470095011E0,7.609176040E-1,2.813959360E0,9.140582085E0
7.480095011E0,8.087740541E-1,2.799602509E0,9.087940216E0
7.490095011E0,8.374879360E-1,2.794816732E0,9.011369705E0
7.500095011E0,9.571290612E-1,2.790031195E0,8.987442017E0
7.510095011E0,8.231309652E-1,2.770888567E0,9.049654961E0
7.520095011E0,8.757730722E-1,2.656033039E0,9.135796547E0
7.530095011E0,9.523434043E-1,2.612962246E0,9.226723671E0
7.540095011E0,9.284151793E-1,2.632104874E0,9.413364410E0
7.550095011E0,8.231309652E-1,2.679961443E0,9.466006279E0
7.560095011E0,7.704889178E-1,2.756531715E0,9.466006279E0
7.570095011E0,7.322037220E-1,2.809173822E0,9.375079155E0
7.580095011E0,6.843472719E-1,2.847458839E0,9.241081238E0
7.590095011E0,6.795616150E-1,2.871387243E0,9.078369141E0
7.600095011E0,6.987041831E-1,2.842673302E0,9.011369705E0
7.610095011E0,6.795616150E-1,2.828316450E0,9.035298347E0
7.620095011E0,6.317051649E-1,2.818745136E0,9.097511292E0
7.630095011E0,6.747759581E-1,2.833101988E0,9.245866776E0
7.640095011E0,7.417750359E-1,2.818745136E0,9.336793900E0
7.650095011E0,7.896314859E-1,2.804388046E0,9.360722542E0
7.660095011E0,7.609176040E-1,2.809173822E0,9.355937004E0
7.670095011E0,7.274180651E-1,2.823530674E0,9.375079155E0
7.680095011E0,7.178468108E-1,2.837887764E0,9.375079155E0
7.690095011E0,7.034898400E-1,2.818745136E0,9.384650230E0
7.700095011E0,7.226324677E-1,2.828316450E0,9.336793900E0
7.710095011E0,7.752745152E-1,2.861815929E0,9.332008362E0
7.720095011E0,7.800601721E-1,2.900100946E0,9.288937569E0
7.730095011E0,7.657032609E-1,2.914458036E0,9.250652313E0
7.740095011E0,7.226324677E-1,2.880958557E0,9.274580956E0
7.750095011E0,7.130611539E-1,2.833101988E0,9.284152031E0
7.760095011E0,6.699903607E-1,2.847458839E0,9.303294182E0
7.770095011E0,5.982056856E-1,2.837887764E0,9.284152031E0
7.780095011E0,5.886343718E-1,2.880958557E0,9.327222824E0
7.790095011E0,5.742774606E-1,2.909672260E0,9.336793900E0
7.800095011E0,5.790630579E-1,2.885744095E0,9.293723106E0
7.810095011E0,5.982056856E-1,2.852244616E0,9.241081238E0
7.820095011E0,5.742774606E-1,2.876172781E0,9.255437851E0
7.830095011E0,5.982056856E-1,2.895315409E0,9.279366493E0
7.840095011E0,6.269195080E-1,2.876172781E0,9.332008362E0
7.850095011E0,6.412764788E-1,2.852244616E0,9.408578873E0
7.860095011E0,6.364908218E-1,2.861815929E0,9.437292099E0
7.870095011E0,6.317051649E-1,2.847458839E0,9.475577354E0
7.880095011E0,5.838487148E-1,2.852244616E0,9.442078590E0
7.890095011E0,5.455635786E-1,2.847458839E0,9.375079155E0
7.900095011E0,5.120640397E-1,2.890529871E0,9.327222824E0
7.910095011E0,5.407779217E-1,2.880958557E0,9.269794464E0
7.920095011E0,5.599204898E-1,2.857030153E0,9.198010445E0
7.930095011E0,5.647061467E-1,2.852244616E0,9.174081802E0
7.940095011E0,5.551348329E-1,2.828316450E0,9.159725189E0
7.950095011E0,6.029912829E-1,2.823530674E0,9.241081238E0
7.960095011E0,6.556333899E-1,2.861815929E0,9.312865257E0
7.970095011E0,6.125625968E-1,2.837887764E0,9.360722542E0
7.980095011E0,6.891329288E-1,2.818745136E0,9.446864128E0
7.990095011E0,7.130611539E-1,2.809173822E0,9.403793335E0
8.000095011E0,6.891329288E-1,2.828316450E0,9.303294182E0
8.010095011E0,6.699903607E-1,2.837887764E0,9.178867340E0
8.020095011E0,6.269195080E-1,2.871387243E0,9.154939651E0
8.030095011E0,6.412764788E-1,2.852244616E0,9.154939651E0
8.040095011E0,6.269195080E-1,2.828316450E0,9.236295700E0
8.050095011E0,5.503492355E-1,2.790031195E0,9.288937569E0
8.060095011E0,5.503492355E-1,2.809173822E0,9.284152031E0
8.070095011E0,6.077769399E-1,2.857030153E0,9.250652313E0
8.080095011E0,6.077769399E-1,2.847458839E0,9.188439369E0
8.090095011E0,6.460621357E-1,2.794816732E0,9.198010445E0
8.100095011E0,6.604190469E-1,2.813959360E0,9.327222824E0
8.110095011E0,7.082754970E-1,2.813959360E0,9.451649666E0
8.120095011E0,6.939185858E-1,2.828316450E0,9.600004196E0
8.130095011E0,6.747759581E-1,2.785245657E0,9.705288887E0
8.140095011E0,6.556333899E-1,2.809173822E0,9.681360245E0
8.150095011E0,6.604190469E-1,2.794816732E0,9.542576790E0
8.160095011E0,6.412764788E-1,2.780459881E0,9.403793335E0
8.170095011E0,6.699903607E-1,2.746960402E0,9.260223389E0
8.180095011E0,6.939185858E-1,2.770888567E0,9.169296265E0
8.190095011E0,6.843472719E-1,2.761317253E0,9.116654396E0
8.200095011E0,6.843472719E-1,2.756531715E0,9.078369141E0
8.210095011E0,7.609176040E-1,2.761317253E0,9.064012527E0
8.220095011E0,7.896314859E-1,2.780459881E0,8.997013092E0
8.230095011E0,8.135597110E-1,2.799602509E0,8.977870941E0
8.240095011E0,8.327022791E-1,2.770888567E0,8.973084450E0
8.250095011E0,8.327022791E-1,2.751745939E0,9.087940216E0
8.260095011E0,7.417750359E-1,2.699103832E0,9.236295700E0
8.270095011E0,7.130611539E-1,2.713460922E0,9.375079155E0
8.280095011E0,7.417750359E-1,2.684746981E0,9.446864128E0
8.290095011E0,7.657032609E-1,2.713460922E0,9.489934921E0
8.300095011E0,7.609176040E-1,2.718246460E0,9.480362892E0
8.310095011E0,7.896314859E-1,2.770888567E0,9.442078590E0
8.320095011E0,8.135597110E-1,2.737389088E0,9.418149948E0
8.330095011E0,8.374879360E-1,2.732603550E0,9.384650230E0
8.340095011E0,8.422735929E-1,2.761317253E0,9.389435768E0
8.350095011E0,8.805587292E-1,2.790031195E0,9.365508080E0
8.360095011E0,8.901300430E-1,2.780459881E0,9.336793900E0
8.370095011E0,8.374879360E-1,2.761317253E0,9.332008362E0
8.380095011E0,8.374879360E-1,2.718246460E0,9.341579437E0
8.390095011E0,8.422735929E-1,2.694318295E0,9.341579437E0
8.400095011E0,8.422735929E-1,2.703889608E0,9.322437286E0
8.410095011E0,7.896314859E-1,2.727817774E0,9.226723671E0
8.420095011E0,8.279166222E-1,2.723032236E0,9.169296265E0
8.430095011E0,8.997012973E-1,2.785245657E0,9.083154678E0
8.440095011E0,9.379864931E-1,2.746960402E0,9.054440498E0
8.450095011E0,9.044869542E-1,2.718246460E0,9.154939651E0
8.460095011E0,8.470591903E-1,2.694318295E0,9.312865257E0
8.470095011E0,8.614161611E-1,2.660818815E0,9.580862045E0
8.480095011E0,8.757730722E-1,2.651247501E0,9.772287369E0
8.490095011E0,8.231309652E-1,2.675175667E0,9.810572624E0
8.500095011E0,7.992027402E-1,2.732603550E0,9.676574707E0
8.510095011E0,8.183453679E-1,2.770888567E0,9.470791817E0
8.520095011E0,8.327022791E-1,2.775674343E0,9.135796547E0
8.530095011E0,8.231309652E-1,2.732603550E0,8.934800148E0
8.540095011E0,8.231309652E-1,2.708675146E0,8.824729919E0
8.550095011E0,8.087740541E-1,2.699103832E0,8.848658562E0
8.560095011E0,7.992027402E-1,2.694318295E0,8.939585686E0
8.570095011E0,8.135597110E-1,2.703889608E0,9.044869423E0
8.580095011E0,8.518448472E-1,2.699103832E0,9.121439934E0
8.590095011E0,8.518448472E-1,2.713460922E0,9.221938133E0
8.600095011E0,8.614161611E-1,2.684746981E0,9.346364975E0
8.610095011E0,8.279166222E-1,2.627319336E0,9.566504478E0
8.620095011E0,7.657032609E-1,2.622533560E0,9.781859398E0
8.630095011E0,7.130611539E-1,2.632104874E0,9.863214493E0
8.640095011E0,7.178468108E-1,2.646461725E0,9.853643417E0
8.650095011E0,7.465606928E-1,2.713460922E0,9.681360245E0
8.660095011E0,7.896314859E-1,2.770888567E0,9.379864693E0
8.670095011E0,8.279166222E-1,2.751745939E0,9.159725189E0
8.680095011E0,8.709874153E-1,2.684746981E0,9.035298347E0
8.690095011E0,8.614161611E-1,2.627319336E0,9.078369141E0
8.700095011E0,8.327022791E-1,2.603390932E0,9.164510727E0
8.710095011E0,7.609176040E-1,2.603390932E0,9.245866776E0
8.720095011E0,6.699903607E-1,2.636890650E0,9.265008926E0
8.730095011E0,6.939185858E-1,2.660818815E0,9.250652313E0
8.740095011E0,7.513462901E-1,2.651247501E0,9.241081238E0
8.750095011E0,7.752745152E-1,2.608176708E0,9.255437851E0
8.760095011E0,7.752745152E-1,2.579462767E0,9.351150513E0
8.770095011E0,8.518448472E-1,2.593819857E0,9.437292099E0
8.780095011E0,8.805587292E-1,2.656033039E0,9.480362892E0
8.790095011E0,8.853443861E-1,2.694318295E0,9.451649666E0
8.800095011E0,8.805587292E-1,2.718246460E0,9.351150513E0
8.810095011E0,8.470591903E-1,2.708675146E0,9.303294182E0
8.820095011E0,7.848458290E-1,2.660818815E0,9.288937569E0
8.830095011E0,8.135597110E-1,2.589034081E0,9.341579437E0
8.840095011E0,8.039883971E-1,2.603390932E0,9.389435768E0
8.850095011E0,8.231309652E-1,2.679961443E0,9.375079155E0
8.860095011E0,8.422735929E-1,2.746960402E0,9.336793900E0
8.870095011E0,8.709874153E-1,2.766103029E0,9.236295700E0
8.880095011E0,9.188438654E-1,2.713460922E0,9.217152596E0
8.890095011E0,9.475577474E-1,2.641676188E0,9.269794464E0
8.900095011E0,9.092726111E-1,2.622533560E0,9.351150513E0
8.910095011E0,8.614161611E-1,2.632104874E0,9.408578873E0
8.920095011E0,8.231309652E-1,2.703889608E0,9.346364975E0
8.930095011E0,8.231309652E-1,2.746960402E0,9.217152596E0
8.940095011E0,8.135597110E-1,2.746960402E0,9.135796547E0
8.950095011E0,8.279166222E-1,2.703889608E0,9.135796547E0
8.960095011E0,8.374879360E-1,2.646461725E0,9.202795982E0
8.970095011E0,8.518448472E-1,2.646461725E0,9.303294182E0
8.980095011E0,8.470591903E-1,2.675175667E0,9.355937004E0
8.990095011E0,8.087740541E-1,2.770888567E0,9.293723106E0
9.000095011E0,7.992027402E-1,2.866601467E0,9.174081802E0
9.010095011E0,8.422735929E-1,2.914458036E0,8.949156761E0
9.020095011E0,8.805587292E-1,2.861815929E0,8.853444099E0
9.030095011E0,8.949156404E-1,2.746960402E0,8.906085968E0
9.040095011E0,8.614161611E-1,2.737389088E0,9.183652878E0
9.050095011E0,8.279166222E-1,2.737389088E0,9.470791817E0
9.060095011E0,7.848458290E-1,2.790031195E0,9.652647018E0
9.070095011E0,7.848458290E-1,2.790031195E0,9.700503349E0
9.080095011E0,8.135597110E-1,2.799602509E0,9.662218094E0
9.090095011E0,7.800601721E-1,2.785245657E0,9.566504478E0
9.100095011E0,7.322037220E-1,2.770888567E0,9.422935486E0
9.110095011E0,6.939185858E-1,2.742174864E0,9.327222824E0
9.120095011E0,6.460621357E-1,2.746960402E0,9.236295700E0
9.130095011E0,5.886343718E-1,2.818745136E0,9.154939651E0
9.140095011E0,5.838487148E-1,2.842673302E0,9.145368576E0
9.150095011E0,5.647061467E-1,2.833101988E0,9.178867340E0
9.160095011E0,5.359922647E-1,2.799602509E0,9.236295700E0
9.170095011E0,5.024927258E-1,2.756531715E0,9.379864693E0
9.180095011E0,5.216353536E-1,2.761317253E0,9.418149948E0
9.190095011E0,5.551348329E-1,2.785245657E0,9.394221306E0
9.200095011E0,6.077769399E-1,2.809173822E0,9.288937569E0
9.210095011E0,6.460621357E-1,2.813959360E0,9.217152596E0
9.220095011E0,6.652047038E-1,2.751745939E0,9.221938133E0
9.230095011E0,6.604190469E-1,2.689532757E0,9.284152031E0
9.240095011E0,6.412764788E-1,2.646461725E0,9.399007797E0
9.250095011E0,6.317051649E-1,2.694318295E0,9.523433685E0
9.260095011E0,7.034898400E-1,2.723032236E0,9.576076508E0
9.270095011E0,6.125625968E-1,2.833101988E0,9.576076508E0
9.280095011E0,5.886343718E-1,2.818745136E0,9.504291534E0
9.290095011E0,5.886343718E-1,2.742174864E0,9.466006279E0
9.300095011E0,6.460621357E-1,2.679961443E0,9.446864128E0
9.310095011E0,6.221339107E-1,2.703889608E0,9.403793335E0
9.320095011E0,5.551348329E-1,2.737389088E0,9.288937569E0
9.330095011E0,5.790630579E-1,2.756531715E0,9.193224907E0
9.340095011E0,6.795616150E-1,2.775674343E0,9.154939651E0
9.350095011E0,7.082754970E-1,2.756531715E0,9.202795982E0
9.360095011E0,6.987041831E-1,2.708675146E0,9.346364975E0
9.370095011E0,6.604190469E-1,2.651247501E0,9.461220741E0
9.380095011E0,5.838487148E-1,2.612962246E0,9.580862045E0
9.390095011E0,6.604190469E-1,2.627319336E0,9.446864128E0
9.400095011E0,7.178468108E-1,2.632104874E0,9.351150513E0
9.410095011E0,6.843472719E-1,2.656033039E0,9.174081802E0
9.420095011E0,6.843472719E-1,2.684746981E0,9.059226990E0
9.430095011E0,7.322037220E-1,2.670390129E0,9.030512810E0
9.440095011E0,7.800601721E-1,2.636890650E0,9.078369141E0
9.450095011E0,7.800601721E-1,2.617748022E0,9.221938133E0
9.460095011E0,7.369893789E-1,2.694318295E0,9.360722542E0
9.470095011E0,6.987041831E-1,2.756531715E0,9.413364410E0
9.480095011E0,6.221339107E-1,2.770888567E0,9.432506561E0
9.490095011E0,6.125625968E-1,2.732603550E0,9.466006279E0
9.500095011E0,6.317051649E-1,2.679961443E0,9.475577354E0
9.510095011E0,6.412764788E-1,2.689532757E0,9.413364410E0
9.520095011E0,6.843472719E-1,2.761317253E0,9.274580956E0
9.530095011E0,7.130611539E-1,2.794816732E0,9.040083885E0
9.540095011E0,7.130611539E-1,2.780459881E0,8.872586250E0
9.550095011E0,7.704889178E-1,2.679961443E0,8.829515457E0
9.560095011E0,8.087740541E-1,2.589034081E0,8.958727837E0
9.570095011E0,7.896314859E-1,2.522035122E0,9.198010445E0
9.580095011E0,7.322037220E-1,2.541177750E0,9.394221306E0
9.590095011E0,6.604190469E-1,2.589034081E0,9.623932838E0
9.600095011E0,6.556333899E-1,2.622533560E0,9.757930756E0
9.610095011E0,6.843472719E-1,2.603390932E0,9.805787086E0
9.620095011E0,7.034898400E-1,2.589034081E0,9.767501831E0
9.630095011E0,7.130611539E-1,2.641676188E0,9.671789169E0
9.640095011E0,7.369893789E-1,2.746960402E0,9.422935486E0
9.650095011E0,7.657032609E-1,2.785245657E0,9.202795982E0
9.660095011E0,7.704889178E-1,2.828316450E0,9.011369705E0
9.670095011E0,7.561319470E-1,2.799602509E0,8.944371223E0
9.680095011E0,7.274180651E-1,2.756531715E0,8.973084450E0
9.690095011E0,7.465606928E-1,2.689532757E0,9.159725189E0
9.700095011E0,7.609176040E-1,2.660818815E0,9.265008926E0
9.710095011E0,8.039883971E-1,2.646461725E0,9.394221306E0
9.720095011E0,8.087740541E-1,2.603390932E0,9.504291534E0
9.730095011E0,7.752745152E-1,2.584248543E0,9.566504478E0
9.740095011E0,7.704889178E-1,2.517249346E0,9.710074425E0
9.750095011E0,8.231309652E-1,2.445464849E0,9.796216011E0
9.760095011E0,8.087740541E-1,2.450250387E0,9.906285286E0
9.770095011E0,8.135597110E-1,2.478964329E0,9.882357597E0
9.780095011E0,8.374879360E-1,2.555534601E0,9.753145218E0
9.790095011E0,8.374879360E-1,2.598605394E0,9.523433685E0
9.800095011E0,8.135597110E-1,2.603390932E0,9.418149948E0
9.810095011E0,7.704889178E-1,2.569891453E0,9.341579437E0
9.820095011E0,7.130611539E-1,2.569891453E0,9.317651749E0
9.830095011E0,6.412764788E-1,2.569891453E0,9.379864693E0
9.840095011E0,6.029912829E-1,2.636890650E0,9.389435768E0
9.850095011E0,6.699903607E-1,2.727817774E0,9.360722542E0
9.860095011E0,6.795616150E-1,2.665604353E0,9.178867340E0
9.870095011E0,6.556333899E-1,2.679961443E0,9.068798065E0
9.880095011E0,6.891329288E-1,2.694318295E0,8.949156761E0
9.890095011E0,8.183453679E-1,2.670390129E0,8.858229637E0
9.900095011E0,9.188438654E-1,2.675175667E0,8.834300995E0
9.910095011E0,9.762716293E-1,2.689532757E0,8.910871506E0
9.920095011E0,9.475577474E-1,2.665604353E0,9.092725754E0
9.930095011E0,8.997012973E-1,2.560320139E0,9.422935486E0
9.940095011E0,8.327022791E-1,2.493321180E0,9.604789734E0
9.950095011E0,7.704889178E-1,2.478964329E0,9.748359680E0
9.960095011E0,7.369893789E-1,2.526820660E0,9.714859962E0
9.970095011E0,7.034898400E-1,2.589034081E0,9.576076508E0
9.980095011E0,6.508477330E-1,2.603390932E0,9.403793335E0
9.990095011E0,6.412764788E-1,2.584248543E0,9.308079720E0
1.000009501E1,6.699903607E-1,2.579462767E0,9.202795982E0
1.001009501E1,6.939185858E-1,2.593819857E0,9.135796547E0
1.002009501E1,6.891329288E-1,2.684746981E0,9.054440498E0
1.003009501E1,6.747759581E-1,2.766103029E0,9.011369705E0
1.004009501E1,6.843472719E-1,2.756531715E0,8.982656479E0
1.005009501E1,6.891329288E-1,2.708675146E0,9.030512810E0
1.006009501E1,7.369893789E-1,2.641676188E0,9.164510727E0
1.007009501E1,7.082754970E-1,2.651247501E0,9.212367058E0
1.008009501E1,6.795616150E-1,2.761317253E0,9.202795982E0
1.009009501E1,6.652047038E-1,2.837887764E0,9.169296265E0
1.010009501E1,7.226324677E-1,2.828316450E0,9.212367058E0
1.011009501E1,7.657032609E-1,2.737389088E0,9.274580956E0
1.012009501E1,7.992027402E-1,2.651247501E0,9.346364975E0
1.013009501E1,8.518448472E-1,2.612962246E0,9.384650230E0
1.014009501E1,8.566305041E-1,2.627319336E0,9.351150513E0
1.015009501E1,8.279166222E-1,2.617748022E0,9.293723106E0
1.016009501E1,7.848458290E-1,2.608176708E0,9.241081238E0
1.017009501E1,7.226324677E-1,2.545963287E0,9.308079720E0
1.018009501E1,6.795616150E-1,2.507678032E0,9.461220741E0
1.019009501E1,6.508477330E-1,2.526820660E0,9.623932838E0
1.020009501E1,5.599204898E-1,2.636890650E0,9.710074425E0
1.021009501E1,4.546363056E-1,2.751745939E0,9.595218658E0
1.022009501E1,4.259224236E-1,2.833101988E0,9.346364975E0
1.023009501E1,4.019941986E-1,2.871387243E0,8.997013092E0
1.024009501E1,4.115654826E-1,2.842673302E0,8.772088051E0
1.025009501E1,4.785645306E-1,2.809173822E0,8.647661209E0
1.026009501E1,5.407779217E-1,2.785245657E0,8.695517540E0
1.027009501E1,6.125625968E-1,2.770888567E0,8.953942299E0
1.028009501E1,6.747759581E-1,2.742174864E0,9.379864693E0
1.029009501E1,6.699903607E-1,2.703889608E0,9.724431038E0
1.030009501E1,6.221339107E-1,2.660818815E0,1.001156998E1
1.031009501E1,6.460621357E-1,2.694318295E0,1.008814049E1
1.032009501E1,6.508477330E-1,2.751745939E0,9.987641335E0
1.033009501E1,6.125625968E-1,2.823530674E0,9.796216011E0
1.034009501E1,5.790630579E-1,2.813959360E0,9.533005714E0
1.035009501E1,5.599204898E-1,2.775674343E0,9.351150513E0
1.036009501E1,5.982056856E-1,2.746960402E0,9.317651749E0
1.037009501E1,6.173482537E-1,2.751745939E0,9.360722542E0
1.038009501E1,6.125625968E-1,2.761317253E0,9.384650230E0
1.039009501E1,5.838487148E-1,2.751745939E0,9.375079155E0
1.040009501E1,5.934200287E-1,2.694318295E0,9.355937004E0
1.041009501E1,5.647061467E-1,2.651247501E0,9.312865257E0
1.042009501E1,5.120640397E-1,2.603390932E0,9.279366493E0
1.043009501E1,4.689932466E-1,2.627319336E0,9.221938133E0
1.044009501E1,4.163511395E-1,2.689532757E0,9.150154114E0
1.045009501E1,4.307080805E-1,2.718246460E0,9.092725754E0
1.046009501E1,4.642075896E-1,2.713460922E0,9.140582085E0
1.047009501E1,4.881358147E-1,2.689532757E0,9.269794464E0
1.048009501E1,5.407779217E-1,2.632104874E0,9.542576790E0
1.049009501E1,6.699903607E-1,2.656033039E0,9.748359680E0
1.050009501E1,7.657032609E-1,2.679961443E0,9.844072342E0
1.051009501E1,8.087740541E-1,2.723032236E0,9.805787086E0
1.052009501E1,7.657032609E-1,2.713460922E0,9.714859962E0
1.053009501E1,6.987041831E-1,2.641676188E0,9.580862045E0
1.054009501E1,6.269195080E-1,2.612962246E0,9.480362892E0
1.055009501E1,5.694918036E-1,2.617748022E0,9.250652313E0
1.056009501E1,5.216353536E-1,2.665604353E0,9.025727272E0
1.057009501E1,5.359922647E-1,2.703889608E0,8.863015175E0
1.058009501E1,5.455635786E-1,2.684746981E0,8.776873589E0
1.059009501E1,5.982056856E-1,2.627319336E0,8.819944382E0
1.060009501E1,6.556333899E-1,2.536391973E0,8.997013092E0
1.061009501E1,6.987041831E-1,2.536391973E0,9.174081802E0
1.062009501E1,7.944171429E-1,2.589034081E0,9.437292099E0
1.063009501E1,7.992027402E-1,2.622533560E0,9.671789169E0
1.064009501E1,7.704889178E-1,2.608176708E0,9.767501831E0
1.065009501E1,7.082754970E-1,2.598605394E0,9.777072906E0
1.066009501E1,6.269195080E-1,2.632104874E0,9.671789169E0
1.067009501E1,5.742774606E-1,2.718246460E0,9.399007797E0
1.068009501E1,5.886343718E-1,2.770888567E0,9.150154114E0
1.069009501E1,6.221339107E-1,2.785245657E0,8.896514893E0
1.070009501E1,6.747759581E-1,2.718246460E0,8.776873589E0
1.071009501E1,7.513462901E-1,2.641676188E0,8.805587769E0
1.072009501E1,8.231309652E-1,2.632104874E0,8.939585686E0
1.073009501E1,8.662018180E-1,2.636890650E0,9.078369141E0
1.074009501E1,8.614161611E-1,2.646461725E0,9.250652313E0
1.075009501E1,8.231309652E-1,2.627319336E0,9.384650230E0
1.076009501E1,7.274180651E-1,2.545963287E0,9.571290970E0
1.077009501E1,6.699903607E-1,2.464607239E0,9.767501831E0
1.078009501E1,6.460621357E-1,2.445464849E0,9.891928673E0
1.079009501E1,6.029912829E-1,2.560320139E0,9.920642853E0
1.080009501E1,5.838487148E-1,2.670390129E0,9.772287369E0
1.081009501E1,6.269195080E-1,2.718246460E0,9.437292099E0
1.082009501E1,6.556333899E-1,2.732603550E0,9.202795982E0
1.083009501E1,6.747759581E-1,2.660818815E0,8.896514893E0
1.084009501E1,7.130611539E-1,2.593819857E0,8.738588333E0
1.085009501E1,7.034898400E-1,2.545963287E0,8.709874153E0
1.086009501E1,6.412764788E-1,2.569891453E0,8.776873589E0
1.087009501E1,6.317051649E-1,2.560320139E0,8.939585686E0
1.088009501E1,5.790630579E-1,2.569891453E0,9.207581520E0
1.089009501E1,5.407779217E-1,2.536391973E0,9.399007797E0
1.090009501E1,5.407779217E-1,2.536391973E0,9.657432556E0
1.091009501E1,5.359922647E-1,2.565105915E0,9.930213928E0
1.092009501E1,5.455635786E-1,2.589034081E0,1.005942631E1
1.093009501E1,6.029912829E-1,2.584248543E0,1.008335495E1
1.094009501E1,6.747759581E-1,2.612962246E0,9.987641335E0
1.095009501E1,7.752745152E-1,2.675175667E0,9.652647018E0
1.096009501E1,7.800601721E-1,2.703889608E0,9.351150513E0
1.097009501E1,7.609176040E-1,2.679961443E0,9.073583603E0
1.098009501E1,6.699903607E-1,2.589034081E0,8.977870941E0
1.099009501E1,6.173482537E-1,2.545963287E0,9.011369705E0
1.100009501E1,5.790630579E-1,2.536391973E0,9.107083321E0
1.101009501E1,5.934200287E-1,2.569891453E0,9.140582085E0
1.102009501E1,5.886343718E-1,2.646461725E0,9.178867340E0
1.103009501E1,6.077769399E-1,2.665604353E0,9.174081802E0
1.104009501E1,6.652047038E-1,2.569891453E0,9.269794464E0
1.105009501E1,7.178468108E-1,2.459821701E0,9.489934921E0
1.106009501E1,7.609176040E-1,2.459821701E0,9.719645500E0
1.107009501E1,7.848458290E-1,2.550748825E0,9.887143135E0
1.108009501E1,8.087740541E-1,2.632104874E0,9.920642853E0
1.109009501E1,8.135597110E-1,2.646461725E0,9.820143700E0
1.110009501E1,7.704889178E-1,2.603390932E0,9.705288887E0
1.111009501E1,6.987041831E-1,2.512463808E0,9.552147865E0
1.112009501E1,6.460621357E-1,2.483749866E0,9.389435768E0
1.113009501E1,6.029912829E-1,2.536391973E0,9.241081238E0
1.114009501E1,5.407779217E-1,2.593819857E0,9.035298347E0
1.115009501E1,5.359922647E-1,2.608176708E0,8.910871506E0
1.116009501E1,6.173482537E-1,2.541177750E0,8.953942299E0
1.117009501E1,6.125625968E-1,2.493321180E0,9.078369141E0
1.118009501E1,6.077769399E-1,2.445464849E0,9.250652313E0
1.119009501E1,6.747759581E-1,2.536391973E0,9.346364975E0
1.120009501E1,7.130611539E-1,2.555534601E0,9.341579437E0
1.121009501E1,7.226324677E-1,2.565105915E0,9.250652313E0
1.122009501E1,6.987041831E-1,2.536391973E0,9.221938133E0
1.123009501E1,7.322037220E-1,2.502892494E0,9.231510162E0
1.124009501E1,7.369893789E-1,2.459821701E0,9.365508080E0
1.125009501E1,6.556333899E-1,2.445464849E0,9.614361763E0
1.126009501E1,6.747759581E-1,2.483749866E0,9.757930756E0
1.127009501E1,6.795616150E-1,2.555534601E0,9.753145218E0
1.128009501E1,6.747759581E-1,2.622533560E0,9.513862610E0
1.129009501E1,6.508477330E-1,2.665604353E0,9.193224907E0
1.130009501E1,6.460621357E-1,2.675175667E0,8.819944382E0
1.131009501E1,6.412764788E-1,2.670390129E0,8.628518105E0
1.132009501E1,6.604190469E-1,2.617748022E0,8.676374435E0
1.133009501E1,7.178468108E-1,2.555534601E0,9.030512810E0
1.134009501E1,7.082754970E-1,2.555534601E0,9.384650230E0
1.135009501E1,7.417750359E-1,2.612962246E0,9.786644936E0
1.136009501E1,7.465606928E-1,2.670390129E0,9.939785004E0
1.137009501E1,7.082754970E-1,2.646461725E0,9.901499748E0
1.138009501E1,6.604190469E-1,2.636890650E0,9.662218094E0
1.139009501E1,5.934200287E-1,2.656033039E0,9.408578873E0
1.140009501E1,5.168496966E-1,2.660818815E0,9.121439934E0
1.141009501E1,4.450650215E-1,2.684746981E0,8.920442581E0
1.142009501E1,4.402793646E-1,2.675175667E0,8.810373306E0
1.143009501E1,4.450650215E-1,2.670390129E0,8.886942863E0
1.144009501E1,5.599204898E-1,2.627319336E0,9.087940216E0
1.145009501E1,6.795616150E-1,2.603390932E0,9.351150513E0
1.146009501E1,7.034898400E-1,2.608176708E0,9.475577354E0
1.147009501E1,7.130611539E-1,2.632104874E0,9.489934921E0
1.148009501E1,7.034898400E-1,2.632104874E0,9.466006279E0
1.149009501E1,6.173482537E-1,2.603390932E0,9.399007797E0
1.150009501E1,5.359922647E-1,2.574677229E0,9.370293617E0
1.151009501E1,4.498506486E-1,2.593819857E0,9.384650230E0
1.152009501E1,3.828516304E-1,2.608176708E0,9.437292099E0
1.153009501E1,4.067798555E-1,2.632104874E0,9.446864128E0
1.154009501E1,5.168496966E-1,2.660818815E0,9.470791817E0
1.155009501E1,5.838487148E-1,2.656033039E0,9.413364410E0
1.156009501E1,6.699903607E-1,2.694318295E0,9.279366493E0
1.157009501E1,7.034898400E-1,2.703889608E0,9.154939651E0
1.158009501E1,6.556333899E-1,2.703889608E0,9.040083885E0
1.159009501E1,6.269195080E-1,2.641676188E0,9.135796547E0
1.160009501E1,5.982056856E-1,2.646461725E0,9.250652313E0
1.161009501E1,5.359922647E-1,2.612962246E0,9.475577354E0
1.162009501E1,5.120640397E-1,2.646461725E0,9.595218658E0
1.163009501E1,5.024927258E-1,2.703889608E0,9.647860527E0
1.164009501E1,4.785645306E-1,2.742174864E0,9.547362328E0
1.165009501E1,5.072783828E-1,2.746960402E0,9.365508080E0
1.166009501E1,5.790630579E-1,2.727817774E0,9.145368576E0
1.167009501E1,6.029912829E-1,2.718246460E0,8.997013092E0
1.168009501E1,5.790630579E-1,2.718246460E0,8.925228119E0
1.169009501E1,5.790630579E-1,2.699103832E0,9.054440498E0
1.170009501E1,5.790630579E-1,2.665604353E0,9.308079720E0
1.171009501E1,5.503492355E-1,2.646461725E0,9.590433121E0
1.172009501E1,5.024927258E-1,2.636890650E0,9.858428955E0
1.173009501E1,4.642075896E-1,2.694318295E0,9.887143135E0
1.174009501E1,4.450650215E-1,2.751745939E0,9.767501831E0
1.175009501E1,4.307080805E-1,2.780459881E0,9.499505997E0
1.176009501E1,4.163511395E-1,2.761317253E0,9.284152031E0
1.177009501E1,4.450650215E-1,2.713460922E0,9.111868858E0
1.178009501E1,4.977070987E-1,2.679961443E0,9.020941734E0
1.179009501E1,5.934200287E-1,2.675175667E0,9.025727272E0
1.180009501E1,6.029912829E-1,2.703889608E0,9.131011009E0
1.181009501E1,5.934200287E-1,2.684746981E0,9.245866776E0
1.182009501E1,5.647061467E-1,2.632104874E0,9.399007797E0
1.183009501E1,5.216353536E-1,2.574677229E0,9.499505997E0
1.184009501E1,4.546363056E-1,2.555534601E0,9.547362328E0
1.185009501E1,4.115654826E-1,2.593819857E0,9.547362328E0
1.186009501E1,3.589234054E-1,2.632104874E0,9.513862610E0
1.187009501E1,3.589234054E-1,2.579462767E0,9.480362892E0
1.188009501E1,3.828516304E-1,2.555534601E0,9.475577354E0
1.189009501E1,4.546363056E-1,2.541177750E0,9.466006279E0
1.190009501E1,5.120640397E-1,2.593819857E0,9.442078590E0
1.191009501E1,5.503492355E-1,2.636890650E0,9.422935486E0
1.192009501E1,5.790630579E-1,2.651247501E0,9.351150513E0
1.193009501E1,5.790630579E-1,2.660818815E0,9.236295700E0
1.194009501E1,5.694918036E-1,2.670390129E0,9.068798065E0
1.195009501E1,5.072783828E-1,2.651247501E0,9.097511292E0
1.196009501E1,4.498506486E-1,2.550748825E0,9.154939651E0
1.197009501E1,5.072783828E-1,2.522035122E0,9.336793900E0
1.198009501E1,5.838487148E-1,2.474178553E0,9.485149384E0
1.199009501E1,6.077769399E-1,2.450250387E0,9.547362328E0
1.200009501E1,6.460621357E-1,2.517249346E0,9.561718941E0
1.201009501E1,7.609176040E-1,2.545963287E0,9.437292099E0
1.202009501E1,7.657032609E-1,2.569891453E0,9.288937569E0
1.203009501E1,8.135597110E-1,2.541177750E0,9.183652878E0
1.204009501E1,8.039883971E-1,2.493321180E0,9.202795982E0
1.205009501E1,6.460621357E-1,2.541177750E0,9.269794464E0
1.206009501E1,5.790630579E-1,2.536391973E0,9.303294182E0
1.207009501E1,5.503492355E-1,2.574677229E0,9.427721024E0
1.208009501E1,5.216353536E-1,2.603390932E0,9.513862610E0
1.209009501E1,5.072783828E-1,2.675175667E0,9.513862610E0
1.210009501E1,5.694918036E-1,2.708675146E0,9.494720459E0
1.211009501E1,6.556333899E-1,2.699103832E0,9.437292099E0
1.212009501E1,7.417750359E-1,2.622533560E0,9.475577354E0
1.213009501E1,6.939185858E-1,2.526820660E0,9.475577354E0
1.214009501E1,6.221339107E-1,2.440679073E0,9.399007797E0
1.215009501E1,7.369893789E-1,2.478964329E0,9.403793335E0
1.216009501E1,7.417750359E-1,2.560320139E0,9.293723106E0
1.217009501E1,6.412764788E-1,2.636890650E0,9.207581520E0
1.218009501E1,6.029912829E-1,2.579462767E0,9.159725189E0
1.219009501E1,6.029912829E-1,2.522035122E0,9.231510162E0
1.220009501E1,6.317051649E-1,2.541177750E0,9.365508080E0
1.221009501E1,5.503492355E-1,2.531606436E0,9.509077072E0
1.222009501E1,6.125625968E-1,2.565105915E0,9.580862045E0
1.223009501E1,6.604190469E-1,2.584248543E0,9.556933403E0
1.224009501E1,8.279166222E-1,2.512463808E0,9.690931320E0
1.225009501E1,7.609176040E-1,2.526820660E0,9.652647018E0
1.226009501E1,5.934200287E-1,2.445464849E0,9.485149384E0
1.227009501E1,5.359922647E-1,2.507678032E0,9.379864693E0
1.228009501E1,4.450650215E-1,2.469393015E0,9.221938133E0
1.229009501E1,3.158525825E-1,2.469393015E0,8.992227554E0
1.230009501E1,5.647061467E-1,2.435893536E0,8.934800148E0
1.231009501E1,4.689932466E-1,2.488535643E0,8.901300430E0
1.232009501E1,4.259224236E-1,2.474178553E0,8.858229637E0
1.233009501E1,3.732803464E-1,2.364108801E0,8.925228119E0
1.234009501E1,5.503492355E-1,2.373680115E0,9.054440498E0
1.235009501E1,6.556333899E-1,2.373680115E0,9.135796547E0
1.236009501E1,6.412764788E-1,2.517249346E0,9.384650230E0
1.237009501E1,5.647061467E-1,2.522035122E0,9.556933403E0
1.238009501E1,5.264210105E-1,2.431107759E0,9.705288887E0
1.239009501E1,5.503492355E-1,2.411965132E0,9.791430473E0
1.240009501E1,5.264210105E-1,2.416750908E0,9.791430473E0
1.241009501E1,4.785645306E-1,2.474178553E0,9.743574142E0
1.242009501E1,5.312066078E-1,2.435893536E0,9.600004196E0
1.243009501E1,4.354937077E-1,2.440679073E0,9.375079155E0
1.244009501E1,3.972085714E-1,2.388036966E0,9.260223389E0
1.245009501E1,4.259224236E-1,2.311466694E0,9.150154114E0
1.246009501E1,4.642075896E-1,2.282752752E0,9.006584167E0
1.247009501E1,4.163511395E-1,2.340180635E0,8.906085968E0
1.248009501E1,3.972085714E-1,2.450250387E0,8.867800713E0
1.249009501E1,4.067798555E-1,2.459821701E0,8.901300430E0
1.250009501E1,5.072783828E-1,2.464607239E0,9.044869423E0
1.251009501E1,5.216353536E-1,2.464607239E0,9.107083321E0
1.252009501E1,5.072783828E-1,2.488535643E0,9.245866776E0
1.253009501E1,5.264210105E-1,2.498106956E0,9.355937004E0
1.254009501E1,5.694918036E-1,2.426322222E0,9.547362328E0
1.255009501E1,5.120640397E-1,2.359323025E0,9.571290970E0
1.256009501E1,4.498506486E-1,2.392822742E0,9.652647018E0
1.257009501E1,4.594219327E-1,2.383251429E0,9.695717812E0
1.258009501E1,5.024927258E-1,2.397608280E0,9.705288887E0
1.259009501E1,5.790630579E-1,2.464607239E0,9.614361763E0
1.260009501E1,5.790630579E-1,2.512463808E0,9.499505997E0
1.261009501E1,4.929214716E-1,2.469393015E0,9.360722542E0
1.262009501E1,4.737788737E-1,2.493321180E0,9.389435768E0
1.263009501E1,4.929214716E-1,2.416750908E0,9.389435768E0
1.264009501E1,4.211367965E-1,2.368894339E0,9.446864128E0
1.265009501E1,4.354937077E-1,2.359323025E0,9.533005714E0
1.266009501E1,4.402793646E-1,2.378465652E0,9.518648148E0
1.267009501E1,5.072783828E-1,2.364108801E0,9.523433685E0
1.268009501E1,5.934200287E-1,2.392822742E0,9.494720459E0
1.269009501E1,6.125625968E-1,2.402393818E0,9.475577354E0
1.270009501E1,5.024927258E-1,2.402393818E0,9.451649666E0
1.271009501E1,4.546363056E-1,2.373680115E0,9.437292099E0
1.272009501E1,4.594219327E-1,2.349751949E0,9.547362328E0
1.273009501E1,3.876372576E-1,2.277967215E0,9.671789169E0
1.274009501E1,3.158525825E-1,2.263610125E0,9.748359680E0
1.275009501E1,3.445664644E-1,2.254039049E0,9.815358162E0
1.276009501E1,3.876372576E-1,2.297109842E0,9.781859398E0
1.277009501E1,5.024927258E-1,2.330609322E0,9.643074989E0
1.278009501E1,5.599204898E-1,2.349751949E0,9.485149384E0
1.279009501E1,5.934200287E-1,2.301895380E0,9.422935486E0
1.280009501E1,5.455635786E-1,2.249253273E0,9.437292099E0
1.281009501E1,4.259224236E-1,2.163111687E0,9.442078590E0
1.282009501E1,3.541377485E-1,2.115255117E0,9.513862610E0
1.283009501E1,3.302095234E-1,2.100898266E0,9.518648148E0
1.284009501E1,1.962114573E-1,2.139183521E0,9.466006279E0
1.285009501E1,1.483550072E-1,2.153540373E0,9.422935486E0
1.286009501E1,1.962114573E-1,2.167897224E0,9.322437286E0
1.287009501E1,2.871387303E-1,2.148754835E0,9.303294182E0
1.288009501E1,3.732803464E-1,2.139183521E0,9.365508080E0
1.289009501E1,4.354937077E-1,2.172683001E0,9.446864128E0
1.290009501E1,4.546363056E-1,2.139183521E0,9.509077072E0
1.291009501E1,4.929214716E-1,2.086541414E0,9.509077072E0
1.292009501E1,4.785645306E-1,2.187039852E0,9.513862610E0
1.293009501E1,4.067798555E-1,2.273181438E0,9.466006279E0
1.294009501E1,3.493520916E-1,2.225325108E0,9.317651749E0
1.295009501E1,3.302095234E-1,2.220539331E0,9.231510162E0
1.296009501E1,2.584248483E-1,2.254039049E0,9.198010445E0
1.297009501E1,2.536391914E-1,2.215753794E0,9.150154114E0
1.298009501E1,2.105683982E-1,2.306680918E0,9.174081802E0
1.299009501E1,3.445664644E-1,2.373680115E0,9.107083321E0
1.300009501E1,4.689932466E-1,2.416750908E0,9.092725754E0
1.301009501E1,5.455635786E-1,2.397608280E0,9.140582085E0
1.302009501E1,5.934200287E-1,2.378465652E0,9.154939651E0
1.303009501E1,5.647061467E-1,2.397608280E0,9.245866776E0
1.304009501E1,4.785645306E-1,2.359323025E0,9.351150513E0
1.305009501E1,5.072783828E-1,2.359323025E0,9.446864128E0
1.306009501E1,5.599204898E-1,2.321038008E0,9.513862610E0
1.307009501E1,4.977070987E-1,2.407179594E0,9.600004196E0
1.308009501E1,4.546363056E-1,2.483749866E0,9.609575272E0
1.309009501E1,4.785645306E-1,2.522035122E0,9.552147865E0
1.310009501E1,5.072783828E-1,2.522035122E0,9.446864128E0
1.311009501E1,5.216353536E-1,2.560320139E0,9.322437286E0
1.312009501E1,5.455635786E-1,2.603390932E0,9.226723671E0
1.313009501E1,5.694918036E-1,2.593819857E0,9.198010445E0
1.314009501E1,5.551348329E-1,2.593819857E0,9.207581520E0
1.315009501E1,5.024927258E-1,2.593819857E0,9.288937569E0
1.316009501E1,4.929214716E-1,2.531606436E0,9.346364975E0
1.317009501E1,4.259224236E-1,2.541177750E0,9.351150513E0
1.318009501E1,4.737788737E-1,2.603390932E0,9.389435768E0
1.319009501E1,4.402793646E-1,2.646461725E0,9.375079155E0
1.320009501E1,4.354937077E-1,2.565105915E0,9.327222824E0
1.321009501E1,4.019941986E-1,2.526820660E0,9.360722542E0
1.322009501E1,3.397808075E-1,2.493321180E0,9.437292099E0
1.323009501E1,2.823530734E-1,2.498106956E0,9.504291534E0
1.324009501E1,3.110669553E-1,2.517249346E0,9.542576790E0
1.325009501E1,3.876372576E-1,2.550748825E0,9.537791252E0
1.326009501E1,4.450650215E-1,2.603390932E0,9.542576790E0
1.327009501E1,4.019941986E-1,2.617748022E0,9.556933403E0
1.328009501E1,4.259224236E-1,2.565105915E0,9.509077072E0
1.329009501E1,4.354937077E-1,2.526820660E0,9.432506561E0
1.330009501E1,3.972085714E-1,2.522035122E0,9.288937569E0
1.331009501E1,3.014956415E-1,2.550748825E0,9.126225471E0
1.332009501E1,2.823530734E-1,2.555534601E0,8.968298912E0
1.333009501E1,2.727817893E-1,2.565105915E0,8.877371788E0
1.334009501E1,2.105683982E-1,2.555534601E0,8.834300995E0
1.335009501E1,1.674975902E-1,2.545963287E0,8.867800713E0
1.336009501E1,1.818545163E-1,2.507678032E0,8.968298912E0
1.337009501E1,1.579262912E-1,2.517249346E0,9.073583603E0
1.338009501E1,8.135596663E-2,2.478964329E0,9.250652313E0
1.339009501E1,2.392822690E-2,2.440679073E0,9.394221306E0
1.340009501E1,1.148554832E-1,2.421536446E0,9.451649666E0
1.341009501E1,1.435693651E-1,2.416750908E0,9.461220741E0
1.342009501E1,9.571290761E-2,2.445464849E0,9.461220741E0
1.343009501E1,1.292124242E-1,2.416750908E0,9.399007797E0
1.344009501E1,1.196411327E-1,2.421536446E0,9.394221306E0
1.345009501E1,1.052841991E-1,2.373680115E0,9.446864128E0
1.346009501E1,9.571290761E-2,2.349751949E0,9.485149384E0
1.347009501E1,6.221338734E-2,2.335394859E0,9.619147301E0
1.348009501E1,0.000000000E0,2.316252232E0,9.690931320E0
1.349009501E1,0.000000000E0,2.239681959E0,9.777072906E0
1.350009501E1,6.699903309E-2,2.187039852E0,9.820143700E0
1.351009501E1,1.483550072E-1,2.206182480E0,9.891928673E0
1.352009501E1,1.914258152E-1,2.201396942E0,9.839286804E0
1.353009501E1,2.057827413E-1,2.196611166E0,9.805787086E0
1.354009501E1,2.392822653E-1,2.196611166E0,9.757930756E0
1.355009501E1,2.584248483E-1,2.201396942E0,9.686145782E0
1.356009501E1,2.488535494E-1,2.182254314E0,9.633503914E0
1.357009501E1,3.110669553E-1,2.201396942E0,9.600004196E0
1.358009501E1,3.732803464E-1,2.230110645E0,9.633503914E0
1.359009501E1,4.019941986E-1,2.263610125E0,9.734002113E0
1.360009501E1,4.259224236E-1,2.215753794E0,9.963713646E0
1.361009501E1,4.163511395E-1,2.187039852E0,1.015513897E1
1.362009501E1,6.221339107E-1,2.096112728E0,1.029870892E1
1.363009501E1,7.752745152E-1,2.067398787E0,1.044227791E1
1.364009501E1,7.704889178E-1,2.033899307E0,1.057627583E1
1.365009501E1,7.274180651E-1,2.029113531E0,1.060020447E1
1.366009501E1,7.178468108E-1,2.048256159E0,1.048534870E1
1.367009501E1,6.987041831E-1,2.081755638E0,1.027956581E1
1.368009501E1,6.987041831E-1,2.086541414E0,1.000199890E1
1.369009501E1,6.987041831E-1,2.120040894E0,9.604789734E0
1.370009501E1,7.465606928E-1,2.124826431E0,9.351150513E0
1.371009501E1,7.752745152E-1,2.115255117E0,9.183652878E0
1.372009501E1,8.374879360E-1,2.129612207E0,9.164510727E0
1.373009501E1,8.997012973E-1,2.134397745E0,9.221938133E0
1.374009501E1,9.092726111E-1,2.091326952E0,9.370293617E0
1.375009501E1,9.044869542E-1,2.053041935E0,9.466006279E0
1.376009501E1,9.427721500E-1,2.043470621E0,9.556933403E0
1.377009501E1,9.571290612E-1,2.062613010E0,9.523433685E0
1.378009501E1,1.038485050E0,2.048256159E0,9.418149948E0
1.379009501E1,1.095912814E0,2.009970903E0,9.312865257E0
1.380009501E1,1.158126116E0,1.976471543E0,9.260223389E0
1.381009501E1,1.115055323E0,2.014756680E0,9.221938133E0
1.382009501E1,1.024128079E0,2.009970903E0,9.178867340E0
1.383009501E1,9.906286001E-1,2.000399828E0,9.054440498E0
1.384009501E1,1.014556766E0,2.019542217E0,8.886942863E0
1.385009501E1,1.067198873E0,2.038684845E0,8.681160927E0
1.386009501E1,1.071984529E0,2.091326952E0,8.532805443E0
1.387009501E1,9.858429432E-1,2.115255117E0,8.298309326E0
1.388009501E1,9.140582681E-1,2.096112728E0,8.116454124E0
1.389009501E1,8.518448472E-1,2.091326952E0,8.063812256E0
1.390009501E1,8.183453679E-1,2.096112728E0,8.068597794E0
1.391009501E1,8.231309652E-1,2.172683001E0,8.106883049E0
1.392009501E1,8.470591903E-1,2.225325108E0,8.188239098E0
1.393009501E1,8.566305041E-1,2.254039049E0,8.288737297E0
1.394009501E1,8.757730722E-1,2.254039049E0,8.542376518E0
1.395009501E1,7.800601721E-1,2.268395901E0,8.901300430E0
1.396009501E1,6.604190469E-1,2.249253273E0,9.226723671E0
1.397009501E1,6.029912829E-1,2.263610125E0,9.566504478E0
1.398009501E1,5.790630579E-1,2.292324066E0,9.671789169E0
1.399009501E1,4.881358147E-1,2.306680918E0,9.700503349E0
1.400009501E1,4.067798555E-1,2.349751949E0,9.662218094E0
1.401009501E1,1.866401732E-1,2.421536446E0,9.542576790E0
1.402009501E1,9.092725813E-2,2.488535643E0,9.370293617E0
1.403009501E1,1.722832322E-1,2.574677229E0,9.178867340E0
1.404009501E1,2.153540403E-1,2.493321180E0,8.992227554E0
1.405009501E1,2.105683982E-1,2.426322222E0,8.973084450E0
1.406009501E1,1.962114573E-1,2.325823545E0,9.078369141E0
1.407009501E1,7.657032460E-2,2.220539331E0,9.303294182E0
1.408009501E1,-9.571290575E-3,2.076970100E0,9.738788605E0
1.409009501E1,2.153540403E-1,1.990828395E0,1.017906761E1
1.410009501E1,2.775674164E-1,1.899901152E0,1.046142101E1
1.411009501E1,3.732803464E-1,1.866401672E0,1.067677498E1
1.412009501E1,4.642075896E-1,1.919043779E0,1.067198944E1
1.413009501E1,5.024927258E-1,1.962114573E0,1.052363396E1
1.414009501E1,3.924229145E-1,1.933400750E0,1.030349445E1
1.415009501E1,2.679961324E-1,2.029113531E0,1.003071213E1
1.416009501E1,1.483550072E-1,2.220539331E0,9.714859962E0
1.417009501E1,-1.435693540E-2,2.349751949E0,9.489934921E0
1.418009501E1,3.349951655E-2,2.388036966E0,9.236295700E0
1.419009501E1,1.483550072E-1,2.383251429E0,9.092725754E0
1.420009501E1,2.775674164E-1,2.359323025E0,8.987442017E0
1.421009501E1,3.637090325E-1,2.335394859E0,8.958727837E0
1.422009501E1,4.259224236E-1,2.244467735E0,9.020941734E0
1.423009501E1,4.785645306E-1,2.230110645E0,9.236295700E0
1.424009501E1,5.120640397E-1,2.220539331E0,9.432506561E0
1.425009501E1,5.312066078E-1,2.220539331E0,9.786644936E0
1.426009501E1,5.503492355E-1,2.239681959E0,1.004028416E1
1.427009501E1,5.168496966E-1,2.234896421E0,1.036570740E1
1.428009501E1,5.216353536E-1,2.268395901E0,1.060977554E1
1.429009501E1,4.163511395E-1,2.321038008E0,1.084905815E1
1.430009501E1,3.493520916E-1,2.301895380E0,1.098305607E1
1.431009501E1,3.876372576E-1,2.258824587E0,1.090648556E1
1.432009501E1,4.785645306E-1,2.182254314E0,1.059063339E1
1.433009501E1,5.072783828E-1,2.096112728E0,1.022692394E1
1.434009501E1,4.642075896E-1,2.009970903E0,9.810572624E0
1.435009501E1,4.450650215E-1,1.995614052E0,9.461220741E0
1.436009501E1,4.163511395E-1,1.957328916E0,9.068798065E0
1.437009501E1,4.594219327E-1,1.832902193E0,8.700303078E0
1.438009501E1,4.450650215E-1,1.799402595E0,8.532805443E0
1.439009501E1,4.259224236E-1,1.828116536E0,8.451449394E0
1.440009501E1,4.737788737E-1,1.813759565E0,8.465806961E0
1.441009501E1,5.838487148E-1,1.727617979E0,8.796015739E0
1.442009501E1,6.891329288E-1,1.651047587E0,9.198010445E0
1.443009501E1,7.417750359E-1,1.655833244E0,9.614361763E0
1.444009501E1,7.369893789E-1,1.732403636E0,9.896714211E0
1.445009501E1,7.417750359E-1,1.785045743E0,9.949356079E0
1.446009501E1,7.561319470E-1,1.813759565E0,9.829715729E0
1.447009501E1,7.752745152E-1,1.847259045E0,9.652647018E0
1.448009501E1,7.322037220E-1,1.919043779E0,9.370293617E0
1.449009501E1,7.034898400E-1,1.976471543E0,9.011369705E0
1.450009501E1,6.604190469E-1,2.014756680E0,8.700303078E0
1.451009501E1,7.130611539E-1,2.048256159E0,8.394021988E0
1.452009501E1,7.657032609E-1,2.062613010E0,8.293522835E0
1.453009501E1,7.609176040E-1,2.091326952E0,8.322237015E0
1.454009501E1,7.561319470E-1,2.124826431E0,8.504091263E0
1.455009501E1,8.853443861E-1,2.110469580E0,8.724231720E0
1.456009501E1,1.019342422E0,2.033899307E0,9.107083321E0
1.457009501E1,1.048056364E0,1.962114573E0,9.427721024E0
1.458009501E1,1.048056364E0,2.081755638E0,9.743574142E0
1.459009501E1,1.019342422E0,2.100898266E0,9.963713646E0
1.460009501E1,1.052842021E0,2.062613010E0,1.017428207E1
1.461009501E1,1.033699393E0,2.072184324E0,1.025563812E1
1.462009501E1,9.284151793E-1,2.110469580E0,1.020778179E1
1.463009501E1,8.183453679E-1,2.196611166E0,9.997213364E0
1.464009501E1,7.178468108E-1,2.249253273E0,9.762716293E0
1.465009501E1,5.934200287E-1,2.249253273E0,9.494720459E0
1.466009501E1,4.785645306E-1,2.244467735E0,9.341579437E0
1.467009501E1,3.541377485E-1,2.263610125E0,9.183652878E0
1.468009501E1,3.014956415E-1,2.301895380E0,9.068798065E0
1.469009501E1,3.110669553E-1,2.340180635E0,8.958727837E0
1.470009501E1,2.919243574E-1,2.297109842E0,9.044869423E0
1.471009501E1,2.727817893E-1,2.234896421E0,9.221938133E0
1.472009501E1,3.014956415E-1,2.158325911E0,9.528220177E0
1.473009501E1,3.062812984E-1,2.081755638E0,9.762716293E0
1.474009501E1,3.158525825E-1,2.038684845E0,1.000199890E1
1.475009501E1,3.589234054E-1,2.048256159E0,1.016471100E1
1.476009501E1,3.302095234E-1,2.096112728E0,1.025085258E1
1.477009501E1,2.919243574E-1,2.105684042E0,1.015992451E1
1.478009501E1,2.727817893E-1,2.057827473E0,1.003549862E1
1.479009501E1,3.206382394E-1,2.043470621E0,9.882357597E0
1.480009501E1,2.727817893E-1,2.062613010E0,9.777072906E0
1.481009501E1,2.249253243E-1,2.105684042E0,9.638289452E0
1.482009501E1,2.153540403E-1,2.115255117E0,9.513862610E0
1.483009501E1,2.967100143E-1,2.100898266E0,9.399007797E0
1.484009501E1,2.584248483E-1,2.057827473E0,9.360722542E0
1.485009501E1,2.009970993E-1,1.981257200E0,9.394221306E0
1.486009501E1,1.531406492E-1,1.904686809E0,9.432506561E0
1.487009501E1,1.579262912E-1,1.885544300E0,9.403793335E0
1.488009501E1,2.488535494E-1,1.885544300E0,9.265008926E0
1.489009501E1,3.397808075E-1,1.899901152E0,9.126225471E0
1.490009501E1,4.067798555E-1,1.938186288E0,8.992227554E0
1.491009501E1,4.402793646E-1,1.952543259E0,9.006584167E0
1.492009501E1,4.977070987E-1,1.919043779E0,9.102297783E0
1.493009501E1,4.785645306E-1,1.885544300E0,9.336793900E0
1.494009501E1,4.498506486E-1,1.880758643E0,9.619147301E0
1.495009501E1,4.689932466E-1,1.909472466E0,9.868000984E0
1.496009501E1,5.455635786E-1,1.938186288E0,1.002114105E1
1.497009501E1,5.647061467E-1,1.919043779E0,1.010728264E1
1.498009501E1,5.359922647E-1,1.909472466E0,1.004506969E1
1.499009501E1,4.498506486E-1,1.914258122E0,9.901499748E0
1.500009501E1,5.120640397E-1,1.952543259E0,9.724431038E0
1.501009501E1,5.312066078E-1,1.947757602E0,9.528220177E0
1.502009501E1,5.407779217E-1,1.923829436E0,9.255437851E0
1.503009501E1,5.072783828E-1,1.957328916E0,9.035298347E0
1.504009501E1,5.742774606E-1,1.990828395E0,8.853444099E0
1.505009501E1,6.699903607E-1,1.990828395E0,8.729017258E0
1.506009501E1,7.896314859E-1,1.938186288E0,8.757730484E0
1.507009501E1,8.614161611E-1,1.904686809E0,8.982656479E0
1.508009501E1,8.470591903E-1,1.904686809E0,9.154939651E0
1.509009501E1,7.896314859E-1,1.885544300E0,9.341579437E0
1.510009501E1,8.135597110E-1,1.871187329E0,9.446864128E0
1.511009501E1,8.805587292E-1,1.818545222E0,9.528220177E0
1.512009501E1,8.279166222E-1,1.780260086E0,9.619147301E0
1.513009501E1,8.279166222E-1,1.794616938E0,9.619147301E0
1.514009501E1,8.039883971E-1,1.804188251E0,9.590433121E0
1.515009501E1,8.374879360E-1,1.832902193E0,9.556933403E0
1.516009501E1,8.231309652E-1,1.861616015E0,9.437292099E0
1.517009501E1,7.800601721E-1,1.875972986E0,9.317651749E0
1.518009501E1,6.795616150E-1,1.899901152E0,9.183652878E0
1.519009501E1,6.317051649E-1,1.880758643E0,9.025727272E0
1.520009501E1,6.508477330E-1,1.847259045E0,9.011369705E0
1.521009501E1,6.412764788E-1,1.828116536E0,9.078369141E0
1.522009501E1,6.939185858E-1,1.828116536E0,9.198010445E0
1.523009501E1,8.374879360E-1,1.842473388E0,9.322437286E0
1.524009501E1,9.523434043E-1,1.847259045E0,9.399007797E0
1.525009501E1,1.048056364E0,1.808973908E0,9.523433685E0
1.526009501E1,1.000199914E0,1.785045743E0,9.657432556E0
1.527009501E1,8.566305041E-1,1.785045743E0,9.777072906E0
1.528009501E1,7.417750359E-1,1.799402595E0,9.805787086E0
1.529009501E1,7.513462901E-1,1.804188251E0,9.801001549E0
1.530009501E1,6.699903607E-1,1.861616015E0,9.647860527E0
1.531009501E1,7.130611539E-1,1.904686809E0,9.552147865E0
1.532009501E1,6.939185858E-1,1.947757602E0,9.446864128E0
1.533009501E1,5.742774606E-1,2.009970903E0,9.461220741E0
1.534009501E1,4.785645306E-1,2.038684845E0,9.499505997E0
1.535009501E1,4.450650215E-1,2.038684845E0,9.561718941E0
1.536009501E1,5.168496966E-1,2.081755638E0,9.585647583E0
1.537009501E1,5.982056856E-1,2.210968018E0,9.547362328E0
1.538009501E1,6.029912829E-1,2.249253273E0,9.475577354E0
1.539009501E1,5.694918036E-1,2.215753794E0,9.470791817E0
1.540009501E1,5.599204898E-1,2.172683001E0,9.547362328E0
1.541009501E1,5.647061467E-1,2.139183521E0,9.662218094E0
1.542009501E1,4.689932466E-1,2.115255117E0,9.786644936E0
1.543009501E1,4.307080805E-1,2.143969059E0,9.824930191E0
1.544009501E1,4.259224236E-1,2.196611166E0,9.820143700E0
1.545009501E1,4.163511395E-1,2.254039049E0,9.858428955E0
1.546009501E1,3.589234054E-1,2.258824587E0,9.915857315E0
1.547009501E1,2.536391914E-1,2.191825628E0,9.958928108E0
1.548009501E1,2.201396823E-1,2.196611166E0,9.997213364E0
1.549009501E1,1.435693651E-1,2.148754835E0,1.002114105E1
1.550009501E1,5.264209956E-2,2.115255117E0,9.982855797E0
1.551009501E1,-5.742774159E-2,2.153540373E0,9.662218094E0
1.552009501E1,2.871387079E-2,2.129612207E0,9.293723106E0
1.553009501E1,7.657032460E-2,2.096112728E0,8.882157326E0
1.554009501E1,2.249253243E-1,1.976471543E0,8.714659691E0
1.555009501E1,2.297109663E-1,1.856830359E0,8.700303078E0
1.556009501E1,7.178468257E-2,1.804188251E0,8.805587769E0
1.557009501E1,-4.785645381E-2,1.832902193E0,8.987442017E0
1.558009501E1,-7.657032460E-2,1.899901152E0,9.169296265E0
1.559009501E1,9.571290575E-3,1.952543259E0,9.279366493E0
1.560009501E1,1.052841991E-1,1.966900229E0,9.451649666E0
1.561009501E1,1.435693651E-1,2.009970903E0,9.700503349E0
1.562009501E1,1.531406492E-1,2.033899307E0,9.853643417E0
1.563009501E1,1.866401732E-1,2.024327993E0,9.930213928E0
1.564009501E1,2.440679073E-1,2.019542217E0,9.858428955E0
1.565009501E1,2.679961324E-1,2.009970903E0,9.628718376E0
1.566009501E1,2.823530734E-1,2.067398787E0,9.365508080E0
1.567009501E1,3.254238665E-1,2.115255117E0,9.040083885E0
1.568009501E1,3.158525825E-1,2.153540373E0,8.729017258E0
1.569009501E1,3.637090325E-1,2.120040894E0,8.566305161E0
1.570009501E1,4.211367965E-1,2.143969059E0,8.556734085E0
1.571009501E1,4.498506486E-1,2.191825628E0,8.671588898E0
1.572009501E1,4.977070987E-1,2.230110645E0,8.906085968E0
1.573009501E1,5.886343718E-1,2.206182480E0,9.188439369E0
1.574009501E1,6.269195080E-1,2.196611166E0,9.600004196E0
1.575009501E1,5.790630579E-1,2.143969059E0,9.958928108E0
1.576009501E1,4.737788737E-1,2.148754835E0,1.018385315E1
1.577009501E1,4.977070987E-1,2.129612207E0,1.032263660E1
1.578009501E1,4.737788737E-1,2.076970100E0,1.022213840E1
1.579009501E1,4.019941986E-1,2.177468538E0,1.004985523E1
1.580009501E1,4.211367965E-1,2.249253273E0,9.844072342E0
1.581009501E1,4.307080805E-1,2.282752752E0,9.432506561E0
1.582009501E1,4.307080805E-1,2.206182480E0,9.087940216E0
1.583009501E1,4.019941986E-1,2.172683001E0,8.939585686E0
1.584009501E1,4.067798555E-1,2.129612207E0,8.781659126E0
1.585009501E1,4.259224236E-1,2.081755638E0,8.800801277E0
1.586009501E1,5.072783828E-1,2.000399828E0,8.987442017E0
1.587009501E1,5.551348329E-1,1.933400750E0,9.198010445E0
1.588009501E1,5.359922647E-1,1.923829436E0,9.494720459E0
1.589009501E1,5.024927258E-1,1.885544300E0,9.772287369E0
1.590009501E1,5.264210105E-1,1.828116536E0,9.891928673E0
1.591009501E1,4.929214716E-1,1.828116536E0,1.004506969E1
1.592009501E1,4.354937077E-1,1.885544300E0,1.003549862E1
1.593009501E1,3.780659735E-1,1.962114573E0,9.911071777E0
1.594009501E1,3.637090325E-1,1.966900229E0,9.762716293E0
1.595009501E1,3.445664644E-1,1.966900229E0,9.513862610E0
1.596009501E1,2.823530734E-1,2.000399828E0,9.288937569E0
1.597009501E1,2.297109663E-1,2.067398787E0,9.164510727E0
1.598009501E1,2.488535494E-1,2.081755638E0,9.059226990E0
1.599009501E1,3.349951804E-1,2.053041935E0,8.987442017E0
1.600009501E1,4.402793646E-1,1.990828395E0,9.016156197E0
1.601009501E1,4.833501875E-1,2.009970903E0,9.126225471E0
1.602009501E1,5.694918036E-1,1.976471543E0,9.408578873E0
1.603009501E1,5.790630579E-1,1.933400750E0,9.738788605E0
1.604009501E1,5.503492355E-1,1.923829436E0,1.005942631E1
1.605009501E1,5.312066078E-1,1.952543259E0,1.034177971E1
1.606009501E1,4.737788737E-1,1.942971945E0,1.048056316E1
1.607009501E1,4.498506486E-1,1.957328916E0,1.054277611E1
1.608009501E1,5.312066078E-1,1.919043779E0,1.049970531E1
1.609009501E1,5.264210105E-1,1.962114573E0,1.039920712E1
1.610009501E1,5.838487148E-1,2.005185366E0,1.023170948E1
1.611009501E1,6.173482537E-1,2.019542217E0,1.002114105E1
1.612009501E1,6.843472719E-1,2.033899307E0,9.719645500E0
1.613009501E1,6.508477330E-1,2.033899307E0,9.466006279E0
1.614009501E1,5.934200287E-1,2.024327993E0,9.226723671E0
1.615009501E1,5.072783828E-1,1.986042738E0,9.016156197E0
1.616009501E1,4.737788737E-1,1.909472466E0,8.915657043E0
1.617009501E1,5.072783828E-1,1.808973908E0,8.834300995E0
1.618009501E1,5.312066078E-1,1.751546144E0,8.958727837E0
1.619009501E1,5.551348329E-1,1.703689694E0,9.154939651E0
1.620009501E1,5.264210105E-1,1.684547186E0,9.317651749E0
1.621009501E1,5.264210105E-1,1.665404558E0,9.518648148E0
1.622009501E1,5.838487148E-1,1.689332843E0,9.619147301E0
1.623009501E1,6.221339107E-1,1.703689694E0,9.547362328E0
1.624009501E1,5.503492355E-1,1.732403636E0,9.375079155E0
1.625009501E1,5.120640397E-1,1.761117458E0,9.111868858E0
1.626009501E1,5.455635786E-1,1.847259045E0,8.772088051E0
1.627009501E1,5.694918036E-1,1.852044702E0,8.571090698E0
1.628009501E1,5.647061467E-1,1.808973908E0,8.499305725E0
1.629009501E1,5.216353536E-1,1.789831281E0,8.556734085E0
1.630009501E1,5.168496966E-1,1.794616938E0,8.700303078E0
1.631009501E1,5.264210105E-1,1.818545222E0,8.901300430E0
1.632009501E1,5.120640397E-1,1.832902193E0,9.020941734E0
1.633009501E1,4.929214716E-1,1.780260086E0,9.174081802E0
1.634009501E1,4.163511395E-1,1.756331801E0,9.269794464E0
1.635009501E1,3.732803464E-1,1.789831281E0,9.399007797E0
1.636009501E1,4.211367965E-1,1.804188251E0,9.509077072E0
1.637009501E1,5.216353536E-1,1.756331801E0,9.480362892E0
1.638009501E1,6.364908218E-1,1.751546144E0,9.461220741E0
1.639009501E1,6.077769399E-1,1.804188251E0,9.379864693E0
1.640009501E1,5.455635786E-1,1.875972986E0,9.288937569E0
1.641009501E1,5.694918036E-1,1.866401672E0,9.231510162E0
1.642009501E1,5.790630579E-1,1.828116536E0,9.279366493E0
1.643009501E1,5.407779217E-1,1.794616938E0,9.346364975E0
1.644009501E1,4.402793646E-1,1.818545222E0,9.466006279E0
1.645009501E1,3.972085714E-1,1.866401672E0,9.628718376E0
1.646009501E1,3.828516304E-1,1.914258122E0,9.757930756E0
1.647009501E1,3.541377485E-1,1.914258122E0,9.810572624E0
1.648009501E1,2.727817893E-1,1.952543259E0,9.844072342E0
1.649009501E1,2.201396823E-1,1.995614052E0,9.848857880E0
1.650009501E1,2.392822653E-1,2.053041935E0,9.820143700E0
1.651009501E1,3.110669553E-1,2.043470621E0,9.753145218E0
1.652009501E1,3.637090325E-1,2.053041935E0,9.647860527E0
1.653009501E1,4.115654826E-1,2.024327993E0,9.604789734E0
1.654009501E1,5.264210105E-1,2.014756680E0,9.571290970E0
1.655009501E1,6.508477330E-1,1.981257200E0,9.561718941E0
1.656009501E1,7.178468108E-1,1.962114573E0,9.590433121E0
1.657009501E1,6.556333899E-1,1.938186288E0,9.676574707E0
1.658009501E1,5.599204898E-1,1.895115495E0,9.757930756E0
1.659009501E1,5.120640397E-1,1.847259045E0,9.815358162E0
1.660009501E1,5.216353536E-1,1.842473388E0,9.863214493E0
1.661009501E1,4.163511395E-1,1.890329838E0,9.839286804E0
1.662009501E1,3.445664644E-1,1.942971945E0,9.729216576E0
1.663009501E1,3.684946895E-1,1.966900229E0,9.542576790E0
1.664009501E1,4.642075896E-1,1.971685886E0,9.284152031E0
1.665009501E1,4.833501875E-1,1.966900229E0,9.150154114E0
1.666009501E1,4.259224236E-1,1.976471543E0,9.073583603E0
1.667009501E1,3.972085714E-1,2.000399828E0,9.020941734E0
1.668009501E1,4.402793646E-1,1.981257200E0,9.087940216E0
1.669009501E1,3.732803464E-1,1.966900229E0,9.154939651E0
1.670009501E1,2.823530734E-1,1.995614052E0,9.298508644E0
1.671009501E1,2.440679073E-1,2.057827473E0,9.365508080E0
1.672009501E1,2.440679073E-1,2.076970100E0,9.346364975E0
1.673009501E1,1.962114573E-1,2.115255117E0,9.265008926E0
1.674009501E1,1.148554832E-1,2.148754835E0,9.169296265E0
1.675009501E1,6.221338734E-2,2.177468538E0,9.016156197E0
1.676009501E1,9.092725813E-2,2.187039852E0,8.896514893E0
1.677009501E1,9.092725813E-2,2.191825628E0,8.819944382E0
1.678009501E1,1.339980662E-1,2.210968018E0,8.920442581E0
1.679009501E1,1.722832322E-1,2.249253273E0,8.973084450E0
1.680009501E1,1.148554832E-1,2.244467735E0,9.011369705E0
1.681009501E1,1.770688742E-1,2.254039049E0,9.198010445E0
1.682009501E1,2.440679073E-1,2.215753794E0,9.293723106E0
1.683009501E1,1.962114573E-1,2.239681959E0,9.288937569E0
1.684009501E1,1.148554832E-1,2.306680918E0,9.231510162E0
1.685009501E1,1.483550072E-1,2.292324066E0,9.035298347E0
1.686009501E1,2.057827413E-1,2.230110645E0,8.915657043E0
1.687009501E1,1.722832322E-1,2.110469580E0,8.977870941E0
1.688009501E1,1.674975902E-1,2.033899307E0,9.207581520E0
1.689009501E1,2.057827413E-1,2.033899307E0,9.552147865E0
1.690009501E1,1.962114573E-1,1.976471543E0,9.796216011E0
1.691009501E1,1.196411327E-1,1.923829436E0,1.004985523E1
1.692009501E1,1.052841991E-1,1.895115495E0,1.020299530E1
1.693009501E1,6.699903309E-2,1.914258122E0,1.030349445E1
1.694009501E1,-1.914258115E-2,1.928615093E0,1.026520920E1
1.695009501E1,-1.914258115E-2,1.923829436E0,1.014556789E1
1.696009501E1,4.785645381E-2,1.952543259E0,9.939785004E0
1.697009501E1,1.052841991E-1,1.986042738E0,9.757930756E0
1.698009501E1,1.818545163E-1,1.995614052E0,9.590433121E0
1.699009501E1,2.009970993E-1,2.067398787E0,9.652647018E0
1.700009501E1,2.105683982E-1,2.086541414E0,9.753145218E0
1.701009501E1,2.009970993E-1,2.062613010E0,9.911071777E0
1.702009501E1,2.440679073E-1,2.048256159E0,1.001156998E1
1.703009501E1,3.158525825E-1,2.043470621E0,1.002592659E1
1.704009501E1,2.440679073E-1,2.048256159E0,9.925428391E0
1.705009501E1,1.579262912E-1,2.062613010E0,9.738788605E0
1.706009501E1,2.919243574E-1,1.986042738E0,9.499505997E0
1.707009501E1,4.546363056E-1,1.919043779E0,9.375079155E0
1.708009501E1,5.455635786E-1,1.866401672E0,9.413364410E0
1.709009501E1,5.838487148E-1,1.890329838E0,9.561718941E0
1.710009501E1,6.077769399E-1,1.852044702E0,9.863214493E0
1.711009501E1,6.125625968E-1,1.808973908E0,1.013599682E1
1.712009501E1,4.642075896E-1,1.770688772E0,1.046142101E1
1.713009501E1,4.115654826E-1,1.780260086E0,1.063370419E1
1.714009501E1,3.924229145E-1,1.808973908E0,1.061456108E1
1.715009501E1,2.775674164E-1,1.808973908E0,1.036092186E1
1.716009501E1,3.972085714E-1,1.785045743E0,1.005942631E1
1.717009501E1,5.120640397E-1,1.741974831E0,9.643074989E0
1.718009501E1,4.546363056E-1,1.684547186E0,9.442078590E0
1.719009501E1,4.594219327E-1,1.612762451E0,9.360722542E0
1.720009501E1,5.599204898E-1,1.555334687E0,9.422935486E0
1.721009501E1,5.982056856E-1,1.493121386E0,9.528220177E0
1.722009501E1,6.029912829E-1,1.454836130E0,9.628718376E0
1.723009501E1,5.216353536E-1,1.488335729E0,9.662218094E0
1.724009501E1,4.259224236E-1,1.526620865E0,9.647860527E0
1.725009501E1,3.780659735E-1,1.540977836E0,9.585647583E0
1.726009501E1,3.637090325E-1,1.521835208E0,9.475577354E0
1.727009501E1,4.019941986E-1,1.517049551E0,9.384650230E0
1.728009501E1,4.354937077E-1,1.564906001E0,9.279366493E0
1.729009501E1,4.594219327E-1,1.617548108E0,9.097511292E0
1.730009501E1,4.833501875E-1,1.651047587E0,8.953942299E0
1.731009501E1,5.886343718E-1,1.741974831E0,8.709874153E0
1.732009501E1,6.364908218E-1,1.761117458E0,8.585447311E0
1.733009501E1,6.891329288E-1,1.780260086E0,8.547162056E0
1.734009501E1,7.274180651E-1,1.727617979E0,8.595019341E0
1.735009501E1,7.896314859E-1,1.674975872E0,8.767302513E0
1.736009501E1,7.944171429E-1,1.670190215E0,9.068798065E0
1.737009501E1,8.279166222E-1,1.684547186E0,9.365508080E0
1.738009501E1,8.757730722E-1,1.674975872E0,9.676574707E0
1.739009501E1,9.523434043E-1,1.641476393E0,9.848857880E0
1.740009501E1,9.858429432E-1,1.746760488E0,9.934999466E0
1.741009501E1,1.009771109E0,1.852044702E0,9.939785004E0
1.742009501E1,9.475577474E-1,1.837687731E0,9.930213928E0
1.743009501E1,8.614161611E-1,1.823330879E0,9.982855797E0
1.744009501E1,7.704889178E-1,1.832902193E0,9.911071777E0
1.745009501E1,6.460621357E-1,1.842473388E0,9.796216011E0
1.746009501E1,5.694918036E-1,1.914258122E0,9.647860527E0
1.747009501E1,5.264210105E-1,1.990828395E0,9.288937569E0
1.748009501E1,4.642075896E-1,2.100898266E0,8.819944382E0
1.749009501E1,4.977070987E-1,2.105684042E0,8.437092781E0
1.750009501E1,5.216353536E-1,2.110469580E0,8.130811691E0
1.751009501E1,4.881358147E-1,2.067398787E0,7.982456207E0
1.752009501E1,5.647061467E-1,2.000399828E0,8.030312538E0
1.753009501E1,6.843472719E-1,1.966900229E0,8.293522835E0
1.754009501E1,7.609176040E-1,1.962114573E0,8.772088051E0
1.755009501E1,8.327022791E-1,2.009970903E0,9.265008926E0
1.756009501E1,9.092726111E-1,2.024327993E0,9.633503914E0
1.757009501E1,9.284151793E-1,2.053041935E0,9.915857315E0
1.758009501E1,9.284151793E-1,2.115255117E0,1.000199890E1
1.759009501E1,8.183453679E-1,2.158325911E0,9.930213928E0
1.760009501E1,7.226324677E-1,2.115255117E0,9.714859962E0
1.761009501E1,6.173482537E-1,2.120040894E0,9.437292099E0
1.762009501E1,4.689932466E-1,2.191825628E0,9.126225471E0
1.763009501E1,3.637090325E-1,2.263610125E0,8.982656479E0
1.764009501E1,3.014956415E-1,2.287538528E0,8.930013657E0
1.765009501E1,2.584248483E-1,2.258824587E0,9.025727272E0
1.766009501E1,2.153540403E-1,2.225325108E0,9.260223389E0
1.767009501E1,1.914258152E-1,2.244467735E0,9.475577354E0
1.768009501E1,1.483550072E-1,2.301895380E0,9.643074989E0
1.769009501E1,1.196411327E-1,2.316252232E0,9.719645500E0
1.770009501E1,1.914258152E-1,2.316252232E0,9.753145218E0
1.771009501E1,1.866401732E-1,2.277967215E0,9.772287369E0
1.772009501E1,1.435693651E-1,2.191825628E0,9.891928673E0
1.773009501E1,1.866401732E-1,2.139183521E0,1.008814049E1
1.774009501E1,2.727817893E-1,2.129612207E0,1.031306553E1
1.775009501E1,3.589234054E-1,2.115255117E0,1.053320503E1
1.776009501E1,4.354937077E-1,2.134397745E0,1.080120182E1
1.777009501E1,4.163511395E-1,2.124826431E0,1.090648556E1
1.778009501E1,3.589234054E-1,2.048256159E0,1.100219822E1
1.779009501E1,2.919243574E-1,1.957328916E0,1.101177025E1
1.780009501E1,2.679961324E-1,1.856830359E0,1.103569794E1
1.781009501E1,2.536391914E-1,1.852044702E0,1.099262714E1
1.782009501E1,2.727817893E-1,1.842473388E0,1.089212894E1
1.783009501E1,3.014956415E-1,1.832902193E0,1.064327526E1
1.784009501E1,2.679961324E-1,1.842473388E0,1.044706345E1
1.785009501E1,2.153540403E-1,1.842473388E0,1.014078236E1
1.786009501E1,2.153540403E-1,1.852044702E0,9.949356079E0
1.787009501E1,2.297109663E-1,1.885544300E0,9.705288887E0
1.788009501E1,2.632105052E-1,1.895115495E0,9.475577354E0
1.789009501E1,2.919243574E-1,1.919043779E0,9.298508644E0
1.790009501E1,4.450650215E-1,1.909472466E0,9.150154114E0
1.791009501E1,5.312066078E-1,1.938186288E0,9.078369141E0
1.792009501E1,6.843472719E-1,1.919043779E0,9.054440498E0
1.793009501E1,8.087740541E-1,1.885544300E0,9.111868858E0
1.794009501E1,9.236295223E-1,1.808973908E0,9.322437286E0
1.795009501E1,8.614161611E-1,1.761117458E0,9.552147865E0
1.796009501E1,8.805587292E-1,1.770688772E0,9.714859962E0
1.797009501E1,8.470591903E-1,1.789831281E0,9.868000984E0
1.798009501E1,7.848458290E-1,1.823330879E0,9.958928108E0
1.799009501E1,6.795616150E-1,1.875972986E0,9.915857315E0
1.800009501E1,6.077769399E-1,1.938186288E0,9.748359680E0
1.801009501E1,6.221339107E-1,1.947757602E0,9.480362892E0
1.802009501E1,6.891329288E-1,1.976471543E0,9.145368576E0
1.803009501E1,6.699903607E-1,1.995614052E0,8.997013092E0
1.804009501E1,6.317051649E-1,1.942971945E0,8.920442581E0
1.805009501E1,6.652047038E-1,1.909472466E0,8.987442017E0
1.806009501E1,6.843472719E-1,1.837687731E0,9.083154678E0
1.807009501E1,6.843472719E-1,1.761117458E0,9.188439369E0
1.808009501E1,7.657032609E-1,1.818545222E0,9.312865257E0
1.809009501E1,8.374879360E-1,1.866401672E0,9.413364410E0
1.810009501E1,8.231309652E-1,1.808973908E0,9.533005714E0
1.811009501E1,6.652047038E-1,1.761117458E0,9.700503349E0
1.812009501E1,4.642075896E-1,1.799402595E0,9.829715729E0
1.813009501E1,3.110669553E-1,1.823330879E0,9.877572060E0
1.814009501E1,1.531406492E-1,1.904686809E0,9.805787086E0
1.815009501E1,9.571290761E-2,2.000399828E0,9.623932838E0
1.816009501E1,4.785645287E-3,2.120040894E0,9.288937569E0
1.817009501E1,0.000000000E0,2.134397745E0,9.020941734E0
1.818009501E1,-4.307080805E-2,2.105684042E0,8.738588333E0
1.819009501E1,9.571290575E-3,2.038684845E0,8.561519623E0
1.820009501E1,1.435693651E-1,1.899901152E0,8.374878883E0
1.821009501E1,2.201396823E-1,1.866401672E0,8.283951759E0
1.822009501E1,3.014956415E-1,1.890329838E0,8.408378601E0
1.823009501E1,3.876372576E-1,1.904686809E0,8.695517540E0
1.824009501E1,3.924229145E-1,1.866401672E0,9.044869423E0
1.825009501E1,2.679961324E-1,1.828116536E0,9.556933403E0
1.826009501E1,1.579262912E-1,1.799402595E0,9.949356079E0
1.827009501E1,1.722832322E-1,1.823330879E0,1.026999474E1
1.828009501E1,2.009970993E-1,1.919043779E0,1.041835022E1
1.829009501E1,2.057827413E-1,2.000399828E0,1.051406288E1
1.830009501E1,3.397808075E-1,1.966900229E0,1.050927734E1
1.831009501E1,4.211367965E-1,1.856830359E0,1.044227791E1
1.832009501E1,4.977070987E-1,1.785045743E0,1.020299530E1
1.833009501E1,5.407779217E-1,1.775474429E0,9.887143135E0
1.834009501E1,5.790630579E-1,1.823330879E0,9.451649666E0
1.835009501E1,5.455635786E-1,1.852044702E0,9.102297783E0
1.836009501E1,3.684946895E-1,1.861616015E0,8.791230202E0
1.837009501E1,2.009970993E-1,1.852044702E0,8.623732567E0
1.838009501E1,1.914258152E-1,1.847259045E0,8.676374435E0
1.839009501E1,3.397808075E-1,1.837687731E0,8.796015739E0
1.840009501E1,4.833501875E-1,1.832902193E0,8.920442581E0
1.841009501E1,6.221339107E-1,1.852044702E0,9.145368576E0
1.842009501E1,7.274180651E-1,1.899901152E0,9.365508080E0
1.843009501E1,8.853443861E-1,1.885544300E0,9.595218658E0
1.844009501E1,9.236295223E-1,1.789831281E0,9.829715729E0
1.845009501E1,9.379864931E-1,1.770688772E0,9.968499184E0
1.846009501E1,9.284151793E-1,1.756331801E0,9.934999466E0
1.847009501E1,8.805587292E-1,1.785045743E0,9.786644936E0
1.848009501E1,8.183453679E-1,1.837687731E0,9.513862610E0
1.849009501E1,7.752745152E-1,1.871187329E0,9.217152596E0
1.850009501E1,7.657032609E-1,1.880758643E0,8.858229637E0
1.851009501E1,7.417750359E-1,1.909472466E0,8.547162056E0
1.852009501E1,7.800601721E-1,1.942971945E0,8.422736168E0
1.853009501E1,8.518448472E-1,1.899901152E0,8.374878883E0
1.854009501E1,8.805587292E-1,1.828116536E0,8.523234367E0
1.855009501E1,8.757730722E-1,1.818545222E0,8.872586250E0
1.856009501E1,7.896314859E-1,1.852044702E0,9.245866776E0
1.857009501E1,6.939185858E-1,1.842473388E0,9.690931320E0
1.858009501E1,6.460621357E-1,1.842473388E0,9.997213364E0
1.859009501E1,6.077769399E-1,1.880758643E0,1.012164021E1
1.860009501E1,6.412764788E-1,1.966900229E0,1.002592659E1
1.861009501E1,6.412764788E-1,2.038684845E0,9.863214493E0
1.862009501E1,5.982056856E-1,2.057827473E0,9.619147301E0
1.863009501E1,5.407779217E-1,2.024327993E0,9.437292099E0
1.864009501E1,4.881358147E-1,1.962114573E0,9.422935486E0
1.865009501E1,5.838487148E-1,1.885544300E0,9.547362328E0
1.866009501E1,4.833501875E-1,1.938186288E0,9.652647018E0
1.867009501E1,4.067798555E-1,2.024327993E0,9.958928108E0
1.868009501E1,4.689932466E-1,2.005185366E0,1.024128056E1
1.869009501E1,4.067798555E-1,1.933400750E0,1.055234814E1
1.870009501E1,2.488535494E-1,1.928615093E0,1.075334454E1
1.871009501E1,1.148554832E-1,1.976471543E0,1.083948612E1
1.872009501E1,1.387837082E-1,2.024327993E0,1.065284634E1
1.873009501E1,2.344966233E-1,2.072184324E0,1.036092186E1
1.874009501E1,3.110669553E-1,2.148754835E0,9.978070259E0
1.875009501E1,2.727817893E-1,2.153540373E0,9.690931320E0
1.876009501E1,2.727817893E-1,2.115255117E0,9.422935486E0
1.877009501E1,2.967100143E-1,2.057827473E0,9.370293617E0
1.878009501E1,2.632105052E-1,2.043470621E0,9.413364410E0
1.879009501E1,1.866401732E-1,2.129612207E0,9.547362328E0
1.880009501E1,1.914258152E-1,2.172683001E0,9.633503914E0
1.881009501E1,2.057827413E-1,2.167897224E0,9.738788605E0
1.882009501E1,1.531406492E-1,2.120040894E0,9.762716293E0
1.883009501E1,1.148554832E-1,2.076970100E0,9.762716293E0
1.884009501E1,1.435693651E-1,2.029113531E0,9.638289452E0
1.885009501E1,2.344966233E-1,2.038684845E0,9.341579437E0
1.886009501E1,3.062812984E-1,2.081755638E0,8.987442017E0
1.887009501E1,2.584248483E-1,2.005185366E0,8.757730484E0
1.888009501E1,1.483550072E-1,1.923829436E0,8.748159409E0
1.889009501E1,4.307080805E-2,1.909472466E0,8.824729919E0
1.890009501E1,3.349951655E-2,1.947757602E0,8.882157326E0
1.891009501E1,9.571290761E-2,2.019542217E0,8.901300430E0
1.892009501E1,2.392822653E-1,2.072184324E0,8.977870941E0
1.893009501E1,3.206382394E-1,1.928615093E0,9.102297783E0
1.894009501E1,3.062812984E-1,1.808973908E0,9.255437851E0
1.895009501E1,3.206382394E-1,1.741974831E0,9.293723106E0
1.896009501E1,4.929214716E-1,1.808973908E0,9.116654396E0
1.897009501E1,7.226324677E-1,1.895115495E0,8.920442581E0
1.898009501E1,7.609176040E-1,1.868794441E0,8.889336586E0
1.899009501E1,7.202396393E-1,1.722832322E0,9.181260109E0
1.900009501E1,5.288137794E-1,1.550549030E0,9.724431038E0
1.901009501E1,2.847459018E-1,1.464407444E0,1.026042366E1
1.902009501E1,-8.853443712E-2,1.572084427E0,1.069591713E1
1.903009501E1,-2.727817893E-1,1.794616938E0,1.054756260E1
1.904009501E1,-7.178468257E-2,2.012363911E0,9.956535339E0
1.905009501E1,2.871387303E-1,2.045863390E0,9.583254814E0
1.906009501E1,4.857429862E-1,1.811366796E0,9.320044518E0
1.907009501E1,4.235295951E-1,1.438086390E0,9.332008362E0
1.908009501E1,2.344966233E-1,1.323230863E0,9.468399048E0
1.909009501E1,1.818545163E-1,1.363908887E0,9.635896683E0
1.910009501E1,2.560320199E-1,1.526620865E0,9.662218094E0
1.911009501E1,3.732803464E-1,1.674975872E0,9.820143700E0
1.912009501E1,2.440679073E-1,1.722832322E0,9.990034103E0
1.913009501E1,7.178467698E-3,1.674975872E0,1.012164021E1
1.914009501E1,-1.674975902E-1,1.507478237E0,1.021256733E1
1.915009501E1,-9.332008660E-2,1.445264935E0,1.015274620E1
1.916009501E1,2.009970993E-1,1.505085468E0,9.937392235E0
1.917009501E1,4.953143001E-1,1.564906001E0,9.678967476E0
1.918009501E1,6.915257573E-1,1.612762451E0,9.420542717E0
1.919009501E1,7.345965505E-1,1.519442320E0,9.410971642E0
1.920009501E1,6.197410822E-1,1.404586911E0,9.482755661E0
1.921009501E1,3.589234054E-1,1.349551916E0,9.592825890E0
1.922009501E1,2.273181528E-1,1.442872047E0,9.638289452E0
1.923009501E1,2.608176768E-1,1.598405480E0,9.559326172E0
1.924009501E1,2.177468538E-1,1.698904037E0,9.418149948E0
1.925009501E1,2.057827413E-1,1.739582062E0,9.322437286E0
1.926009501E1,2.464607358E-1,1.653440475E0,9.205188751E0
1.927009501E1,3.326023519E-1,1.574477315E0,9.202795982E0
1.928009501E1,4.642075896E-1,1.598405480E0,9.236295700E0
1.929009501E1,4.929214716E-1,1.655833244E0,9.255437851E0
1.930009501E1,5.934200287E-1,1.780260086E0,9.159725189E0
1.931009501E1,6.412764788E-1,1.770688772E0,9.044869423E0
1.932009501E1,6.556333899E-1,1.765903115E0,8.920442581E0
1.933009501E1,6.508477330E-1,1.761117458E0,8.829515457E0
1.934009501E1,6.269195080E-1,1.770688772E0,8.863015175E0
1.935009501E1,4.929214716E-1,1.861616015E0,8.819944382E0
1.936009501E1,5.024927258E-1,1.890329838E0,8.781659126E0
1.937009501E1,5.838487148E-1,1.880758643E0,8.743373871E0
1.938009501E1,6.747759581E-1,1.861616015E0,8.681160927E0
1.939009501E1,7.657032609E-1,1.947757602E0,8.714659691E0
1.940009501E1,8.709874153E-1,1.966900229E0,8.915657043E0
1.941009501E1,9.332008362E-1,1.933400750E0,9.135796547E0
1.942009501E1,9.379864931E-1,1.885544300E0,9.427721024E0
1.943009501E1,8.422735929E-1,1.861616015E0,9.533005714E0
1.944009501E1,5.982056856E-1,1.880758643E0,9.571290970E0
1.945009501E1,3.062812984E-1,2.000399828E0,9.576076508E0
1.946009501E1,2.727817893E-1,2.009970903E0,9.365508080E0
1.947009501E1,3.397808075E-1,1.890329838E0,8.992227554E0
1.948009501E1,4.019941986E-1,1.837687731E0,8.676374435E0
1.949009501E1,3.924229145E-1,1.871187329E0,8.327022552E0
1.950009501E1,2.584248483E-1,1.875972986E0,8.250452042E0
1.951009501E1,6.699903309E-2,1.871187329E0,8.590232849E0
1.952009501E1,-1.052841991E-1,1.832902193E0,9.068798065E0
1.953009501E1,-1.244267747E-1,1.751546144E0,9.767501831E0
1.954009501E1,-7.178468257E-2,1.741974831E0,1.022692394E1
1.955009501E1,-1.674975902E-1,1.852044702E0,1.040399265E1
1.956009501E1,-2.823530734E-1,1.923829436E0,1.059063339E1
1.957009501E1,-2.632105052E-1,1.880758643E0,1.071506023E1
1.958009501E1,-4.211367965E-1,1.818545222E0,1.082512951E1
1.959009501E1,-5.551348329E-1,1.799402595E0,1.073420238E1
1.960009501E1,-4.402793646E-1,1.765903115E0,1.051884842E1
1.961009501E1,-1.483550072E-1,1.660618901E0,1.030827999E1
1.962009501E1,4.785645287E-3,1.665404558E0,1.028435135E1
1.963009501E1,-5.264209956E-2,1.670190215E0,1.053799057E1
1.964009501E1,-1.579262912E-1,1.607976794E0,1.082034397E1
1.965009501E1,-1.196411327E-1,1.368694544E0,1.120319557E1
1.966009501E1,8.135596663E-2,1.249053478E0,1.149033451E1
1.967009501E1,3.732803464E-1,1.344766378E0,1.163390350E1
1.968009501E1,4.402793646E-1,1.540977836E0,1.146162033E1
1.969009501E1,2.392822653E-1,1.560120344E0,1.130369377E1
1.970009501E1,-5.742774159E-2,1.378265858E0,1.103091240E1
1.971009501E1,-2.392822653E-1,1.201196909E0,1.074377346E1
1.972009501E1,-2.201396823E-1,1.105484009E0,1.043270683E1
1.973009501E1,-6.221338734E-2,1.229910851E0,1.018863869E1
1.974009501E1,1.196411327E-1,1.354337573E0,9.882357597E0
1.975009501E1,1.962114573E-1,1.292124271E0,9.604789734E0
1.976009501E1,2.392822653E-1,1.210768223E0,9.480362892E0
1.977009501E1,2.392822653E-1,1.138983607E0,9.399007797E0
1.978009501E1,2.297109663E-1,1.124626637E0,9.293723106E0
1.979009501E1,3.445664644E-1,1.067198873E0,9.260223389E0
1.980009501E1,3.972085714E-1,1.086341500E0,9.221938133E0
1.981009501E1,5.120640397E-1,1.134197950E0,9.241081238E0
1.982009501E1,5.647061467E-1,1.234696507E0,9.193224907E0
1.983009501E1,5.742774606E-1,1.225125194E0,9.150154114E0
1.984009501E1,5.742774606E-1,1.172483087E0,9.193224907E0
1.985009501E1,5.503492355E-1,1.153340459E0,9.207581520E0
1.986009501E1,5.551348329E-1,1.258624673E0,9.159725189E0
1.987009501E1,5.264210105E-1,1.320838094E0,9.064012527E0
1.988009501E1,4.642075896E-1,1.383051515E0,8.901300430E0
1.989009501E1,4.546363056E-1,1.421336651E0,8.762516975E0
1.990009501E1,3.684946895E-1,1.416550994E0,8.685946465E0
1.991009501E1,2.919243574E-1,1.421336651E0,8.542376518E0
1.992009501E1,3.302095234E-1,1.416550994E0,8.456234932E0
1.993009501E1,3.972085714E-1,1.454836130E0,8.379665375E0
1.994009501E1,3.828516304E-1,1.488335729E0,8.283951759E0
1.995009501E1,3.349951804E-1,1.473978758E0,8.145168304E0
1.996009501E1,3.206382394E-1,1.497906923E0,8.063812256E0
1.997009501E1,3.206382394E-1,1.512263894E0,7.982456207E0
1.998009501E1,3.254238665E-1,1.531406522E0,8.015955925E0
1.999009501E1,3.397808075E-1,1.526620865E0,8.116454124E0
2.000009501E1,3.158525825E-1,1.536192179E0,8.322237015E0
2.001009501E1,3.254238665E-1,1.584048629E0,8.513663292E0
2.002009501E1,3.302095234E-1,1.636690736E0,8.752944946E0
2.003009501E1,2.967100143E-1,1.641476393E0,8.973084450E0
2.004009501E1,3.062812984E-1,1.627119422E0,9.154939651E0
2.005009501E1,2.440679073E-1,1.660618901E0,9.375079155E0
2.006009501E1,1.483550072E-1,1.727617979E0,9.499505997E0
2.007009501E1,5.264209956E-2,1.785045743E0,9.633503914E0
2.008009501E1,4.785645287E-3,1.823330879E0,9.719645500E0
2.009009501E1,-1.339980662E-1,1.832902193E0,9.796216011E0
2.010009501E1,-2.967100143E-1,1.765903115E0,9.887143135E0
2.011009501E1,-3.110669553E-1,1.789831281E0,9.987641335E0
2.012009501E1,-2.057827413E-1,1.828116536E0,1.009292603E1
2.013009501E1,-2.153540403E-1,1.785045743E0,1.010728264E1
2.014009501E1,-2.632105052E-1,1.737189293E0,1.018385315E1
2.015009501E1,-3.110669553E-1,1.718046665E0,1.022692394E1
2.016009501E1,-3.924229145E-1,1.622333765E0,1.026999474E1
2.017009501E1,-4.354937077E-1,1.579262972E0,1.030827999E1
2.018009501E1,-4.642075896E-1,1.545763373E0,1.033699417E1
2.019009501E1,-4.977070987E-1,1.483550072E0,1.037049294E1
2.020009501E1,-5.359922647E-1,1.454836130E0,1.040399265E1
2.021009501E1,-4.977070987E-1,1.392622828E0,1.040399265E1
2.022009501E1,-4.689932466E-1,1.387837172E0,1.036570740E1
2.023009501E1,-3.445664644E-1,1.339980721E0,1.036092186E1
2.024009501E1,-2.632105052E-1,1.344766378E0,1.039920712E1
2.025009501E1,-2.057827413E-1,1.359123230E0,1.047577763E1
2.026009501E1,-2.153540403E-1,1.311266780E0,1.053320503E1
2.027009501E1,-1.244267747E-1,1.292124271E0,1.070070267E1
2.028009501E1,3.828516230E-2,1.363908887E0,1.092562866E1
2.029009501E1,1.052841991E-1,1.454836130E0,1.099262714E1
2.030009501E1,1.004985496E-1,1.488335729E0,1.087298584E1
2.031009501E1,1.004985496E-1,1.483550072E0,1.059541893E1
2.032009501E1,9.571290761E-2,1.478764415E0,1.030827999E1
2.033009501E1,9.571290761E-2,1.497906923E0,9.944570541E0
2.034009501E1,1.100698411E-1,1.473978758E0,9.652647018E0
2.035009501E1,1.387837082E-1,1.459621787E0,9.413364410E0
2.036009501E1,1.627119333E-1,1.464407444E0,9.322437286E0
2.037009501E1,1.722832322E-1,1.493121386E0,9.308079720E0
2.038009501E1,1.818545163E-1,1.430907965E0,9.418149948E0
2.039009501E1,2.009970993E-1,1.397408366E0,9.537791252E0
2.040009501E1,2.488535494E-1,1.349551916E0,9.695717812E0
2.041009501E1,2.727817893E-1,1.344766378E0,9.767501831E0
2.042009501E1,3.158525825E-1,1.368694544E0,9.824930191E0
2.043009501E1,3.302095234E-1,1.359123230E0,9.777072906E0
2.044009501E1,3.302095234E-1,1.335195065E0,9.638289452E0
2.045009501E1,3.302095234E-1,1.272981644E0,9.403793335E0
2.046009501E1,2.919243574E-1,1.249053478E0,9.207581520E0
2.047009501E1,2.201396823E-1,1.311266780E0,8.949156761E0
2.048009501E1,2.679961324E-1,1.344766378E0,8.762516975E0
2.049009501E1,3.302095234E-1,1.306481123E0,8.585447311E0
2.050009501E1,3.541377485E-1,1.244267821E0,8.494520187E0
2.051009501E1,3.876372576E-1,1.186840057E0,8.508877754E0
2.052009501E1,3.684946895E-1,1.201196909E0,8.585447311E0
2.053009501E1,3.397808075E-1,1.182054400E0,8.647661209E0
2.054009501E1,3.780659735E-1,1.162911773E0,8.738588333E0
2.055009501E1,3.014956415E-1,1.124626637E0,8.805587769E0
2.056009501E1,1.148554832E-1,1.119840980E0,8.819944382E0
2.057009501E1,-5.742774159E-2,1.148554921E0,8.781659126E0
2.058009501E1,-5.264209956E-2,1.124626637E0,8.647661209E0
2.059009501E1,-6.221338734E-2,1.182054400E0,8.561519623E0
2.060009501E1,-3.828516230E-2,1.225125194E0,8.523234367E0
2.061009501E1,-9.571290575E-3,1.249053478E0,8.528019905E0
2.062009501E1,3.828516230E-2,1.263410330E0,8.638090134E0
2.063009501E1,7.178468257E-2,1.349551916E0,8.843872070E0
2.064009501E1,8.135596663E-2,1.411765337E0,9.097511292E0
2.065009501E1,2.392822690E-2,1.450050473E0,9.442078590E0
2.066009501E1,4.785645287E-3,1.421336651E0,9.815358162E0
2.067009501E1,3.349951655E-2,1.430907965E0,1.007378292E1
2.068009501E1,-2.392822690E-2,1.493121386E0,1.034177971E1
2.069009501E1,-9.092725813E-2,1.550549030E0,1.046142101E1
2.070009501E1,-1.435693540E-2,1.612762451E0,1.058106136E1
2.071009501E1,-4.307080805E-2,1.655833244E0,1.061934662E1
2.072009501E1,-1.435693540E-2,1.660618901E0,1.055234814E1
2.073009501E1,4.785645287E-3,1.698904037E0,1.047577763E1
2.074009501E1,-1.914258115E-2,1.679761529E0,1.034177971E1
2.075009501E1,4.785645287E-3,1.665404558E0,1.017906761E1
2.076009501E1,1.148554832E-1,1.574477315E0,1.006421185E1
2.077009501E1,1.627119333E-1,1.521835208E0,1.000199890E1
2.078009501E1,1.579262912E-1,1.478764415E0,9.992427826E0
2.079009501E1,2.249253243E-1,1.430907965E0,1.002114105E1
2.080009501E1,3.684946895E-1,1.493121386E0,1.011206818E1
2.081009501E1,4.019941986E-1,1.526620865E0,1.018385315E1
2.082009501E1,3.110669553E-1,1.545763373E0,1.020778179E1
2.083009501E1,2.057827413E-1,1.517049551E0,1.018863869E1
2.084009501E1,1.435693651E-1,1.521835208E0,1.014078236E1
2.085009501E1,6.699903309E-2,1.469193101E0,1.012642574E1
2.086009501E1,-5.264209956E-2,1.416550994E0,1.017906761E1
2.087009501E1,-2.679961324E-1,1.330409408E0,1.021256733E1
2.088009501E1,-3.924229145E-1,1.277767301E0,1.016471100E1
2.089009501E1,-4.546363056E-1,1.335195065E0,1.007856941E1
2.090009501E1,-4.307080805E-1,1.392622828E0,9.901499748E0
2.091009501E1,-3.828516304E-1,1.464407444E0,9.585647583E0
2.092009501E1,-4.211367965E-1,1.459621787E0,9.336793900E0
2.093009501E1,-4.307080805E-1,1.450050473E0,9.198010445E0
2.094009501E1,-4.307080805E-1,1.464407444E0,9.059226990E0
2.095009501E1,-3.637090325E-1,1.406979680E0,8.987442017E0
2.096009501E1,-2.632105052E-1,1.363908887E0,8.915657043E0
2.097009501E1,-1.674975902E-1,1.330409408E0,8.949156761E0
2.098009501E1,4.785645381E-2,1.325623751E0,8.997013092E0
2.099009501E1,1.770688742E-1,1.373480201E0,9.159725189E0
2.100009501E1,2.584248483E-1,1.378265858E0,9.255437851E0
2.101009501E1,3.206382394E-1,1.330409408E0,9.322437286E0
2.102009501E1,3.397808075E-1,1.335195065E0,9.298508644E0
2.103009501E1,3.302095234E-1,1.359123230E0,9.245866776E0
2.104009501E1,3.062812984E-1,1.411765337E0,9.154939651E0
2.105009501E1,2.679961324E-1,1.459621787E0,9.025727272E0
