"Time (s)","Gyroscope x (rad/s)","Gyroscope y (rad/s)","Gyroscope z (rad/s)"
2.998131300E-2,-1.101083755E-1,-2.054032832E-1,1.481347065E-2
3.998131300E-2,-1.272125840E-1,-1.980729103E-1,1.847865991E-2
4.998131300E-2,-1.357647032E-1,-1.870773435E-1,1.970038936E-2
5.998131300E-2,-1.369864196E-1,-1.736383140E-1,1.970038936E-2
6.998131300E-2,-1.320995092E-1,-1.626427472E-1,2.214384824E-2
7.998131300E-2,-1.198822111E-1,-1.626427472E-1,2.458730713E-2
8.998131300E-2,-1.027780026E-1,-1.663079411E-1,2.703076601E-2
9.998131300E-2,-8.811724186E-2,-1.650862098E-1,2.825249545E-2
1.099813130E-1,-7.223475724E-2,-1.638644785E-1,3.558287397E-2
1.199813130E-1,-6.979130208E-2,-1.601992846E-1,3.191768378E-2
1.299813130E-1,-7.956513762E-2,-1.443168074E-1,2.214384824E-2
1.399813130E-1,-8.567378670E-2,-1.296560466E-1,2.092211880E-2
1.499813130E-1,-8.689551800E-2,-1.174387559E-1,1.970038936E-2
1.599813130E-1,-9.300415963E-2,-1.076649204E-1,1.847865991E-2
1.699813130E-1,-1.052214578E-1,-1.027780026E-1,2.336557768E-2
1.799813130E-1,-1.162170246E-1,-1.101083755E-1,3.680460155E-2
1.899813130E-1,-1.211039424E-1,-1.235474050E-1,4.535670951E-2
1.999813130E-1,-1.284343153E-1,-1.284343153E-1,8.078686893E-2
2.099813130E-1,-1.137735620E-1,-1.626427472E-1,9.544762224E-2
2.199813130E-1,-9.300415963E-2,-1.760817766E-1,1.149952933E-1
2.299813130E-1,-7.712167501E-2,-1.638644785E-1,1.125518382E-1
2.399813130E-1,-8.323032409E-2,-1.565341055E-1,9.544762224E-2
2.499813130E-1,-1.039997265E-1,-1.504254490E-1,6.856957078E-2
2.599813130E-1,-1.259908676E-1,-1.492037177E-1,5.268708616E-2
2.699813130E-1,-1.430950761E-1,-1.724165827E-1,5.024362728E-2
2.799813130E-1,-1.553123742E-1,-1.968511790E-1,6.490438432E-2
2.899813130E-1,-1.736383140E-1,-2.090684772E-1,7.956513762E-2
2.999813130E-1,-1.821904182E-1,-2.005163580E-1,9.056070447E-2
3.099813130E-1,-1.748600453E-1,-1.821904182E-1,1.064431891E-1
3.199813130E-1,-1.528689116E-1,-1.601992846E-1,1.333212405E-1
3.299813130E-1,-1.198822111E-1,-1.455385387E-1,1.492037177E-1
3.399813130E-1,-7.834340632E-2,-1.284343153E-1,1.492037177E-1
3.499813130E-1,-5.879573524E-2,-9.422589093E-2,1.235474050E-1
3.599813130E-1,-5.146535859E-2,-4.169152305E-2,8.323032409E-2
3.699813130E-1,-5.146535859E-2,-1.359174121E-2,4.413498193E-2
3.799813130E-1,-5.757400393E-2,-5.039634649E-3,2.703076601E-2
3.899813130E-1,-6.246092543E-2,-7.483093534E-3,2.336557768E-2
3.999813130E-1,-6.001746282E-2,-1.481347065E-2,2.825249545E-2
4.099813130E-1,-6.001746282E-2,-2.092211880E-2,4.535670951E-2
4.199813130E-1,-6.368265301E-2,-2.092211880E-2,6.123919412E-2
4.299813130E-1,-7.223475724E-2,-2.214384824E-2,7.712167501E-2
4.399813130E-1,-8.445205539E-2,-1.603520103E-2,7.101303339E-2
4.499813130E-1,-9.178243577E-2,-1.481347065E-2,5.513054505E-2
4.599813130E-1,-1.027780026E-1,-3.313941509E-2,3.191768378E-2
4.699813130E-1,-1.113301069E-1,-5.513054505E-2,1.847865991E-2
4.799813130E-1,-1.149952933E-1,-6.856957078E-2,3.817904973E-3
4.899813130E-1,-1.101083755E-1,-5.879573524E-2,-9.621120058E-3
4.999813130E-1,-9.789107740E-2,-2.947422490E-2,-1.695149764E-2
5.099813130E-1,-7.101303339E-2,-7.483093534E-3,-1.450803876E-2
5.199813130E-1,-4.657844082E-2,3.512472380E-3,-1.206457894E-2
5.299813130E-1,-1.970038936E-2,7.177661173E-3,-1.328630932E-2
5.399813130E-1,-1.374445739E-3,8.399390616E-3,-4.734201822E-3
5.499813130E-1,7.177661173E-3,-1.374445739E-3,2.092211880E-2
5.599813130E-1,-2.596175298E-3,-1.970038936E-2,3.436114267E-2
5.699813130E-1,-2.825249545E-2,-4.902189970E-2,3.802633286E-2
5.799813130E-1,-6.246092543E-2,-5.390881747E-2,2.580903657E-2
5.899813130E-1,-8.567378670E-2,-4.535670951E-2,1.237001177E-2
5.999813130E-1,-1.064431891E-1,-4.046979174E-2,2.596175298E-3
6.099813130E-1,-1.064431891E-1,-4.657844082E-2,-7.177661173E-3
6.199813130E-1,-9.666935354E-2,-4.535670951E-2,-1.572976820E-2
6.299813130E-1,-8.445205539E-2,-3.069595434E-2,-5.955931731E-3
6.399813130E-1,-6.612611562E-2,-1.359174121E-2,2.336557768E-2
6.499813130E-1,-5.268708616E-2,-1.374445739E-3,4.169152305E-2
6.599813130E-1,-5.146535859E-2,1.450803876E-2,4.657844082E-2
6.699813130E-1,-6.001746282E-2,3.772090003E-2,4.657844082E-2
6.799813130E-1,-6.734783947E-2,4.871646687E-2,4.169152305E-2
6.899813130E-1,-8.323032409E-2,5.115992576E-2,4.169152305E-2
6.999813130E-1,-9.056070447E-2,3.894263133E-2,4.046979174E-2
7.099813130E-1,-1.027780026E-1,2.061668597E-2,5.757400393E-2
7.199813130E-1,-1.149952933E-1,-1.527161949E-4,7.467821985E-2
7.299813130E-1,-1.247691289E-1,1.069013379E-3,8.689551800E-2
7.399813130E-1,-1.345429718E-1,2.550360374E-2,1.039997265E-1
7.499813130E-1,-1.382081509E-1,4.627300799E-2,1.162170246E-1
7.599813130E-1,-1.418733448E-1,8.292489499E-2,1.430950761E-1
7.699813130E-1,-1.369864196E-1,1.012508348E-1,1.724165827E-1
7.799813130E-1,-1.492037177E-1,1.354592592E-1,2.200640440E-1
7.899813130E-1,-1.565341055E-1,1.342375278E-1,2.664897740E-1
7.999813130E-1,-1.675296724E-1,1.207985133E-1,3.129154742E-1
8.099813130E-1,-1.834121495E-1,1.122464016E-1,3.813323379E-1
8.199813130E-1,-1.895207912E-1,1.073594838E-1,4.338667095E-1
8.299813130E-1,-1.907425225E-1,1.085812151E-1,4.790706933E-1
8.399813130E-1,-1.992946416E-1,1.293506175E-1,4.973966479E-1
8.499813130E-1,-2.249509543E-1,1.660024971E-1,5.059487820E-1
8.599813130E-1,-2.554942071E-1,1.757763475E-1,5.059487820E-1
8.699813130E-1,-2.762635946E-1,1.598938555E-1,5.035052896E-1
8.799813130E-1,-3.031416535E-1,1.244636998E-1,5.022835732E-1
8.899813130E-1,-3.263545036E-1,9.269873053E-2,5.083922148E-1
8.999813130E-1,-3.593412042E-1,5.849030241E-2,5.291616321E-1
9.099813130E-1,-3.764454126E-1,2.672533318E-2,5.462658405E-1
9.199813130E-1,-3.776671588E-1,-2.703076601E-2,5.682569742E-1
9.299813130E-1,-3.568977416E-1,-6.368265301E-2,5.975784659E-1
9.399813130E-1,-3.373500705E-1,-7.223475724E-2,6.220130324E-1
9.499813130E-1,-2.970330119E-1,-5.757400393E-2,6.342303753E-1
9.599813130E-1,-2.603811026E-1,-2.825249545E-2,6.268999577E-1
9.699813130E-1,-2.298378795E-1,8.399390616E-3,6.122392416E-1
9.799813130E-1,-2.188423127E-1,-1.527161949E-4,6.000219584E-1
9.899813130E-1,-2.225074917E-1,-3.680460155E-2,5.926915407E-1
9.999813130E-1,-2.420551628E-1,-6.612611562E-2,5.988001823E-1
1.009981313E0,-2.689332068E-1,-5.268708616E-2,6.085740328E-1
1.019981313E0,-2.921460867E-1,-3.817904973E-3,6.171261668E-1
1.029981313E0,-3.019199073E-1,1.572976820E-2,6.159043908E-1
1.039981313E0,-3.031416535E-1,3.039052337E-2,6.085740328E-1
1.049981313E0,-3.019199073E-1,5.360338464E-2,6.000219584E-1
1.059981313E0,-3.055851161E-1,8.659008145E-2,5.890263915E-1
1.069981313E0,-3.165806830E-1,1.354592592E-1,5.816959739E-1
1.079981313E0,-3.263545036E-1,1.647807807E-1,5.804742575E-1
1.089981313E0,-3.520108163E-1,1.745546162E-1,5.768090487E-1
1.099981313E0,-3.617846668E-1,1.415679157E-1,5.597048402E-1
1.109981313E0,-3.849975169E-1,8.170316368E-2,5.352702737E-1
1.119981313E0,-4.192059636E-1,3.161225095E-2,5.071704984E-1
1.129981313E0,-4.534143806E-1,2.550360374E-2,4.607447684E-1
1.139981313E0,-4.888445437E-1,2.794706449E-2,4.021017551E-1
1.149981313E0,-5.181660652E-1,1.939495653E-2,3.471239209E-1
1.159981313E0,-5.523744822E-1,-2.092211880E-2,2.725984156E-1
1.169981313E0,-5.792525411E-1,-7.467821985E-2,1.870773435E-1
1.179981313E0,-5.768090487E-1,-1.589775532E-1,8.445205539E-2
1.189981313E0,-5.682569742E-1,-1.931859851E-1,2.092211880E-2
1.199981313E0,-5.413789153E-1,-2.237292230E-1,-5.604684353E-2
1.209981313E0,-4.998401105E-1,-2.066250145E-1,-6.459894776E-2
1.219981313E0,-4.570795596E-1,-2.261726856E-1,-1.939495653E-2
1.229981313E0,-3.764454126E-1,-2.982547283E-1,4.902189970E-2
1.239981313E0,-2.945895493E-1,-3.190241456E-1,9.056070447E-2
1.249981313E0,-1.809686869E-1,-2.457203567E-1,9.666935354E-2
1.259981313E0,-6.490438432E-2,-7.467821985E-2,7.834340632E-2
1.269981313E0,8.048143238E-2,4.749473557E-2,6.001746282E-2
1.279981313E0,2.185368687E-1,-1.970038936E-2,5.757400393E-2
1.289981313E0,2.979492843E-1,-1.211039424E-1,7.345648855E-2
1.299981313E0,3.455967605E-1,-1.992946416E-1,1.052214578E-1
1.309981313E0,3.455967605E-1,-2.115119249E-1,1.211039424E-1
1.319981313E0,2.906189263E-1,-1.614210159E-1,1.394298822E-1
1.329981313E0,2.234237939E-1,-8.078686893E-2,1.540906429E-1
1.339981313E0,1.317940801E-1,-2.947422490E-2,1.711948514E-1
1.349981313E0,2.916879393E-2,-1.114828233E-2,1.773035079E-1
1.359981313E0,-3.802633286E-2,-3.191768378E-2,1.601992846E-1
1.369981313E0,-9.300415963E-2,-1.235474050E-1,1.235474050E-1
1.379981313E0,-1.162170246E-1,-1.870773435E-1,1.039997265E-1
1.389981313E0,-1.174387559E-1,-2.127336562E-1,9.544762224E-2
1.399981313E0,-9.911280870E-2,-2.176205814E-1,8.933897316E-2
1.409981313E0,-6.490438432E-2,-2.542724609E-1,8.445205539E-2
1.419981313E0,-2.458730713E-2,-2.762635946E-1,8.445205539E-2
1.429981313E0,8.399390616E-3,-2.664897740E-1,8.567378670E-2
1.439981313E0,5.726857483E-2,-2.469420880E-1,5.635227636E-2
1.449981313E0,9.514218569E-2,-2.347247899E-1,1.847865991E-2
1.459981313E0,1.391244531E-1,-2.249509543E-1,-6.337722391E-2
1.469981313E0,1.440113783E-1,-2.982547283E-1,-1.721111536E-1
1.479981313E0,3.039052337E-2,-2.664897740E-1,-2.784016132E-1
1.489981313E0,4.993819445E-2,-3.459021747E-1,-1.745546162E-1
1.499981313E0,7.070759684E-2,-4.179842174E-1,-6.459894776E-2
1.509981313E0,1.061377525E-1,-4.864010811E-1,5.039634649E-3
1.519981313E0,1.342375278E-1,-4.864010811E-1,5.039634649E-3
1.529981313E0,1.721111536E-1,-4.302015305E-1,-3.039052337E-2
1.539981313E0,2.026543915E-1,-3.972148299E-1,-5.604684353E-2
1.549981313E0,2.295324355E-1,-4.057669342E-1,-5.849030241E-2
1.559981313E0,2.380845547E-1,-4.509709179E-1,-4.382954910E-2
1.569981313E0,2.344193608E-1,-4.937314689E-1,-3.039052337E-2
1.579981313E0,2.246455252E-1,-5.022835732E-1,-2.550360374E-2
1.589981313E0,2.173151523E-1,-4.558578432E-1,-3.527744114E-2
1.599981313E0,2.136499584E-1,-3.923279047E-1,-5.726857483E-2
1.609981313E0,2.258672565E-1,-3.654498458E-1,-6.948586553E-2
1.619981313E0,2.393062711E-1,-3.129154742E-1,-5.726857483E-2
1.629981313E0,2.478583902E-1,-2.432768941E-1,-3.039052337E-2
1.639981313E0,2.503018379E-1,-1.931859851E-1,-1.817322709E-2
1.649981313E0,2.393062711E-1,-1.504254490E-1,-1.572976820E-2
1.659981313E0,2.246455252E-1,-1.357647032E-1,-1.450803876E-2
1.669981313E0,2.173151523E-1,-1.455385387E-1,-2.672533318E-2
1.679981313E0,1.965457499E-1,-1.235474050E-1,-1.695149764E-2
1.689981313E0,1.855501831E-1,-1.149952933E-1,-1.450803876E-2
1.699981313E0,1.818849891E-1,-1.101083755E-1,-2.061668597E-2
1.709981313E0,1.757763475E-1,-1.235474050E-1,-1.328630932E-2
1.719981313E0,1.733328849E-1,-1.308777779E-1,3.436114267E-2
1.729981313E0,1.696676910E-1,-1.113301069E-1,5.513054505E-2
1.739981313E0,1.574503928E-1,-1.015562713E-1,5.390881747E-2
1.749981313E0,1.354592592E-1,-8.933897316E-2,3.069595434E-2
1.759981313E0,1.159115955E-1,-6.246092543E-2,1.847865991E-2
1.769981313E0,8.292489499E-2,1.084284950E-2,1.847865991E-2
1.779981313E0,5.360338464E-2,3.894263133E-2,2.336557768E-2
1.789981313E0,7.177661173E-3,6.704241037E-2,2.947422490E-2
1.799981313E0,-3.558287397E-2,1.049160287E-1,2.825249545E-2
1.809981313E0,-9.056070447E-2,1.513417512E-1,2.092211880E-2
1.819981313E0,-1.406516135E-1,1.501200199E-1,1.481347065E-2
1.829981313E0,-1.748600453E-1,1.440113783E-1,2.596175298E-3
1.839981313E0,-1.956294477E-1,1.293506175E-1,-1.695149764E-2
1.849981313E0,-1.724165827E-1,1.476765573E-1,-6.948586553E-2
1.859981313E0,-1.345429718E-1,1.855501831E-1,-1.232419685E-1
1.869981313E0,-9.911280870E-2,1.440113783E-1,-1.391244531E-1
1.879981313E0,-4.657844082E-2,9.147699922E-2,-1.330158114E-1
1.889981313E0,-1.237001177E-2,5.604684353E-2,-1.000291109E-1
1.899981313E0,7.177661173E-3,5.849030241E-2,-8.048143238E-2
1.909981313E0,2.428187430E-2,8.659008145E-2,-7.192932814E-2
1.919981313E0,3.283398226E-2,6.337722391E-2,-7.070759684E-2
1.929981313E0,4.016435891E-2,2.183841541E-2,-5.849030241E-2
1.939981313E0,3.772090003E-2,3.512472380E-3,-4.260781780E-2
1.949981313E0,1.939495653E-2,-8.704823442E-3,-2.672533318E-2
1.959981313E0,-5.039634649E-3,-1.481347065E-2,-2.183841541E-2
1.969981313E0,-2.703076601E-2,-5.039634649E-3,-2.183841541E-2
1.979981313E0,-6.246092543E-2,9.621120058E-3,-2.183841541E-2
1.989981313E0,-1.015562713E-1,3.039052337E-2,-1.572976820E-2
1.999981313E0,-1.577558219E-1,4.993819445E-2,-1.450803876E-2
2.009981313E0,-1.882990748E-1,4.505127668E-2,-2.306014486E-2
2.019981313E0,-1.931859851E-1,-2.336557768E-2,-2.672533318E-2
2.029981313E0,-1.663079411E-1,-7.712167501E-2,-2.061668597E-2
2.039981313E0,-1.333212405E-1,-9.666935354E-2,-2.183841541E-2
2.049981313E0,-9.422589093E-2,-1.149952933E-1,-3.405570984E-2
2.059981313E0,-7.589995116E-2,-1.394298822E-1,-3.527744114E-2
2.069981313E0,-6.734783947E-2,-1.406516135E-1,-2.306014486E-2
2.079981313E0,-7.712167501E-2,-1.223256737E-1,-1.328630932E-2
2.089981313E0,-1.039997265E-1,-8.200860023E-2,-4.734201822E-3
2.099981313E0,-1.443168074E-1,-3.924806044E-2,-1.328630932E-2
2.109981313E0,-1.809686869E-1,-3.191768378E-2,-2.306014486E-2
2.119981313E0,-2.163988501E-1,-3.680460155E-2,-2.428187430E-2
2.129981313E0,-2.371682525E-1,-5.635227636E-2,-1.450803876E-2
2.139981313E0,-2.457203567E-1,-9.056070447E-2,2.596175298E-3
2.149981313E0,-2.396117151E-1,-9.056070447E-2,1.603520103E-2
2.159981313E0,-2.286161482E-1,-6.612611562E-2,2.703076601E-2
2.169981313E0,-2.005163580E-1,-1.481347065E-2,2.703076601E-2
2.179981313E0,-1.724165827E-1,2.550360374E-2,1.603520103E-2
2.189981313E0,-1.284343153E-1,2.794706449E-2,5.039634649E-3
2.199981313E0,-9.178243577E-2,1.084284950E-2,1.374445739E-3
2.209981313E0,-4.657844082E-2,-1.481347065E-2,-4.734201822E-3
2.219981313E0,-1.970038936E-2,-3.558287397E-2,-1.450803876E-2
2.229981313E0,1.069013379E-3,-6.368265301E-2,-2.794706449E-2
2.239981313E0,1.069013379E-3,-8.689551800E-2,-2.550360374E-2
2.249981313E0,-1.603520103E-2,-9.544762224E-2,-1.817322709E-2
2.259981313E0,-4.169152305E-2,-8.689551800E-2,-9.621120058E-3
2.269981313E0,-5.879573524E-2,-7.223475724E-2,-5.955931731E-3
2.279981313E0,-7.834340632E-2,-5.146535859E-2,1.527161949E-4
2.289981313E0,-9.056070447E-2,-4.046979174E-2,3.817904973E-3
2.299981313E0,-9.666935354E-2,-2.825249545E-2,8.704823442E-3
2.309981313E0,-9.056070447E-2,-2.214384824E-2,1.359174121E-2
2.319981313E0,-7.712167501E-2,-3.069595434E-2,1.237001177E-2
2.329981313E0,-4.169152305E-2,-4.291325063E-2,5.039634649E-3
2.339981313E0,-7.483093534E-3,-2.825249545E-2,1.527161949E-4
2.349981313E0,3.649916872E-2,4.734201822E-3,-2.290742937E-3
2.359981313E0,6.826414168E-2,4.382954910E-2,-2.290742937E-3
2.369981313E0,9.880737960E-2,8.781181276E-2,-3.512472380E-3
2.379981313E0,1.036942974E-1,1.012508348E-1,-4.734201822E-3
2.389981313E0,9.636391699E-2,8.903354406E-2,1.374445739E-3
2.399981313E0,7.681624591E-2,5.604684353E-2,1.603520103E-2
2.409981313E0,5.360338464E-2,2.672533318E-2,2.458730713E-2
2.419981313E0,1.939495653E-2,-1.970038936E-2,2.825249545E-2
2.429981313E0,-6.261364091E-3,-5.268708616E-2,2.703076601E-2
2.439981313E0,-3.069595434E-2,-5.757400393E-2,2.092211880E-2
2.449981313E0,-3.436114267E-2,-3.191768378E-2,1.970038936E-2
2.459981313E0,-2.580903657E-2,4.734201822E-3,1.603520103E-2
2.469981313E0,-5.039634649E-3,4.871646687E-2,1.114828233E-2
2.479981313E0,1.206457894E-2,7.925970852E-2,5.039634649E-3
2.489981313E0,2.672533318E-2,9.392046183E-2,1.374445739E-3
2.499981313E0,3.527744114E-2,8.292489499E-2,1.374445739E-3
2.509981313E0,3.283398226E-2,4.138609022E-2,1.527161949E-4
2.519981313E0,2.550360374E-2,-1.237001177E-2,-5.955931731E-3
2.529981313E0,1.817322709E-2,-4.780016840E-2,-1.450803876E-2
2.539981313E0,1.206457894E-2,-7.467821985E-2,-2.183841541E-2
2.549981313E0,1.572976820E-2,-7.223475724E-2,-2.550360374E-2
2.559981313E0,3.161225095E-2,-5.024362728E-2,-2.794706449E-2
2.569981313E0,4.993819445E-2,-2.703076601E-2,-2.672533318E-2
2.579981313E0,6.948586553E-2,-3.817904973E-3,-2.306014486E-2
2.589981313E0,8.048143238E-2,4.734201822E-3,-1.328630932E-2
2.599981313E0,7.559451461E-2,1.069013379E-3,-3.512472380E-3
2.609981313E0,5.115992576E-2,-2.596175298E-3,2.596175298E-3
2.619981313E0,2.550360374E-2,5.955931731E-3,6.261364091E-3
2.629981313E0,-8.704823442E-3,1.817322709E-2,1.237001177E-2
2.639981313E0,-3.069595434E-2,1.939495653E-2,1.603520103E-2
2.649981313E0,-4.902189970E-2,8.399390616E-3,2.214384824E-2
2.659981313E0,-4.291325063E-2,-1.527161949E-4,2.703076601E-2
2.669981313E0,-2.947422490E-2,-6.261364091E-3,3.313941509E-2
2.679981313E0,7.177661173E-3,-1.725693047E-2,3.680460155E-2
2.689981313E0,4.749473557E-2,-1.970038936E-2,3.558287397E-2
2.699981313E0,1.036942974E-1,-2.214384824E-2,2.825249545E-2
2.709981313E0,1.391244531E-1,-1.603520103E-2,2.214384824E-2
2.719981313E0,1.598938555E-1,-9.926552884E-3,1.970038936E-2
2.729981313E0,1.427896470E-1,-6.261364091E-3,1.527161949E-4
2.739981313E0,9.880737960E-2,-5.039634649E-3,-3.512472380E-3
2.749981313E0,2.550360374E-2,1.069013379E-3,1.527161949E-4
2.759981313E0,-3.436114267E-2,-1.527161949E-4,2.596175298E-3
2.769981313E0,-9.300415963E-2,4.734201822E-3,1.527161949E-4
2.779981313E0,-1.125518382E-1,8.399390616E-3,-5.955931731E-3
2.789981313E0,-1.003345400E-1,1.206457894E-2,-1.206457894E-2
2.799981313E0,-6.246092543E-2,8.399390616E-3,-1.206457894E-2
2.809981313E0,-2.580903657E-2,-1.374445739E-3,-1.817322709E-2
2.819981313E0,1.450803876E-2,-3.558287397E-2,-1.206457894E-2
2.829981313E0,3.405570984E-2,-4.780016840E-2,-4.734201822E-3
2.839981313E0,3.649916872E-2,-5.757400393E-2,1.374445739E-3
2.849981313E0,2.428187430E-2,-6.734783947E-2,5.039634649E-3
2.859981313E0,1.069013379E-3,-7.467821985E-2,7.483093534E-3
2.869981313E0,-2.336557768E-2,-7.834340632E-2,3.817904973E-3
2.879981313E0,-4.046979174E-2,-7.467821985E-2,1.374445739E-3
2.889981313E0,-5.757400393E-2,-5.635227636E-2,-2.290742937E-3
2.899981313E0,-6.123919412E-2,-2.703076601E-2,-1.069013379E-3
2.909981313E0,-5.757400393E-2,4.734201822E-3,1.374445739E-3
2.919981313E0,-5.146535859E-2,3.405570984E-2,8.704823442E-3
2.929981313E0,-4.291325063E-2,6.337722391E-2,1.603520103E-2
2.939981313E0,-3.436114267E-2,7.803797722E-2,2.703076601E-2
2.949981313E0,-1.970038936E-2,7.681624591E-2,3.558287397E-2
2.959981313E0,7.177661173E-3,5.115992576E-2,3.802633286E-2
2.969981313E0,3.161225095E-2,2.061668597E-2,3.191768378E-2
2.979981313E0,5.604684353E-2,-5.039634649E-3,2.214384824E-2
2.989981313E0,6.337722391E-2,-9.926552884E-3,1.359174121E-2
2.999981313E0,5.238165334E-2,-1.527161949E-4,1.374445739E-3
3.009981313E0,2.428187430E-2,8.399390616E-3,-7.177661173E-3
3.019981313E0,3.512472380E-3,1.328630932E-2,-1.206457894E-2
3.029981313E0,-1.237001177E-2,1.450803876E-2,-1.206457894E-2
3.039981313E0,-1.481347065E-2,1.084284950E-2,-4.734201822E-3
3.049981313E0,-2.596175298E-3,-1.237001177E-2,1.374445739E-3
3.059981313E0,3.512472380E-3,-3.069595434E-2,3.817904973E-3
3.069981313E0,1.328630932E-2,-3.436114267E-2,6.261364091E-3
3.079981313E0,1.817322709E-2,-2.703076601E-2,7.483093534E-3
3.089981313E0,1.695149764E-2,-2.336557768E-2,5.039634649E-3
3.099981313E0,5.955931731E-3,-6.261364091E-3,6.261364091E-3
3.109981313E0,-7.483093534E-3,8.399390616E-3,6.261364091E-3
3.119981313E0,-2.092211880E-2,1.206457894E-2,1.374445739E-3
3.129981313E0,-3.313941509E-2,1.069013379E-3,2.596175298E-3
3.139981313E0,-4.657844082E-2,-1.603520103E-2,2.596175298E-3
3.149981313E0,-6.123919412E-2,-3.191768378E-2,-1.069013379E-3
3.159981313E0,-6.734783947E-2,-4.902189970E-2,-5.955931731E-3
3.169981313E0,-7.345648855E-2,-8.078686893E-2,-1.450803876E-2
3.179981313E0,-8.078686893E-2,-1.235474050E-1,-1.695149764E-2
3.189981313E0,-7.834340632E-2,-1.638644785E-1,-3.161225095E-2
3.199981313E0,-7.467821985E-2,-2.005163580E-1,-3.649916872E-2
3.209981313E0,-6.490438432E-2,-2.359465212E-1,-1.939495653E-2
3.219981313E0,-6.368265301E-2,-2.469420880E-1,5.039634649E-3
3.229981313E0,-6.979130208E-2,-2.347247899E-1,7.483093534E-3
3.239981313E0,-6.979130208E-2,-2.151771188E-1,9.926552884E-3
3.249981313E0,-6.490438432E-2,-1.980729103E-1,1.481347065E-2
3.259981313E0,-5.757400393E-2,-1.760817766E-1,2.580903657E-2
3.269981313E0,-5.513054505E-2,-1.699731201E-1,3.680460155E-2
3.279981313E0,-5.268708616E-2,-1.601992846E-1,4.169152305E-2
3.289981313E0,-4.291325063E-2,-1.382081509E-1,4.291325063E-2
3.299981313E0,-3.313941509E-2,-1.088866442E-1,4.780016840E-2
3.309981313E0,-2.092211880E-2,-5.879573524E-2,5.146535859E-2
3.319981313E0,-1.847865991E-2,-3.558287397E-2,4.535670951E-2
3.329981313E0,-2.703076601E-2,-3.558287397E-2,3.069595434E-2
3.339981313E0,-4.535670951E-2,-5.390881747E-2,2.092211880E-2
3.349981313E0,-6.123919412E-2,-7.467821985E-2,1.603520103E-2
3.359981313E0,-6.979130208E-2,-9.056070447E-2,7.483093534E-3
3.369981313E0,-7.101303339E-2,-8.078686893E-2,-5.955931731E-3
3.379981313E0,-6.734783947E-2,-5.879573524E-2,-4.734201822E-3
3.389981313E0,-5.879573524E-2,-2.825249545E-2,-2.290742937E-3
3.399981313E0,-4.291325063E-2,-2.825249545E-2,2.596175298E-3
3.409981313E0,-3.191768378E-2,-3.558287397E-2,5.039634649E-3
3.419981313E0,-3.436114267E-2,-3.924806044E-2,8.704823442E-3
3.429981313E0,-4.535670951E-2,-3.436114267E-2,1.114828233E-2
3.439981313E0,-5.390881747E-2,-1.847865991E-2,1.481347065E-2
3.449981313E0,-5.390881747E-2,-5.039634649E-3,1.970038936E-2
3.459981313E0,-3.313941509E-2,4.734201822E-3,2.092211880E-2
3.469981313E0,1.695149764E-2,5.726857483E-2,1.847865991E-2
3.479981313E0,8.414662629E-2,1.036942974E-1,1.359174121E-2
3.489981313E0,1.305723488E-1,9.880737960E-2,1.114828233E-2
3.499981313E0,1.574503928E-1,8.659008145E-2,1.481347065E-2
3.509981313E0,1.452330947E-1,5.360338464E-2,1.237001177E-2
3.519981313E0,9.147699922E-2,5.238165334E-2,6.261364091E-3
3.529981313E0,3.527744114E-2,6.459894776E-2,-1.069013379E-3
3.539981313E0,-3.069595434E-2,1.817322709E-2,1.374445739E-3
3.549981313E0,-8.323032409E-2,-1.970038936E-2,7.483093534E-3
3.559981313E0,-1.015562713E-1,-3.313941509E-2,1.481347065E-2
3.569981313E0,-8.811724186E-2,-4.413498193E-2,2.458730713E-2
3.579981313E0,-6.001746282E-2,-5.635227636E-2,3.069595434E-2
3.589981313E0,-1.725693047E-2,-6.612611562E-2,3.436114267E-2
3.599981313E0,7.177661173E-3,-5.757400393E-2,3.191768378E-2
3.609981313E0,1.695149764E-2,-2.947422490E-2,2.580903657E-2
3.619981313E0,1.069013379E-3,-1.359174121E-2,1.970038936E-2
3.629981313E0,-2.214384824E-2,-1.237001177E-2,1.481347065E-2
3.639981313E0,-5.635227636E-2,-1.725693047E-2,1.481347065E-2
3.649981313E0,-7.467821985E-2,-1.603520103E-2,1.603520103E-2
3.659981313E0,-7.712167501E-2,-8.704823442E-3,2.703076601E-2
3.669981313E0,-5.268708616E-2,2.290742937E-3,4.291325063E-2
3.679981313E0,-5.039634649E-3,1.939495653E-2,5.879573524E-2
3.689981313E0,4.749473557E-2,3.894263133E-2,6.123919412E-2
3.699981313E0,8.048143238E-2,6.215549260E-2,6.001746282E-2
3.709981313E0,1.012508348E-1,9.025526792E-2,5.635227636E-2
3.719981313E0,1.110246703E-1,1.000291109E-1,4.535670951E-2
3.729981313E0,1.049160287E-1,7.681624591E-2,4.046979174E-2
3.739981313E0,9.147699922E-2,5.726857483E-2,4.291325063E-2
3.749981313E0,6.948586553E-2,4.138609022E-2,4.169152305E-2
3.759981313E0,5.726857483E-2,4.993819445E-2,4.046979174E-2
3.769981313E0,6.582067907E-2,6.826414168E-2,3.313941509E-2
3.779981313E0,9.269873053E-2,7.315105945E-2,2.336557768E-2
3.789981313E0,1.256854236E-1,7.803797722E-2,1.603520103E-2
3.799981313E0,1.598938555E-1,5.604684353E-2,1.237001177E-2
3.809981313E0,1.684459597E-1,3.283398226E-2,9.926552884E-3
3.819981313E0,1.488982886E-1,7.177661173E-3,7.483093534E-3
3.829981313E0,1.012508348E-1,-2.596175298E-3,1.527161949E-4
3.839981313E0,5.971203372E-2,-1.847865991E-2,-9.621120058E-3
3.849981313E0,2.672533318E-2,-2.214384824E-2,-1.817322709E-2
3.859981313E0,1.695149764E-2,-2.214384824E-2,-2.061668597E-2
3.869981313E0,2.183841541E-2,-1.970038936E-2,-2.306014486E-2
3.879981313E0,3.405570984E-2,-1.527161949E-4,-2.183841541E-2
3.889981313E0,4.871646687E-2,3.039052337E-2,-1.572976820E-2
3.899981313E0,6.337722391E-2,5.238165334E-2,-9.621120058E-3
3.909981313E0,7.315105945E-2,6.337722391E-2,-7.177661173E-3
3.919981313E0,7.070759684E-2,5.849030241E-2,-4.734201822E-3
3.929981313E0,5.726857483E-2,3.894263133E-2,-2.290742937E-3
3.939981313E0,3.039052337E-2,1.572976820E-2,-3.512472380E-3
3.949981313E0,7.177661173E-3,1.069013379E-3,-5.955931731E-3
3.959981313E0,-1.847865991E-2,-1.114828233E-2,-4.734201822E-3
3.969981313E0,-3.436114267E-2,-9.926552884E-3,-2.290742937E-3
3.979981313E0,-3.436114267E-2,5.955931731E-3,1.374445739E-3
3.989981313E0,-2.336557768E-2,4.138609022E-2,9.926552884E-3
3.999981313E0,-1.114828233E-2,7.070759684E-2,1.481347065E-2
4.009981313E0,4.734201822E-3,8.659008145E-2,1.237001177E-2
4.019981313E0,1.328630932E-2,8.292489499E-2,1.114828233E-2
4.029981313E0,1.572976820E-2,5.726857483E-2,1.237001177E-2
4.039981313E0,2.061668597E-2,2.794706449E-2,1.970038936E-2
4.049981313E0,2.061668597E-2,9.621120058E-3,2.214384824E-2
4.059981313E0,1.695149764E-2,1.939495653E-2,2.336557768E-2
4.069981313E0,9.621120058E-3,2.672533318E-2,2.214384824E-2
4.079981313E0,-2.596175298E-3,2.428187430E-2,1.237001177E-2
4.089981313E0,-8.704823442E-3,1.572976820E-2,5.039634649E-3
4.099981313E0,-1.237001177E-2,2.916879393E-2,6.261364091E-3
4.109981313E0,-1.481347065E-2,6.459894776E-2,9.926552884E-3
4.119981313E0,-2.092211880E-2,8.659008145E-2,1.114828233E-2
4.129981313E0,-2.214384824E-2,1.000291109E-1,1.481347065E-2
4.139981313E0,-1.603520103E-2,9.880737960E-2,1.725693047E-2
4.149981313E0,4.734201822E-3,9.758564830E-2,1.847865991E-2
4.159981313E0,2.916879393E-2,9.636391699E-2,1.481347065E-2
4.169981313E0,6.093376130E-2,8.903354406E-2,-1.069013379E-3
4.179981313E0,9.025526792E-2,6.459894776E-2,-1.572976820E-2
4.189981313E0,1.061377525E-1,3.894263133E-2,-1.939495653E-2
4.199981313E0,1.207985133E-1,8.399390616E-3,-1.084284950E-2
4.209981313E0,1.244636998E-1,-1.374445739E-3,-5.955931731E-3
4.219981313E0,1.195767820E-1,-1.114828233E-2,-4.734201822E-3
4.229981313E0,1.171333194E-1,-1.114828233E-2,-8.399390616E-3
4.239981313E0,1.183550507E-1,1.069013379E-3,-1.572976820E-2
4.249981313E0,1.305723488E-1,2.183841541E-2,-2.183841541E-2
4.259981313E0,1.366809905E-1,3.527744114E-2,-3.161225095E-2
4.269981313E0,1.379027218E-1,3.772090003E-2,-4.627300799E-2
4.279981313E0,1.244636998E-1,3.772090003E-2,-5.115992576E-2
4.289981313E0,8.903354406E-2,3.649916872E-2,-5.115992576E-2
4.299981313E0,4.627300799E-2,3.772090003E-2,-4.749473557E-2
4.309981313E0,-1.970038936E-2,5.482511222E-2,-4.382954910E-2
4.319981313E0,-9.666935354E-2,7.315105945E-2,-3.161225095E-2
4.329981313E0,-1.601992846E-1,9.758564830E-2,-8.399390616E-3
4.339981313E0,-2.139553875E-1,1.207985133E-1,3.680460155E-2
4.349981313E0,-2.444986254E-1,1.269071549E-1,6.368265301E-2
4.359981313E0,-2.481638193E-1,1.305723488E-1,7.712167501E-2
4.369981313E0,-2.273944169E-1,1.330158114E-1,8.200860023E-2
4.379981313E0,-1.687513888E-1,1.330158114E-1,8.200860023E-2
4.389981313E0,-8.689551800E-2,1.244636998E-1,7.956513762E-2
4.399981313E0,-1.481347065E-2,1.000291109E-1,7.589995116E-2
4.409981313E0,6.704241037E-2,5.604684353E-2,6.246092543E-2
4.419981313E0,1.134681329E-1,1.817322709E-2,4.535670951E-2
4.429981313E0,1.330158114E-1,-1.603520103E-2,2.825249545E-2
4.439981313E0,1.195767820E-1,-3.313941509E-2,1.847865991E-2
4.449981313E0,7.803797722E-2,-4.902189970E-2,5.039634649E-3
4.459981313E0,2.306014486E-2,-4.902189970E-2,-4.734201822E-3
4.469981313E0,-2.825249545E-2,-5.635227636E-2,-8.399390616E-3
4.479981313E0,-8.567378670E-2,-7.712167501E-2,-1.084284950E-2
4.489981313E0,-1.198822111E-1,-8.811724186E-2,-9.621120058E-3
4.499981313E0,-1.443168074E-1,-8.689551800E-2,-4.734201822E-3
4.509981313E0,-1.516471803E-1,-9.056070447E-2,-4.734201822E-3
4.519981313E0,-1.565341055E-1,-9.789107740E-2,-9.621120058E-3
4.529981313E0,-1.589775532E-1,-1.125518382E-1,-1.695149764E-2
4.539981313E0,-1.614210159E-1,-1.382081509E-1,-1.695149764E-2
4.549981313E0,-1.699731201E-1,-1.882990748E-1,-1.572976820E-2
4.559981313E0,-1.748600453E-1,-2.420551628E-1,-1.939495653E-2
4.569981313E0,-1.711948514E-1,-2.872591615E-1,-2.428187430E-2
4.579981313E0,-1.565341055E-1,-3.068068326E-1,-2.306014486E-2
4.589981313E0,-1.198822111E-1,-2.469420880E-1,-1.084284950E-2
4.599981313E0,-7.223475724E-2,-1.614210159E-1,-1.450803876E-2
4.609981313E0,-3.313941509E-2,-8.933897316E-2,-3.161225095E-2
4.619981313E0,1.450803876E-2,1.084284950E-2,-4.871646687E-2
4.629981313E0,4.260781780E-2,5.360338464E-2,-5.604684353E-2
4.639981313E0,7.192932814E-2,4.993819445E-2,-5.726857483E-2
4.649981313E0,7.559451461E-2,2.672533318E-2,-5.115992576E-2
4.659981313E0,5.971203372E-2,4.734201822E-3,-3.894263133E-2
4.669981313E0,3.527744114E-2,-1.847865991E-2,-2.794706449E-2
4.679981313E0,1.572976820E-2,-3.924806044E-2,-2.550360374E-2
4.689981313E0,4.734201822E-3,-4.169152305E-2,-2.306014486E-2
4.699981313E0,1.069013379E-3,-3.069595434E-2,-2.183841541E-2
4.709981313E0,4.734201822E-3,-1.481347065E-2,-1.939495653E-2
4.719981313E0,8.399390616E-3,-3.817904973E-3,-1.817322709E-2
4.729981313E0,1.328630932E-2,1.328630932E-2,-1.328630932E-2
4.739981313E0,1.572976820E-2,2.428187430E-2,-7.177661173E-3
4.749981313E0,1.450803876E-2,3.283398226E-2,-4.734201822E-3
4.759981313E0,4.734201822E-3,5.115992576E-2,-4.734201822E-3
4.769981313E0,-7.483093534E-3,6.215549260E-2,-7.177661173E-3
4.779981313E0,-2.947422490E-2,6.582067907E-2,-5.955931731E-3
4.789981313E0,-4.780016840E-2,5.604684353E-2,-4.734201822E-3
4.799981313E0,-6.368265301E-2,3.772090003E-2,-8.399390616E-3
4.809981313E0,-7.467821985E-2,1.450803876E-2,-1.450803876E-2
4.819981313E0,-7.223475724E-2,3.512472380E-3,-2.183841541E-2
4.829981313E0,-6.246092543E-2,9.621120058E-3,-2.550360374E-2
4.839981313E0,-5.024362728E-2,2.916879393E-2,-2.794706449E-2
4.849981313E0,-3.436114267E-2,5.238165334E-2,-2.916879393E-2
4.859981313E0,-2.092211880E-2,5.238165334E-2,-2.916879393E-2
4.869981313E0,-1.970038936E-2,2.672533318E-2,-2.428187430E-2
4.879981313E0,-2.825249545E-2,-5.039634649E-3,-3.161225095E-2
4.889981313E0,-4.902189970E-2,-5.024362728E-2,-2.916879393E-2
4.899981313E0,-7.223475724E-2,-7.101303339E-2,-1.450803876E-2
4.909981313E0,-8.323032409E-2,-5.757400393E-2,1.527161949E-4
4.919981313E0,-9.422589093E-2,-1.847865991E-2,1.359174121E-2
4.929981313E0,-9.178243577E-2,3.283398226E-2,1.481347065E-2
4.939981313E0,-8.323032409E-2,5.482511222E-2,9.926552884E-3
4.949981313E0,-6.368265301E-2,6.459894776E-2,2.596175298E-3
4.959981313E0,-5.635227636E-2,4.627300799E-2,5.039634649E-3
4.969981313E0,-5.146535859E-2,3.649916872E-2,1.237001177E-2
4.979981313E0,-5.268708616E-2,4.260781780E-2,1.603520103E-2
4.989981313E0,-4.169152305E-2,5.971203372E-2,1.481347065E-2
4.999981313E0,-2.336557768E-2,8.048143238E-2,8.704823442E-3
5.009981313E0,-2.596175298E-3,8.536835015E-2,7.483093534E-3
5.019981313E0,2.061668597E-2,8.781181276E-2,1.359174121E-2
5.029981313E0,3.161225095E-2,7.437278330E-2,2.092211880E-2
5.039981313E0,3.283398226E-2,4.993819445E-2,1.359174121E-2
5.049981313E0,3.161225095E-2,1.817322709E-2,1.481347065E-2
5.059981313E0,3.039052337E-2,1.328630932E-2,1.970038936E-2
5.069981313E0,2.428187430E-2,3.405570984E-2,1.847865991E-2
5.079981313E0,1.206457894E-2,5.726857483E-2,1.603520103E-2
5.089981313E0,-1.527161949E-4,7.315105945E-2,1.603520103E-2
5.099981313E0,-7.483093534E-3,7.559451461E-2,1.847865991E-2
5.109981313E0,-5.039634649E-3,5.726857483E-2,1.970038936E-2
5.119981313E0,5.955931731E-3,3.039052337E-2,1.847865991E-2
5.129981313E0,2.550360374E-2,1.572976820E-2,1.359174121E-2
5.139981313E0,4.382954910E-2,2.794706449E-2,8.704823442E-3
5.149981313E0,5.238165334E-2,4.749473557E-2,3.817904973E-3
5.159981313E0,5.115992576E-2,5.849030241E-2,3.817904973E-3
5.169981313E0,4.138609022E-2,5.360338464E-2,1.374445739E-3
5.179981313E0,1.817322709E-2,1.939495653E-2,-4.734201822E-3
5.189981313E0,-1.374445739E-3,-1.359174121E-2,-7.177661173E-3
5.199981313E0,-1.970038936E-2,-3.924806044E-2,-5.955931731E-3
5.209981313E0,-2.336557768E-2,-3.191768378E-2,-4.734201822E-3
5.219981313E0,-1.970038936E-2,-1.374445739E-3,-5.955931731E-3
5.229981313E0,-2.596175298E-3,3.649916872E-2,-7.177661173E-3
5.239981313E0,1.206457894E-2,4.260781780E-2,-9.621120058E-3
5.249981313E0,3.405570984E-2,1.939495653E-2,-1.084284950E-2
5.259981313E0,4.505127668E-2,-9.926552884E-3,-1.450803876E-2
5.269981313E0,4.627300799E-2,-3.558287397E-2,-1.817322709E-2
5.279981313E0,3.283398226E-2,-2.336557768E-2,-8.399390616E-3
5.289981313E0,1.328630932E-2,4.734201822E-3,-2.290742937E-3
5.299981313E0,-2.092211880E-2,2.794706449E-2,1.374445739E-3
5.309981313E0,-4.535670951E-2,2.916879393E-2,3.817904973E-3
5.319981313E0,-7.101303339E-2,1.450803876E-2,6.261364091E-3
5.329981313E0,-8.200860023E-2,5.955931731E-3,6.261364091E-3
5.339981313E0,-7.956513762E-2,2.290742937E-3,7.483093534E-3
5.349981313E0,-6.001746282E-2,4.734201822E-3,5.039634649E-3
5.359981313E0,-3.313941509E-2,7.177661173E-3,5.039634649E-3
5.369981313E0,2.290742937E-3,8.399390616E-3,1.374445739E-3
5.379981313E0,2.672533318E-2,1.084284950E-2,-4.734201822E-3
5.389981313E0,4.138609022E-2,1.695149764E-2,-1.328630932E-2
5.399981313E0,3.527744114E-2,2.550360374E-2,-1.450803876E-2
5.409981313E0,1.328630932E-2,2.183841541E-2,-1.084284950E-2
5.419981313E0,-1.603520103E-2,7.177661173E-3,-9.621120058E-3
5.429981313E0,-3.558287397E-2,-5.039634649E-3,-7.177661173E-3
5.439981313E0,-3.680460155E-2,-1.603520103E-2,-5.955931731E-3
5.449981313E0,-1.725693047E-2,-2.214384824E-2,-9.621120058E-3
5.459981313E0,1.817322709E-2,-1.970038936E-2,-1.084284950E-2
5.469981313E0,4.505127668E-2,-3.817904973E-3,-1.206457894E-2
5.479981313E0,5.849030241E-2,4.734201822E-3,-1.450803876E-2
5.489981313E0,4.505127668E-2,-1.527161949E-4,-1.450803876E-2
5.499981313E0,1.572976820E-2,-8.704823442E-3,-1.084284950E-2
5.509981313E0,-2.214384824E-2,-8.704823442E-3,-5.955931731E-3
5.519981313E0,-5.390881747E-2,-1.114828233E-2,-1.084284950E-2
5.529981313E0,-7.956513762E-2,-1.237001177E-2,-2.061668597E-2
5.539981313E0,-9.056070447E-2,-3.817904973E-3,-1.817322709E-2
5.549981313E0,-8.323032409E-2,8.399390616E-3,-9.621120058E-3
5.559981313E0,-5.268708616E-2,3.512472380E-3,-1.069013379E-3
5.569981313E0,-1.970038936E-2,5.955931731E-3,8.704823442E-3
5.579981313E0,1.450803876E-2,2.290742937E-3,1.481347065E-2
5.589981313E0,3.649916872E-2,-1.114828233E-2,1.603520103E-2
5.599981313E0,4.382954910E-2,-7.483093534E-3,1.970038936E-2
5.609981313E0,3.772090003E-2,3.512472380E-3,1.847865991E-2
5.619981313E0,2.183841541E-2,1.328630932E-2,1.114828233E-2
5.629981313E0,1.084284950E-2,5.955931731E-3,3.817904973E-3
5.639981313E0,3.512472380E-3,-2.596175298E-3,1.374445739E-3
5.649981313E0,-3.817904973E-3,-8.704823442E-3,-3.512472380E-3
5.659981313E0,-6.261364091E-3,-2.947422490E-2,-7.177661173E-3
5.669981313E0,-9.926552884E-3,-5.513054505E-2,-9.621120058E-3
5.679981313E0,-1.603520103E-2,-6.368265301E-2,-5.955931731E-3
5.689981313E0,-2.580903657E-2,-4.291325063E-2,-1.069013379E-3
5.699981313E0,-2.825249545E-2,-1.481347065E-2,2.596175298E-3
5.709981313E0,-2.580903657E-2,-3.817904973E-3,7.483093534E-3
5.719981313E0,-1.847865991E-2,5.955931731E-3,1.114828233E-2
5.729981313E0,-9.926552884E-3,1.328630932E-2,1.237001177E-2
5.739981313E0,-1.527161949E-4,2.290742937E-3,8.704823442E-3
5.749981313E0,9.621120058E-3,1.069013379E-3,9.926552884E-3
5.759981313E0,1.084284950E-2,2.428187430E-2,1.603520103E-2
5.769981313E0,1.572976820E-2,6.582067907E-2,2.214384824E-2
5.779981313E0,1.817322709E-2,8.903354406E-2,2.458730713E-2
5.789981313E0,1.572976820E-2,9.025526792E-2,3.069595434E-2
5.799981313E0,1.084284950E-2,6.948586553E-2,3.069595434E-2
5.809981313E0,2.290742937E-3,3.161225095E-2,2.947422490E-2
5.819981313E0,-9.926552884E-3,1.069013379E-3,2.580903657E-2
5.829981313E0,-2.580903657E-2,-2.214384824E-2,2.214384824E-2
5.839981313E0,-3.313941509E-2,-2.214384824E-2,1.847865991E-2
5.849981313E0,-2.580903657E-2,-2.596175298E-3,1.359174121E-2
5.859981313E0,-1.374445739E-3,3.161225095E-2,7.483093534E-3
5.869981313E0,2.550360374E-2,5.849030241E-2,5.039634649E-3
5.879981313E0,5.726857483E-2,8.170316368E-2,6.261364091E-3
5.889981313E0,7.315105945E-2,7.315105945E-2,5.039634649E-3
5.899981313E0,7.315105945E-2,3.894263133E-2,1.374445739E-3
5.909981313E0,5.360338464E-2,-5.039634649E-3,-1.069013379E-3
5.919981313E0,3.161225095E-2,-3.436114267E-2,-3.512472380E-3
5.929981313E0,2.290742937E-3,-4.535670951E-2,-7.177661173E-3
5.939981313E0,-9.926552884E-3,-3.313941509E-2,-1.450803876E-2
5.949981313E0,-9.926552884E-3,-9.926552884E-3,-1.084284950E-2
5.959981313E0,-1.374445739E-3,8.399390616E-3,-5.955931731E-3
5.969981313E0,9.621120058E-3,1.817322709E-2,-4.734201822E-3
5.979981313E0,9.621120058E-3,7.177661173E-3,-2.290742937E-3
5.989981313E0,-1.527161949E-4,-1.527161949E-4,1.374445739E-3
5.999981313E0,-1.603520103E-2,3.512472380E-3,2.596175298E-3
6.009981313E0,-2.825249545E-2,9.621120058E-3,-3.512472380E-3
6.019981313E0,-3.680460155E-2,1.084284950E-2,-4.734201822E-3
6.029981313E0,-3.558287397E-2,1.817322709E-2,-1.069013379E-3
6.039981313E0,-1.847865991E-2,2.428187430E-2,1.374445739E-3
6.049981313E0,1.328630932E-2,1.817322709E-2,1.374445739E-3
6.059981313E0,3.894263133E-2,1.328630932E-2,1.527161949E-4
6.069981313E0,5.849030241E-2,3.512472380E-3,-4.734201822E-3
6.079981313E0,5.604684353E-2,1.069013379E-3,-5.955931731E-3
6.089981313E0,2.672533318E-2,-6.261364091E-3,-5.955931731E-3
6.099981313E0,-3.817904973E-3,-9.926552884E-3,-4.734201822E-3
6.109981313E0,-3.069595434E-2,-9.926552884E-3,-2.290742937E-3
6.119981313E0,-3.069595434E-2,7.177661173E-3,-1.069013379E-3
6.129981313E0,-1.359174121E-2,1.939495653E-2,1.374445739E-3
6.139981313E0,2.428187430E-2,2.794706449E-2,-2.290742937E-3
6.149981313E0,4.749473557E-2,2.306014486E-2,-8.399390616E-3
6.159981313E0,5.360338464E-2,1.450803876E-2,-1.450803876E-2
6.169981313E0,3.772090003E-2,3.512472380E-3,-1.817322709E-2
6.179981313E0,-1.527161949E-4,-1.725693047E-2,-1.572976820E-2
6.189981313E0,-4.291325063E-2,-2.703076601E-2,-7.177661173E-3
6.199981313E0,-6.734783947E-2,-2.580903657E-2,2.596175298E-3
6.209981313E0,-6.856957078E-2,-1.481347065E-2,5.039634649E-3
6.219981313E0,-4.413498193E-2,1.069013379E-3,1.374445739E-3
6.229981313E0,1.069013379E-3,2.794706449E-2,-3.512472380E-3
6.239981313E0,3.894263133E-2,3.894263133E-2,-3.512472380E-3
6.249981313E0,6.826414168E-2,3.405570984E-2,-2.290742937E-3
6.259981313E0,7.437278330E-2,2.183841541E-2,-2.290742937E-3
6.269981313E0,6.459894776E-2,9.621120058E-3,-4.734201822E-3
6.279981313E0,3.772090003E-2,-9.926552884E-3,-1.084284950E-2
6.289981313E0,5.955931731E-3,-1.847865991E-2,-1.450803876E-2
6.299981313E0,-3.802633286E-2,-1.114828233E-2,-1.328630932E-2
6.309981313E0,-7.223475724E-2,-1.527161949E-4,-7.177661173E-3
6.319981313E0,-9.666935354E-2,3.512472380E-3,2.596175298E-3
6.329981313E0,-9.422589093E-2,2.290742937E-3,7.483093534E-3
6.339981313E0,-7.223475724E-2,-3.817904973E-3,8.704823442E-3
6.349981313E0,-3.680460155E-2,-1.847865991E-2,7.483093534E-3
6.359981313E0,-1.481347065E-2,-3.069595434E-2,6.261364091E-3
6.369981313E0,3.512472380E-3,-3.436114267E-2,6.261364091E-3
6.379981313E0,1.206457894E-2,-3.191768378E-2,3.817904973E-3
6.389981313E0,2.550360374E-2,-3.191768378E-2,6.261364091E-3
6.399981313E0,4.627300799E-2,-3.069595434E-2,6.261364091E-3
6.409981313E0,6.704241037E-2,-2.458730713E-2,3.817904973E-3
6.419981313E0,8.781181276E-2,-5.039634649E-3,-1.069013379E-3
6.429981313E0,8.170316368E-2,1.695149764E-2,-3.512472380E-3
6.439981313E0,5.482511222E-2,4.260781780E-2,2.596175298E-3
6.449981313E0,2.061668597E-2,5.849030241E-2,9.926552884E-3
6.459981313E0,-1.359174121E-2,6.215549260E-2,1.725693047E-2
6.469981313E0,-3.069595434E-2,3.527744114E-2,1.970038936E-2
6.479981313E0,-2.703076601E-2,1.206457894E-2,1.847865991E-2
6.489981313E0,-1.603520103E-2,-3.817904973E-3,1.359174121E-2
6.499981313E0,-7.483093534E-3,-2.596175298E-3,5.039634649E-3
6.509981313E0,-6.261364091E-3,7.177661173E-3,-1.069013379E-3
6.519981313E0,-1.847865991E-2,1.695149764E-2,-3.512472380E-3
6.529981313E0,-3.191768378E-2,1.695149764E-2,-2.290742937E-3
6.539981313E0,-4.413498193E-2,1.695149764E-2,1.374445739E-3
6.549981313E0,-4.046979174E-2,1.695149764E-2,3.817904973E-3
6.559981313E0,-2.458730713E-2,1.084284950E-2,5.039634649E-3
6.569981313E0,-1.481347065E-2,5.955931731E-3,5.039634649E-3
6.579981313E0,-1.481347065E-2,-7.483093534E-3,9.926552884E-3
6.589981313E0,-2.703076601E-2,-1.847865991E-2,1.481347065E-2
6.599981313E0,-2.947422490E-2,-2.825249545E-2,1.725693047E-2
6.609981313E0,-1.603520103E-2,-2.825249545E-2,1.359174121E-2
6.619981313E0,2.290742937E-3,-2.703076601E-2,6.261364091E-3
6.629981313E0,2.916879393E-2,-1.603520103E-2,-1.069013379E-3
6.639981313E0,4.016435891E-2,-6.261364091E-3,-2.290742937E-3
6.649981313E0,4.138609022E-2,-1.527161949E-4,-3.512472380E-3
6.659981313E0,3.039052337E-2,-1.374445739E-3,-5.955931731E-3
6.669981313E0,2.306014486E-2,1.069013379E-3,-7.177661173E-3
6.679981313E0,1.572976820E-2,-3.817904973E-3,-9.621120058E-3
6.689981313E0,1.695149764E-2,-1.603520103E-2,-1.206457894E-2
6.699981313E0,9.621120058E-3,-2.092211880E-2,-1.206457894E-2
6.709981313E0,-1.374445739E-3,-1.603520103E-2,-1.084284950E-2
6.719981313E0,-2.703076601E-2,-1.603520103E-2,-1.328630932E-2
6.729981313E0,-6.001746282E-2,-1.970038936E-2,-1.206457894E-2
6.739981313E0,-7.589995116E-2,-1.847865991E-2,-7.177661173E-3
6.749981313E0,-6.368265301E-2,-8.704823442E-3,-5.955931731E-3
6.759981313E0,-3.191768378E-2,4.734201822E-3,-1.084284950E-2
6.769981313E0,1.084284950E-2,2.061668597E-2,-1.939495653E-2
6.779981313E0,3.527744114E-2,4.138609022E-2,-1.572976820E-2
6.789981313E0,4.993819445E-2,5.604684353E-2,-3.512472380E-3
6.799981313E0,5.360338464E-2,3.649916872E-2,7.483093534E-3
6.809981313E0,4.627300799E-2,5.955931731E-3,1.114828233E-2
6.819981313E0,1.817322709E-2,-1.481347065E-2,1.725693047E-2
6.829981313E0,-1.359174121E-2,-1.359174121E-2,2.214384824E-2
6.839981313E0,-5.757400393E-2,-9.926552884E-3,2.580903657E-2
6.849981313E0,-7.712167501E-2,-9.926552884E-3,2.703076601E-2
6.859981313E0,-7.956513762E-2,-7.483093534E-3,2.580903657E-2
6.869981313E0,-7.223475724E-2,1.069013379E-3,2.336557768E-2
6.879981313E0,-4.474584386E-2,1.756236330E-2,6.261364091E-3
6.889981313E0,-2.764163166E-2,1.328630932E-2,1.374445739E-3
6.899981313E0,-1.725693047E-2,-2.596175298E-3,1.374445739E-3
6.909981313E0,4.734201822E-3,-3.313941509E-2,-2.901607659E-3
6.919981313E0,2.550360374E-2,-5.085449293E-2,-5.955931731E-3
6.929981313E0,5.421425030E-2,-5.146535859E-2,-7.177661173E-3
6.939981313E0,6.826414168E-2,-3.436114267E-2,-5.955931731E-3
6.949981313E0,6.765327603E-2,-1.542433538E-2,-5.955931731E-3
6.959981313E0,3.711003438E-2,-9.926552884E-3,-6.566796452E-3
6.969981313E0,-6.261364091E-3,-1.114828233E-2,-6.566796452E-3
6.979981313E0,-6.185005978E-2,-1.298087649E-2,-3.512472380E-3
6.989981313E0,-8.872810751E-2,-9.926552884E-3,3.207040019E-3
6.999981313E0,-6.795870513E-2,1.084284950E-2,1.114828233E-2
7.009981313E0,-2.275471389E-2,2.550360374E-2,1.359174121E-2
7.019981313E0,4.566214234E-2,3.772090003E-2,1.420260593E-2
7.029981313E0,8.720094711E-2,4.382954910E-2,1.481347065E-2
7.039981313E0,8.536835015E-2,3.772090003E-2,1.603520103E-2
7.049981313E0,3.711003438E-2,3.512472380E-3,1.725693047E-2
7.059981313E0,-1.664606482E-2,-2.458730713E-2,1.725693047E-2
7.069981313E0,-7.956513762E-2,-4.474584386E-2,1.725693047E-2
7.079981313E0,-1.064431891E-1,-3.130681813E-2,1.237001177E-2
7.089981313E0,-1.064431891E-1,9.621120058E-3,1.053741761E-2
7.099981313E0,-6.979130208E-2,4.566214234E-2,1.359174121E-2
7.109981313E0,-1.664606482E-2,5.299251899E-2,1.542433538E-2
7.119981313E0,5.543597788E-2,4.749473557E-2,2.092211880E-2
7.129981313E0,9.880737960E-2,2.916879393E-2,2.336557768E-2
7.139981313E0,1.134681329E-1,-7.635809598E-4,2.153298259E-2
7.149981313E0,8.597921580E-2,-2.275471389E-2,1.725693047E-2
7.159981313E0,2.061668597E-2,-4.657844082E-2,1.359174121E-2
7.169981313E0,-5.207622424E-2,-6.062832847E-2,8.093958721E-3
7.179981313E0,-8.628465235E-2,-5.757400393E-2,1.985310577E-3
7.189981313E0,-9.911280870E-2,-3.924806044E-2,-2.290742937E-3
7.199981313E0,-8.811724186E-2,-1.542433538E-2,-3.512472380E-3
7.209981313E0,-6.307178736E-2,5.345067009E-3,-3.512472380E-3
7.219981313E0,3.512472380E-3,3.039052337E-2,-4.734201822E-3
7.229981313E0,3.649916872E-2,3.039052337E-2,-3.512472380E-3
7.239981313E0,6.215549260E-2,1.817322709E-2,-3.512472380E-3
7.249981313E0,6.582067907E-2,2.290742937E-3,-7.177661173E-3
7.259981313E0,4.993819445E-2,-1.114828233E-2,-7.177661173E-3
7.269981313E0,2.428187430E-2,-1.481347065E-2,-8.399390616E-3
7.279981313E0,-8.704823442E-3,-2.703076601E-2,-7.177661173E-3
7.289981313E0,-2.703076601E-2,-3.802633286E-2,-9.621120058E-3
7.299981313E0,-3.191768378E-2,-3.924806044E-2,-8.399390616E-3
7.309981313E0,-2.336557768E-2,-2.092211880E-2,-9.621120058E-3
7.319981313E0,-1.481347065E-2,3.512472380E-3,-9.621120058E-3
7.329981313E0,2.290742937E-3,2.794706449E-2,-8.399390616E-3
7.339981313E0,1.084284950E-2,3.161225095E-2,-3.512472380E-3
7.349981313E0,1.572976820E-2,2.916879393E-2,1.527161949E-4
7.359981313E0,4.734201822E-3,1.817322709E-2,7.483093534E-3
7.369981313E0,-1.237001177E-2,7.177661173E-3,1.114828233E-2
7.379981313E0,-3.436114267E-2,-5.039634649E-3,1.237001177E-2
7.389981313E0,-4.902189970E-2,-1.374445739E-3,8.704823442E-3
7.399981313E0,-4.902189970E-2,1.572976820E-2,1.527161949E-4
7.409981313E0,-3.436114267E-2,2.550360374E-2,-4.734201822E-3
7.419981313E0,1.069013379E-3,3.161225095E-2,-3.512472380E-3
7.429981313E0,3.527744114E-2,3.649916872E-2,1.527161949E-4
7.439981313E0,5.604684353E-2,3.405570984E-2,-3.512472380E-3
7.449981313E0,5.971203372E-2,2.916879393E-2,-1.206457894E-2
7.459981313E0,5.238165334E-2,2.672533318E-2,-1.328630932E-2
7.469981313E0,3.772090003E-2,1.695149764E-2,-1.084284950E-2
7.479981313E0,3.161225095E-2,7.177661173E-3,-7.177661173E-3
7.489981313E0,2.672533318E-2,4.734201822E-3,-7.177661173E-3
7.499981313E0,1.328630932E-2,8.399390616E-3,-1.939495653E-2
7.509981313E0,3.512472380E-3,7.177661173E-3,-1.695149764E-2
7.519981313E0,-1.237001177E-2,4.734201822E-3,-4.734201822E-3
7.529981313E0,-2.825249545E-2,1.084284950E-2,-1.069013379E-3
7.539981313E0,-3.924806044E-2,1.817322709E-2,-4.734201822E-3
7.549981313E0,-2.947422490E-2,2.183841541E-2,-5.955931731E-3
7.559981313E0,3.512472380E-3,2.916879393E-2,-2.290742937E-3
7.569981313E0,4.016435891E-2,3.039052337E-2,-1.069013379E-3
7.579981313E0,5.604684353E-2,2.794706449E-2,1.527161949E-4
7.589981313E0,4.749473557E-2,2.672533318E-2,5.039634649E-3
7.599981313E0,2.428187430E-2,1.939495653E-2,8.704823442E-3
7.609981313E0,-1.603520103E-2,1.069013379E-3,8.704823442E-3
7.619981313E0,-4.169152305E-2,-9.926552884E-3,8.704823442E-3
7.629981313E0,-5.879573524E-2,-9.926552884E-3,1.114828233E-2
7.639981313E0,-5.024362728E-2,-1.114828233E-2,1.114828233E-2
7.649981313E0,-3.436114267E-2,-1.114828233E-2,7.483093534E-3
7.659981313E0,-1.725693047E-2,-1.527161949E-4,-2.290742937E-3
7.669981313E0,-9.926552884E-3,1.572976820E-2,-4.734201822E-3
7.679981313E0,-3.817904973E-3,3.527744114E-2,-4.734201822E-3
7.689981313E0,-1.374445739E-3,3.527744114E-2,1.527161949E-4
7.699981313E0,5.955931731E-3,2.306014486E-2,2.596175298E-3
7.709981313E0,1.206457894E-2,1.206457894E-2,1.527161949E-4
7.719981313E0,1.328630932E-2,4.734201822E-3,-3.512472380E-3
7.729981313E0,1.084284950E-2,7.177661173E-3,-8.399390616E-3
7.739981313E0,2.290742937E-3,1.084284950E-2,-1.206457894E-2
7.749981313E0,-9.926552884E-3,1.328630932E-2,-1.084284950E-2
7.759981313E0,-1.603520103E-2,1.084284950E-2,-1.328630932E-2
7.769981313E0,-2.092211880E-2,8.399390616E-3,-1.328630932E-2
7.779981313E0,-1.725693047E-2,9.621120058E-3,-9.621120058E-3
7.789981313E0,-9.926552884E-3,1.206457894E-2,-8.399390616E-3
7.799981313E0,-1.374445739E-3,1.939495653E-2,-3.512472380E-3
7.809981313E0,2.290742937E-3,2.672533318E-2,-1.069013379E-3
7.819981313E0,-3.817904973E-3,3.283398226E-2,2.596175298E-3
7.829981313E0,-1.114828233E-2,2.794706449E-2,1.527161949E-4
7.839981313E0,-2.092211880E-2,1.084284950E-2,-1.069013379E-3
7.849981313E0,-2.703076601E-2,-9.926552884E-3,-8.399390616E-3
7.859981313E0,-2.947422490E-2,-2.580903657E-2,-1.328630932E-2
7.869981313E0,-2.092211880E-2,-3.436114267E-2,-1.572976820E-2
7.879981313E0,-9.926552884E-3,-3.436114267E-2,-1.695149764E-2
7.889981313E0,5.955931731E-3,-2.580903657E-2,-1.450803876E-2
7.899981313E0,1.328630932E-2,-1.847865991E-2,-1.206457894E-2
7.909981313E0,1.572976820E-2,-1.114828233E-2,-7.177661173E-3
7.919981313E0,4.734201822E-3,-1.847865991E-2,-7.177661173E-3
7.929981313E0,-7.483093534E-3,-3.191768378E-2,-8.399390616E-3
7.939981313E0,-3.191768378E-2,-4.902189970E-2,-1.069013379E-3
7.949981313E0,-4.657844082E-2,-4.413498193E-2,1.527161949E-4
7.959981313E0,-5.268708616E-2,-3.069595434E-2,1.527161949E-4
7.969981313E0,-4.535670951E-2,-1.970038936E-2,1.374445739E-3
7.979981313E0,-2.580903657E-2,9.621120058E-3,1.527161949E-4
7.989981313E0,8.399390616E-3,1.572976820E-2,-5.955931731E-3
7.999981313E0,2.916879393E-2,1.206457894E-2,-8.399390616E-3
8.009981313E0,3.772090003E-2,-2.596175298E-3,-9.621120058E-3
8.019981313E0,1.939495653E-2,-1.374445739E-3,-5.955931731E-3
8.029981313E0,-1.603520103E-2,1.069013379E-3,-3.512472380E-3
8.039981313E0,-3.680460155E-2,2.290742937E-3,-2.290742937E-3
8.049981313E0,-4.046979174E-2,-6.261364091E-3,-8.399390616E-3
8.059981313E0,-2.092211880E-2,-1.603520103E-2,-9.621120058E-3
8.069981313E0,2.290742937E-3,-2.458730713E-2,-9.621120058E-3
8.079981313E0,9.621120058E-3,-2.580903657E-2,-4.734201822E-3
8.089981313E0,-8.704823442E-3,-2.214384824E-2,-1.069013379E-3
8.099981313E0,-4.169152305E-2,-7.483093534E-3,2.596175298E-3
8.109981313E0,-6.368265301E-2,-1.374445739E-3,3.817904973E-3
8.119981313E0,-6.246092543E-2,-3.817904973E-3,1.527161949E-4
8.129981313E0,-3.802633286E-2,-6.261364091E-3,-4.734201822E-3
8.139981313E0,-5.039634649E-3,-8.704823442E-3,-5.955931731E-3
8.149981313E0,3.772090003E-2,-1.481347065E-2,-3.512472380E-3
8.159981313E0,5.971203372E-2,-1.481347065E-2,1.374445739E-3
8.169981313E0,6.704241037E-2,-5.039634649E-3,6.261364091E-3
8.179981313E0,5.360338464E-2,-1.527161949E-4,6.261364091E-3
8.189981313E0,4.138609022E-2,1.069013379E-3,7.483093534E-3
8.199981313E0,2.550360374E-2,5.955931731E-3,8.704823442E-3
8.209981313E0,1.939495653E-2,3.512472380E-3,8.704823442E-3
8.219981313E0,1.084284950E-2,-3.817904973E-3,3.817904973E-3
8.229981313E0,1.069013379E-3,-8.704823442E-3,5.039634649E-3
8.239981313E0,-2.092211880E-2,-2.596175298E-3,2.596175298E-3
8.249981313E0,-4.291325063E-2,1.206457894E-2,3.817904973E-3
8.259981313E0,-5.635227636E-2,2.183841541E-2,7.483093534E-3
8.269981313E0,-5.635227636E-2,3.649916872E-2,1.237001177E-2
8.279981313E0,-4.291325063E-2,3.039052337E-2,1.481347065E-2
8.289981313E0,-1.481347065E-2,1.328630932E-2,1.114828233E-2
8.299981313E0,3.512472380E-3,-1.374445739E-3,5.039634649E-3
8.309981313E0,9.621120058E-3,-1.359174121E-2,1.374445739E-3
8.319981313E0,4.734201822E-3,-1.481347065E-2,1.374445739E-3
8.329981313E0,-2.596175298E-3,-1.114828233E-2,1.374445739E-3
8.339981313E0,-7.483093534E-3,-6.261364091E-3,5.039634649E-3
8.349981313E0,-9.926552884E-3,2.290742937E-3,6.261364091E-3
8.359981313E0,-2.596175298E-3,-3.817904973E-3,3.817904973E-3
8.369981313E0,1.069013379E-3,-8.704823442E-3,5.039634649E-3
8.379981313E0,7.177661173E-3,-8.704823442E-3,9.926552884E-3
8.389981313E0,8.399390616E-3,-3.817904973E-3,1.481347065E-2
8.399981313E0,1.450803876E-2,1.069013379E-3,1.359174121E-2
8.409981313E0,2.183841541E-2,-1.374445739E-3,9.926552884E-3
8.419981313E0,2.428187430E-2,-7.483093534E-3,6.261364091E-3
8.429981313E0,1.817322709E-2,-1.114828233E-2,-2.290742937E-3
8.439981313E0,-1.527161949E-4,-9.926552884E-3,-8.399390616E-3
8.449981313E0,-3.680460155E-2,-6.261364091E-3,-1.084284950E-2
8.459981313E0,-6.856957078E-2,2.290742937E-3,-3.512472380E-3
8.469981313E0,-8.323032409E-2,4.734201822E-3,3.817904973E-3
8.479981313E0,-6.246092543E-2,3.512472380E-3,6.261364091E-3
8.489981313E0,-1.970038936E-2,-7.483093534E-3,5.039634649E-3
8.499981313E0,4.871646687E-2,-2.092211880E-2,2.596175298E-3
8.509981313E0,9.269873053E-2,-2.214384824E-2,1.527161949E-4
8.519981313E0,1.146898642E-1,-1.359174121E-2,-1.069013379E-3
8.529981313E0,8.903354406E-2,-2.596175298E-3,1.527161949E-4
8.539981313E0,4.627300799E-2,-6.261364091E-3,3.817904973E-3
8.549981313E0,-6.261364091E-3,-1.603520103E-2,2.596175298E-3
8.559981313E0,-3.313941509E-2,-2.703076601E-2,1.527161949E-4
8.569981313E0,-4.780016840E-2,-3.069595434E-2,-4.734201822E-3
8.579981313E0,-4.657844082E-2,-2.458730713E-2,-9.621120058E-3
8.589981313E0,-5.024362728E-2,-7.483093534E-3,-1.695149764E-2
8.599981313E0,-6.001746282E-2,1.328630932E-2,-1.817322709E-2
8.609981313E0,-7.467821985E-2,1.817322709E-2,-1.695149764E-2
8.619981313E0,-7.467821985E-2,1.328630932E-2,-1.084284950E-2
8.629981313E0,-5.513054505E-2,-1.527161949E-4,-4.734201822E-3
8.639981313E0,-2.596175298E-3,-2.092211880E-2,3.817904973E-3
8.649981313E0,4.749473557E-2,-3.191768378E-2,3.817904973E-3
8.659981313E0,8.659008145E-2,-2.947422490E-2,1.527161949E-4
8.669981313E0,8.048143238E-2,-1.847865991E-2,-4.734201822E-3
8.679981313E0,4.627300799E-2,-6.261364091E-3,-4.734201822E-3
8.689981313E0,-8.704823442E-3,-1.374445739E-3,-3.512472380E-3
8.699981313E0,-4.046979174E-2,-3.817904973E-3,-3.512472380E-3
8.709981313E0,-4.291325063E-2,-6.261364091E-3,-2.290742937E-3
8.719981313E0,-2.214384824E-2,-1.527161949E-4,1.527161949E-4
8.729981313E0,8.399390616E-3,8.399390616E-3,7.483093534E-3
8.739981313E0,1.328630932E-2,1.206457894E-2,1.114828233E-2
8.749981313E0,-1.374445739E-3,9.621120058E-3,1.237001177E-2
8.759981313E0,-2.947422490E-2,-3.817904973E-3,1.237001177E-2
8.769981313E0,-4.413498193E-2,-1.237001177E-2,1.114828233E-2
8.779981313E0,-2.947422490E-2,-1.847865991E-2,5.039634649E-3
8.789981313E0,-3.817904973E-3,-1.603520103E-2,-2.290742937E-3
8.799981313E0,2.550360374E-2,1.069013379E-3,-5.955931731E-3
8.809981313E0,3.283398226E-2,1.939495653E-2,-3.512472380E-3
8.819981313E0,1.695149764E-2,3.039052337E-2,3.817904973E-3
8.829981313E0,-5.039634649E-3,2.916879393E-2,1.481347065E-2
8.839981313E0,-9.926552884E-3,1.450803876E-2,1.603520103E-2
8.849981313E0,-1.374445739E-3,-8.704823442E-3,1.481347065E-2
8.859981313E0,8.399390616E-3,-1.847865991E-2,8.704823442E-3
8.869981313E0,1.695149764E-2,-1.481347065E-2,5.039634649E-3
8.879981313E0,5.955931731E-3,-2.596175298E-3,2.596175298E-3
8.889981313E0,-1.237001177E-2,-1.374445739E-3,3.817904973E-3
8.899981313E0,-2.703076601E-2,-2.596175298E-3,3.817904973E-3
8.909981313E0,-2.214384824E-2,-7.483093534E-3,5.039634649E-3
8.919981313E0,3.512472380E-3,-9.926552884E-3,7.483093534E-3
8.929981313E0,2.794706449E-2,1.069013379E-3,8.704823442E-3
8.939981313E0,3.894263133E-2,1.695149764E-2,9.926552884E-3
8.949981313E0,1.939495653E-2,2.061668597E-2,1.603520103E-2
8.959981313E0,-8.704823442E-3,2.061668597E-2,1.725693047E-2
8.969981313E0,-3.313941509E-2,5.955931731E-3,1.603520103E-2
8.979981313E0,-2.947422490E-2,-9.926552884E-3,1.359174121E-2
8.989981313E0,4.734201822E-3,-2.580903657E-2,7.483093534E-3
8.999981313E0,3.649916872E-2,-1.847865991E-2,2.596175298E-3
9.009981313E0,5.360338464E-2,4.734201822E-3,1.527161949E-4
9.019981313E0,3.161225095E-2,2.916879393E-2,1.527161949E-4
9.029981313E0,-1.359174121E-2,4.016435891E-2,2.596175298E-3
9.039981313E0,-7.467821985E-2,3.527744114E-2,2.596175298E-3
9.049981313E0,-9.666935354E-2,1.328630932E-2,1.527161949E-4
9.059981313E0,-8.323032409E-2,-1.237001177E-2,-3.512472380E-3
9.069981313E0,-4.291325063E-2,-1.481347065E-2,-4.734201822E-3
9.079981313E0,1.817322709E-2,1.069013379E-3,-7.177661173E-3
9.089981313E0,5.604684353E-2,1.328630932E-2,-1.084284950E-2
9.099981313E0,6.459894776E-2,2.061668597E-2,-1.084284950E-2
9.109981313E0,5.115992576E-2,1.450803876E-2,-1.084284950E-2
9.119981313E0,3.527744114E-2,-2.596175298E-3,-1.206457894E-2
9.129981313E0,1.939495653E-2,-1.481347065E-2,-1.206457894E-2
9.139981313E0,8.399390616E-3,-1.374445739E-3,-8.399390616E-3
9.149981313E0,-9.926552884E-3,1.572976820E-2,-5.955931731E-3
9.159981313E0,-3.069595434E-2,1.939495653E-2,-3.512472380E-3
9.169981313E0,-3.924806044E-2,8.399390616E-3,-1.069013379E-3
9.179981313E0,-3.313941509E-2,-9.926552884E-3,1.374445739E-3
9.189981313E0,-1.603520103E-2,-1.970038936E-2,-1.069013379E-3
9.199981313E0,2.290742937E-3,-9.926552884E-3,-4.734201822E-3
9.209981313E0,2.290742937E-3,7.177661173E-3,-7.177661173E-3
9.219981313E0,-2.092211880E-2,1.328630932E-2,-9.621120058E-3
9.229981313E0,-5.879573524E-2,-2.596175298E-3,-9.621120058E-3
9.239981313E0,-8.323032409E-2,-3.558287397E-2,-5.955931731E-3
9.249981313E0,-9.544762224E-2,-7.467821985E-2,-8.399390616E-3
9.259981313E0,-8.323032409E-2,-6.856957078E-2,-9.621120058E-3
9.269981313E0,-5.146535859E-2,-5.757400393E-2,-1.084284950E-2
9.279981313E0,-2.214384824E-2,-2.336557768E-2,-5.955931731E-3
9.289981313E0,9.621120058E-3,2.794706449E-2,5.039634649E-3
9.299981313E0,3.039052337E-2,4.627300799E-2,1.114828233E-2
9.309981313E0,3.894263133E-2,3.039052337E-2,8.704823442E-3
9.319981313E0,3.649916872E-2,2.290742937E-3,2.596175298E-3
9.329981313E0,2.428187430E-2,-1.481347065E-2,-2.290742937E-3
9.339981313E0,-1.374445739E-3,-1.847865991E-2,-7.177661173E-3
9.349981313E0,-2.580903657E-2,-8.704823442E-3,-1.572976820E-2
9.359981313E0,-5.146535859E-2,7.177661173E-3,-2.183841541E-2
9.369981313E0,-5.390881747E-2,1.450803876E-2,-1.817322709E-2
9.379981313E0,-2.580903657E-2,1.328630932E-2,-1.084284950E-2
9.389981313E0,1.817322709E-2,4.734201822E-3,2.596175298E-3
9.399981313E0,5.726857483E-2,-1.374445739E-3,1.374445739E-3
9.409981313E0,8.781181276E-2,9.621120058E-3,-1.069013379E-3
9.419981313E0,7.925970852E-2,1.817322709E-2,1.374445739E-3
9.429981313E0,3.405570984E-2,1.939495653E-2,5.039634649E-3
9.439981313E0,-1.847865991E-2,2.306014486E-2,6.261364091E-3
9.449981313E0,-4.291325063E-2,1.817322709E-2,6.261364091E-3
9.459981313E0,-4.413498193E-2,7.177661173E-3,1.374445739E-3
9.469981313E0,-2.947422490E-2,1.084284950E-2,-2.290742937E-3
9.479981313E0,-7.483093534E-3,2.428187430E-2,-2.290742937E-3
9.489981313E0,2.290742937E-3,3.161225095E-2,2.596175298E-3
9.499981313E0,1.084284950E-2,2.183841541E-2,1.114828233E-2
9.509981313E0,2.428187430E-2,5.955931731E-3,1.481347065E-2
9.519981313E0,4.505127668E-2,-1.359174121E-2,1.237001177E-2
9.529981313E0,6.459894776E-2,-2.825249545E-2,1.527161949E-4
9.539981313E0,5.971203372E-2,-1.847865991E-2,-8.399390616E-3
9.549981313E0,1.817322709E-2,-1.374445739E-3,-1.328630932E-2
9.559981313E0,-3.436114267E-2,3.512472380E-3,-1.450803876E-2
9.569981313E0,-9.178243577E-2,-1.374445739E-3,-1.695149764E-2
9.579981313E0,-1.101083755E-1,-7.483093534E-3,-1.817322709E-2
9.589981313E0,-9.544762224E-2,-7.483093534E-3,-1.572976820E-2
9.599981313E0,-5.390881747E-2,4.734201822E-3,-8.399390616E-3
9.609981313E0,-1.970038936E-2,1.817322709E-2,-1.069013379E-3
9.619981313E0,2.306014486E-2,1.328630932E-2,7.483093534E-3
9.629981313E0,5.238165334E-2,-3.817904973E-3,1.237001177E-2
9.639981313E0,7.315105945E-2,-2.825249545E-2,1.359174121E-2
9.649981313E0,7.803797722E-2,-2.336557768E-2,9.926552884E-3
9.659981313E0,6.093376130E-2,-1.374445739E-3,5.039634649E-3
9.669981313E0,2.306014486E-2,1.572976820E-2,-1.069013379E-3
9.679981313E0,-1.481347065E-2,1.817322709E-2,-3.512472380E-3
9.689981313E0,-5.146535859E-2,1.084284950E-2,-5.955931731E-3
9.699981313E0,-6.246092543E-2,-1.114828233E-2,-1.328630932E-2
9.709981313E0,-5.757400393E-2,-1.970038936E-2,-2.061668597E-2
9.719981313E0,-4.413498193E-2,-2.336557768E-2,-2.916879393E-2
9.729981313E0,-4.046979174E-2,-2.458730713E-2,-3.283398226E-2
9.739981313E0,-4.657844082E-2,-1.970038936E-2,-3.039052337E-2
9.749981313E0,-4.657844082E-2,-1.847865991E-2,-2.672533318E-2
9.759981313E0,-3.069595434E-2,-1.725693047E-2,-2.061668597E-2
9.769981313E0,1.084284950E-2,-1.847865991E-2,-1.450803876E-2
9.779981313E0,5.238165334E-2,-6.261364091E-3,-1.206457894E-2
9.789981313E0,9.880737960E-2,2.794706449E-2,-8.399390616E-3
9.799981313E0,1.110246703E-1,5.726857483E-2,-1.069013379E-3
9.809981313E0,9.636391699E-2,7.192932814E-2,5.039634649E-3
9.819981313E0,7.559451461E-2,6.582067907E-2,8.704823442E-3
9.829981313E0,5.482511222E-2,5.482511222E-2,2.214384824E-2
9.839981313E0,5.604684353E-2,5.849030241E-2,3.558287397E-2
9.849981313E0,8.048143238E-2,6.215549260E-2,4.291325063E-2
9.859981313E0,1.000291109E-1,7.559451461E-2,3.680460155E-2
9.869981313E0,1.000291109E-1,6.704241037E-2,2.825249545E-2
9.879981313E0,7.437278330E-2,3.039052337E-2,2.214384824E-2
9.889981313E0,4.505127668E-2,-6.261364091E-3,1.603520103E-2
9.899981313E0,2.290742937E-3,-3.802633286E-2,2.596175298E-3
9.909981313E0,-4.169152305E-2,-3.802633286E-2,-1.206457894E-2
9.919981313E0,-7.345648855E-2,-2.092211880E-2,-2.183841541E-2
9.929981313E0,-9.789107740E-2,-1.527161949E-4,-2.183841541E-2
9.939981313E0,-9.544762224E-2,-1.527161949E-4,-2.061668597E-2
9.949981313E0,-5.879573524E-2,-8.704823442E-3,-9.621120058E-3
9.959981313E0,-9.926552884E-3,-7.483093534E-3,-4.734201822E-3
9.969981313E0,4.993819445E-2,5.955931731E-3,-5.955931731E-3
9.979981313E0,7.681624591E-2,2.061668597E-2,-4.734201822E-3
9.989981313E0,6.704241037E-2,1.572976820E-2,-2.290742937E-3
9.999981313E0,3.649916872E-2,-3.817904973E-3,1.374445739E-3
1.000998131E1,1.206457894E-2,-2.092211880E-2,5.039634649E-3
1.001998131E1,2.290742937E-3,-2.458730713E-2,7.483093534E-3
1.002998131E1,3.512472380E-3,-9.926552884E-3,1.114828233E-2
1.003998131E1,3.512472380E-3,1.939495653E-2,1.970038936E-2
1.004998131E1,-9.926552884E-3,2.672533318E-2,2.825249545E-2
1.005998131E1,-2.092211880E-2,1.939495653E-2,3.069595434E-2
1.006998131E1,-2.580903657E-2,-5.039634649E-3,2.336557768E-2
1.007998131E1,-2.092211880E-2,-2.092211880E-2,1.359174121E-2
1.008998131E1,-8.704823442E-3,-1.970038936E-2,3.817904973E-3
1.009998131E1,-5.039634649E-3,-8.704823442E-3,-3.512472380E-3
1.010998131E1,-1.603520103E-2,-6.261364091E-3,-1.084284950E-2
1.011998131E1,-2.825249545E-2,-1.847865991E-2,-1.450803876E-2
1.012998131E1,-2.825249545E-2,-3.436114267E-2,-2.061668597E-2
1.013998131E1,-8.704823442E-3,-4.046979174E-2,-2.672533318E-2
1.014998131E1,4.734201822E-3,-3.436114267E-2,-2.916879393E-2
1.015998131E1,3.512472380E-3,-1.114828233E-2,-2.916879393E-2
1.016998131E1,-1.847865991E-2,3.512472380E-3,-2.672533318E-2
1.017998131E1,-5.024362728E-2,9.621120058E-3,-1.206457894E-2
1.018998131E1,-6.123919412E-2,1.069013379E-3,-2.290742937E-3
1.019998131E1,-3.680460155E-2,-7.483093534E-3,1.527161949E-4
1.020998131E1,2.550360374E-2,-7.483093534E-3,3.817904973E-3
1.021998131E1,8.170316368E-2,3.512472380E-3,1.374445739E-3
1.022998131E1,1.220202371E-1,2.306014486E-2,1.527161949E-4
1.023998131E1,1.085812151E-1,2.794706449E-2,3.817904973E-3
1.024998131E1,4.382954910E-2,1.084284950E-2,8.704823442E-3
1.025998131E1,-4.657844082E-2,-1.114828233E-2,1.114828233E-2
1.026998131E1,-1.149952933E-1,-1.847865991E-2,9.926552884E-3
1.027998131E1,-1.687513888E-1,-1.970038936E-2,3.817904973E-3
1.028998131E1,-1.711948514E-1,-1.970038936E-2,1.527161949E-4
1.029998131E1,-1.247691289E-1,-1.237001177E-2,1.527161949E-4
1.030998131E1,-6.612611562E-2,-7.483093534E-3,2.596175298E-3
1.031998131E1,2.183841541E-2,2.290742937E-3,1.527161949E-4
1.032998131E1,8.170316368E-2,1.328630932E-2,-4.734201822E-3
1.033998131E1,9.269873053E-2,2.183841541E-2,-8.399390616E-3
1.034998131E1,6.459894776E-2,1.084284950E-2,-8.399390616E-3
1.035998131E1,2.794706449E-2,-1.237001177E-2,-7.177661173E-3
1.036998131E1,-8.704823442E-3,-3.680460155E-2,-8.399390616E-3
1.037998131E1,-1.359174121E-2,-5.024362728E-2,-1.206457894E-2
1.038998131E1,1.069013379E-3,-3.924806044E-2,-1.572976820E-2
1.039998131E1,2.306014486E-2,-5.039634649E-3,-1.450803876E-2
1.040998131E1,2.916879393E-2,1.817322709E-2,-1.206457894E-2
1.041998131E1,3.039052337E-2,2.916879393E-2,-7.177661173E-3
1.042998131E1,2.550360374E-2,2.550360374E-2,-2.290742937E-3
1.043998131E1,1.939495653E-2,1.695149764E-2,-4.734201822E-3
1.044998131E1,9.621120058E-3,2.183841541E-2,-4.734201822E-3
1.045998131E1,-1.970038936E-2,2.306014486E-2,-7.177661173E-3
1.046998131E1,-5.879573524E-2,1.206457894E-2,-4.734201822E-3
1.047998131E1,-8.445205539E-2,-5.039634649E-3,1.527161949E-4
1.048998131E1,-8.323032409E-2,-2.825249545E-2,6.261364091E-3
1.049998131E1,-5.390881747E-2,-3.924806044E-2,6.261364091E-3
1.050998131E1,4.734201822E-3,-2.947422490E-2,2.596175298E-3
1.051998131E1,4.382954910E-2,-6.261364091E-3,2.596175298E-3
1.052998131E1,7.192932814E-2,2.061668597E-2,5.039634649E-3
1.053998131E1,7.437278330E-2,2.061668597E-2,9.926552884E-3
1.054998131E1,7.315105945E-2,9.621120058E-3,1.359174121E-2
1.055998131E1,6.948586553E-2,-1.527161949E-4,1.359174121E-2
1.056998131E1,6.582067907E-2,4.734201822E-3,9.926552884E-3
1.057998131E1,3.894263133E-2,1.206457894E-2,3.817904973E-3
1.058998131E1,3.512472380E-3,7.177661173E-3,5.039634649E-3
1.059998131E1,-4.902189970E-2,-9.926552884E-3,5.039634649E-3
1.060998131E1,-8.811724186E-2,-1.725693047E-2,5.039634649E-3
1.061998131E1,-9.666935354E-2,-1.359174121E-2,-1.069013379E-3
1.062998131E1,-7.712167501E-2,3.512472380E-3,-3.512472380E-3
1.063998131E1,-4.902189970E-2,3.039052337E-2,-4.734201822E-3
1.064998131E1,-1.374445739E-3,4.993819445E-2,1.527161949E-4
1.065998131E1,3.772090003E-2,4.382954910E-2,5.039634649E-3
1.066998131E1,8.659008145E-2,3.283398226E-2,1.359174121E-2
1.067998131E1,1.110246703E-1,1.450803876E-2,1.847865991E-2
1.068998131E1,1.012508348E-1,-1.527161949E-4,1.970038936E-2
1.069998131E1,5.360338464E-2,-9.926552884E-3,2.092211880E-2
1.070998131E1,3.512472380E-3,-1.114828233E-2,2.214384824E-2
1.071998131E1,-5.024362728E-2,-1.359174121E-2,1.725693047E-2
1.072998131E1,-7.101303339E-2,-1.603520103E-2,8.704823442E-3
1.073998131E1,-7.101303339E-2,-2.596175298E-3,-7.177661173E-3
1.074998131E1,-6.246092543E-2,2.183841541E-2,-1.572976820E-2
1.075998131E1,-6.001746282E-2,3.405570984E-2,-1.572976820E-2
1.076998131E1,-5.757400393E-2,3.283398226E-2,-9.621120058E-3
1.077998131E1,-4.780016840E-2,2.306014486E-2,-1.069013379E-3
1.078998131E1,-6.261364091E-3,-6.261364091E-3,6.261364091E-3
1.079998131E1,4.016435891E-2,-2.092211880E-2,8.704823442E-3
1.080998131E1,9.636391699E-2,-1.725693047E-2,1.114828233E-2
1.081998131E1,1.207985133E-1,-1.114828233E-2,8.704823442E-3
1.082998131E1,1.061377525E-1,-8.704823442E-3,6.261364091E-3
1.083998131E1,6.093376130E-2,-2.596175298E-3,6.261364091E-3
1.084998131E1,1.450803876E-2,-6.261364091E-3,1.527161949E-4
1.085998131E1,-4.291325063E-2,-2.596175298E-3,-5.955931731E-3
1.086998131E1,-7.589995116E-2,8.399390616E-3,-9.621120058E-3
1.087998131E1,-1.027780026E-1,2.672533318E-2,-1.084284950E-2
1.088998131E1,-1.137735620E-1,3.039052337E-2,-7.177661173E-3
1.089998131E1,-1.113301069E-1,2.916879393E-2,-1.069013379E-3
1.090998131E1,-9.300415963E-2,1.817322709E-2,7.483093534E-3
1.091998131E1,-6.734783947E-2,2.290742937E-3,1.359174121E-2
1.092998131E1,-1.481347065E-2,-2.336557768E-2,1.970038936E-2
1.093998131E1,3.527744114E-2,-3.924806044E-2,1.970038936E-2
1.094998131E1,9.025526792E-2,-5.024362728E-2,1.359174121E-2
1.095998131E1,1.146898642E-1,-4.535670951E-2,2.596175298E-3
1.096998131E1,9.880737960E-2,-2.825249545E-2,-2.290742937E-3
1.097998131E1,5.115992576E-2,-1.374445739E-3,1.527161949E-4
1.098998131E1,4.734201822E-3,8.399390616E-3,5.039634649E-3
1.099998131E1,-2.947422490E-2,5.955931731E-3,1.114828233E-2
1.100998131E1,-3.191768378E-2,1.069013379E-3,9.926552884E-3
1.101998131E1,-1.847865991E-2,-5.039634649E-3,2.596175298E-3
1.102998131E1,-1.481347065E-2,-5.039634649E-3,-4.734201822E-3
1.103998131E1,-3.436114267E-2,4.734201822E-3,-5.955931731E-3
1.104998131E1,-6.856957078E-2,-1.527161949E-4,-1.069013379E-3
1.105998131E1,-8.811724186E-2,-1.237001177E-2,-1.069013379E-3
1.106998131E1,-7.467821985E-2,-1.970038936E-2,-4.734201822E-3
1.107998131E1,-3.191768378E-2,-1.114828233E-2,-8.399390616E-3
1.108998131E1,2.794706449E-2,4.734201822E-3,-1.206457894E-2
1.109998131E1,6.826414168E-2,1.328630932E-2,-1.328630932E-2
1.110998131E1,7.437278330E-2,3.512472380E-3,-9.621120058E-3
1.111998131E1,6.459894776E-2,-1.847865991E-2,-2.290742937E-3
1.112998131E1,5.726857483E-2,-3.313941509E-2,1.527161949E-4
1.113998131E1,5.238165334E-2,-2.336557768E-2,3.817904973E-3
1.114998131E1,3.894263133E-2,2.290742937E-3,6.261364091E-3
1.115998131E1,1.206457894E-2,1.939495653E-2,9.926552884E-3
1.116998131E1,-2.458730713E-2,7.177661173E-3,9.926552884E-3
1.117998131E1,-4.413498193E-2,-1.725693047E-2,9.926552884E-3
1.118998131E1,-4.291325063E-2,-3.558287397E-2,6.261364091E-3
1.119998131E1,-2.336557768E-2,-3.313941509E-2,-2.290742937E-3
1.120998131E1,1.069013379E-3,-1.237001177E-2,-1.450803876E-2
1.121998131E1,4.734201822E-3,9.621120058E-3,-1.450803876E-2
1.122998131E1,-1.725693047E-2,2.061668597E-2,-9.621120058E-3
1.123998131E1,-5.024362728E-2,7.177661173E-3,-2.290742937E-3
1.124998131E1,-6.123919412E-2,-2.596175298E-3,3.817904973E-3
1.125998131E1,-4.046979174E-2,-1.374445739E-3,1.237001177E-2
1.126998131E1,4.734201822E-3,4.734201822E-3,1.237001177E-2
1.127998131E1,7.681624591E-2,1.450803876E-2,8.704823442E-3
1.128998131E1,1.244636998E-1,2.428187430E-2,3.817904973E-3
1.129998131E1,1.183550507E-1,2.672533318E-2,1.527161949E-4
1.130998131E1,5.971203372E-2,3.283398226E-2,1.374445739E-3
1.131998131E1,-1.114828233E-2,3.161225095E-2,5.039634649E-3
1.132998131E1,-1.003345400E-1,1.206457894E-2,6.261364091E-3
1.133998131E1,-1.394298822E-1,-1.237001177E-2,6.261364091E-3
1.134998131E1,-1.259908676E-1,-2.336557768E-2,1.527161949E-4
1.135998131E1,-5.390881747E-2,-1.970038936E-2,-4.734201822E-3
1.136998131E1,1.939495653E-2,5.955931731E-3,-8.399390616E-3
1.137998131E1,9.514218569E-2,3.649916872E-2,-9.621120058E-3
1.138998131E1,1.256854236E-1,4.871646687E-2,-9.621120058E-3
1.139998131E1,1.244636998E-1,4.016435891E-2,-9.621120058E-3
1.140998131E1,9.392046183E-2,2.428187430E-2,-5.955931731E-3
1.141998131E1,3.527744114E-2,-2.596175298E-3,1.527161949E-4
1.142998131E1,-2.336557768E-2,-1.847865991E-2,5.039634649E-3
1.143998131E1,-5.635227636E-2,-2.336557768E-2,8.704823442E-3
1.144998131E1,-6.734783947E-2,-2.825249545E-2,2.596175298E-3
1.145998131E1,-5.146535859E-2,-2.825249545E-2,-5.955931731E-3
1.146998131E1,-1.847865991E-2,-6.261364091E-3,-1.817322709E-2
1.147998131E1,5.955931731E-3,2.061668597E-2,-2.306014486E-2
1.148998131E1,1.939495653E-2,4.382954910E-2,-2.550360374E-2
1.149998131E1,1.206457894E-2,4.871646687E-2,-1.817322709E-2
1.150998131E1,-3.817904973E-3,3.772090003E-2,-8.399390616E-3
1.151998131E1,-1.603520103E-2,1.450803876E-2,5.039634649E-3
1.152998131E1,-1.603520103E-2,-1.527161949E-4,1.237001177E-2
1.153998131E1,2.290742937E-3,-1.237001177E-2,1.725693047E-2
1.154998131E1,2.428187430E-2,-2.214384824E-2,1.237001177E-2
1.155998131E1,4.627300799E-2,-2.825249545E-2,3.817904973E-3
1.156998131E1,4.993819445E-2,-1.847865991E-2,-7.177661173E-3
1.157998131E1,3.283398226E-2,3.512472380E-3,-9.621120058E-3
1.158998131E1,-6.261364091E-3,3.405570984E-2,-2.290742937E-3
1.159998131E1,-3.924806044E-2,4.260781780E-2,1.374445739E-3
1.160998131E1,-6.001746282E-2,2.550360374E-2,6.261364091E-3
1.161998131E1,-5.024362728E-2,1.084284950E-2,6.261364091E-3
1.162998131E1,-8.704823442E-3,-2.596175298E-3,6.261364091E-3
1.163998131E1,4.138609022E-2,-3.817904973E-3,6.261364091E-3
1.164998131E1,6.826414168E-2,3.512472380E-3,6.261364091E-3
1.165998131E1,7.437278330E-2,8.399390616E-3,5.039634649E-3
1.166998131E1,5.360338464E-2,2.290742937E-3,-1.069013379E-3
1.167998131E1,5.955931731E-3,-9.926552884E-3,-7.177661173E-3
1.168998131E1,-4.046979174E-2,-8.704823442E-3,-9.621120058E-3
1.169998131E1,-8.567378670E-2,1.069013379E-3,-8.399390616E-3
1.170998131E1,-1.003345400E-1,2.290742937E-3,-7.177661173E-3
1.171998131E1,-7.834340632E-2,-1.527161949E-4,-4.734201822E-3
1.172998131E1,-1.847865991E-2,-3.817904973E-3,-2.290742937E-3
1.173998131E1,3.894263133E-2,3.512472380E-3,-1.069013379E-3
1.174998131E1,8.536835015E-2,1.450803876E-2,-1.069013379E-3
1.175998131E1,8.903354406E-2,2.306014486E-2,-1.069013379E-3
1.176998131E1,6.093376130E-2,1.695149764E-2,2.596175298E-3
1.177998131E1,1.572976820E-2,-8.704823442E-3,2.596175298E-3
1.178998131E1,-1.725693047E-2,-2.703076601E-2,-5.955931731E-3
1.179998131E1,-4.046979174E-2,-4.413498193E-2,-1.817322709E-2
1.180998131E1,-4.535670951E-2,-4.169152305E-2,-2.550360374E-2
1.181998131E1,-4.657844082E-2,-2.214384824E-2,-2.794706449E-2
1.182998131E1,-3.924806044E-2,-6.261364091E-3,-2.550360374E-2
1.183998131E1,-2.336557768E-2,9.621120058E-3,-2.183841541E-2
1.184998131E1,-7.483093534E-3,1.939495653E-2,-1.328630932E-2
1.185998131E1,-1.527161949E-4,2.428187430E-2,-7.177661173E-3
1.186998131E1,-1.374445739E-3,2.183841541E-2,3.817904973E-3
1.187998131E1,-5.039634649E-3,1.084284950E-2,1.114828233E-2
1.188998131E1,-7.483093534E-3,-1.359174121E-2,1.725693047E-2
1.189998131E1,-2.596175298E-3,-2.336557768E-2,1.603520103E-2
1.190998131E1,9.621120058E-3,-2.214384824E-2,1.359174121E-2
1.191998131E1,1.939495653E-2,-8.704823442E-3,8.704823442E-3
1.192998131E1,2.306014486E-2,1.206457894E-2,5.039634649E-3
1.193998131E1,2.290742937E-3,3.894263133E-2,1.527161949E-4
1.194998131E1,-2.825249545E-2,3.405570984E-2,-4.734201822E-3
1.195998131E1,-6.123919412E-2,2.550360374E-2,1.527161949E-4
1.196998131E1,-7.467821985E-2,1.572976820E-2,5.039634649E-3
1.197998131E1,-7.101303339E-2,-1.114828233E-2,8.704823442E-3
1.198998131E1,-4.535670951E-2,-1.970038936E-2,1.114828233E-2
1.199998131E1,-9.926552884E-3,-1.725693047E-2,1.114828233E-2
1.200998131E1,2.794706449E-2,-1.359174121E-2,8.704823442E-3
1.201998131E1,4.260781780E-2,-3.817904973E-3,2.596175298E-3
1.202998131E1,3.894263133E-2,1.206457894E-2,-1.069013379E-3
1.203998131E1,2.183841541E-2,1.450803876E-2,-2.290742937E-3
1.204998131E1,-1.114828233E-2,1.817322709E-2,5.039634649E-3
1.205998131E1,-3.680460155E-2,1.939495653E-2,1.725693047E-2
1.206998131E1,-5.024362728E-2,2.550360374E-2,2.947422490E-2
1.207998131E1,-4.657844082E-2,2.550360374E-2,3.436114267E-2
1.208998131E1,-2.703076601E-2,2.672533318E-2,4.046979174E-2
1.209998131E1,2.290742937E-3,3.283398226E-2,4.413498193E-2
1.210998131E1,2.183841541E-2,4.138609022E-2,3.924806044E-2
1.211998131E1,3.772090003E-2,3.649916872E-2,1.725693047E-2
1.212998131E1,3.894263133E-2,4.734201822E-3,2.596175298E-3
1.213998131E1,2.794706449E-2,-1.847865991E-2,1.527161949E-4
1.214998131E1,1.572976820E-2,-2.458730713E-2,-7.177661173E-3
1.215998131E1,1.206457894E-2,-3.191768378E-2,-1.206457894E-2
1.216998131E1,9.621120058E-3,-2.580903657E-2,-1.206457894E-2
1.217998131E1,4.734201822E-3,-8.704823442E-3,-5.955931731E-3
1.218998131E1,-7.483093534E-3,2.672533318E-2,9.926552884E-3
1.219998131E1,-1.603520103E-2,5.482511222E-2,2.092211880E-2
1.220998131E1,-2.336557768E-2,5.726857483E-2,3.191768378E-2
1.221998131E1,-3.069595434E-2,5.726857483E-2,3.680460155E-2
1.222998131E1,-3.558287397E-2,4.505127668E-2,3.924806044E-2
1.223998131E1,-3.558287397E-2,2.550360374E-2,2.336557768E-2
1.224998131E1,-3.313941509E-2,-1.527161949E-4,7.483093534E-3
1.225998131E1,-1.725693047E-2,-1.603520103E-2,-5.955931731E-3
1.226998131E1,-7.483093534E-3,-1.359174121E-2,-8.399390616E-3
1.227998131E1,-1.527161949E-4,-1.374445739E-3,-1.206457894E-2
1.228998131E1,-1.114828233E-2,1.572976820E-2,2.336557768E-2
1.229998131E1,-2.825249545E-2,2.550360374E-2,2.703076601E-2
1.230998131E1,-4.535670951E-2,2.916879393E-2,2.092211880E-2
1.231998131E1,-6.490438432E-2,1.450803876E-2,2.458730713E-2
1.232998131E1,-8.567378670E-2,1.450803876E-2,6.490438432E-2
1.233998131E1,-1.088866442E-1,3.527744114E-2,7.223475724E-2
1.234998131E1,-1.174387559E-1,3.772090003E-2,5.513054505E-2
1.235998131E1,-1.333212405E-1,5.360338464E-2,2.825249545E-2
1.236998131E1,-1.430950761E-1,5.238165334E-2,1.970038936E-2
1.237998131E1,-1.443168074E-1,6.337722391E-2,2.214384824E-2
1.238998131E1,-1.382081509E-1,5.971203372E-2,2.458730713E-2
1.239998131E1,-1.149952933E-1,5.604684353E-2,1.970038936E-2
1.240998131E1,-7.467821985E-2,4.993819445E-2,1.725693047E-2
1.241998131E1,-3.924806044E-2,4.627300799E-2,7.483093534E-3
1.242998131E1,2.290742937E-3,4.382954910E-2,-1.069013379E-3
1.243998131E1,3.039052337E-2,4.382954910E-2,1.527161949E-4
1.244998131E1,5.849030241E-2,4.749473557E-2,2.596175298E-3
1.245998131E1,6.337722391E-2,4.016435891E-2,-2.290742937E-3
1.246998131E1,4.138609022E-2,2.916879393E-2,-7.177661173E-3
1.247998131E1,2.290742937E-3,2.550360374E-2,-3.512472380E-3
1.248998131E1,-2.947422490E-2,4.016435891E-2,-2.290742937E-3
1.249998131E1,-5.879573524E-2,6.582067907E-2,-2.290742937E-3
1.250998131E1,-7.589995116E-2,6.826414168E-2,-4.734201822E-3
1.251998131E1,-7.712167501E-2,6.704241037E-2,-8.399390616E-3
1.252998131E1,-6.734783947E-2,5.726857483E-2,-1.084284950E-2
1.253998131E1,-3.069595434E-2,4.138609022E-2,-1.695149764E-2
1.254998131E1,-1.114828233E-2,2.794706449E-2,-2.306014486E-2
1.255998131E1,-5.039634649E-3,2.550360374E-2,-1.084284950E-2
1.256998131E1,-8.704823442E-3,1.572976820E-2,2.596175298E-3
1.257998131E1,-8.704823442E-3,1.939495653E-2,9.926552884E-3
1.258998131E1,1.069013379E-3,3.527744114E-2,1.359174121E-2
1.259998131E1,7.177661173E-3,4.871646687E-2,1.114828233E-2
1.260998131E1,1.084284950E-2,5.971203372E-2,3.817904973E-3
1.261998131E1,1.328630932E-2,5.360338464E-2,1.527161949E-4
1.262998131E1,7.177661173E-3,2.916879393E-2,-7.177661173E-3
1.263998131E1,-7.483093534E-3,-1.374445739E-3,-1.084284950E-2
1.264998131E1,-1.603520103E-2,-2.092211880E-2,-7.177661173E-3
1.265998131E1,-1.847865991E-2,-2.825249545E-2,-2.290742937E-3
1.266998131E1,-1.359174121E-2,-1.847865991E-2,-2.290742937E-3
1.267998131E1,-1.374445739E-3,-1.527161949E-4,-1.084284950E-2
1.268998131E1,7.177661173E-3,1.939495653E-2,-2.550360374E-2
1.269998131E1,4.734201822E-3,3.283398226E-2,-3.405570984E-2
1.270998131E1,-1.237001177E-2,3.527744114E-2,-3.649916872E-2
1.271998131E1,-2.947422490E-2,2.550360374E-2,-3.894263133E-2
1.272998131E1,-4.169152305E-2,-1.527161949E-4,-4.382954910E-2
1.273998131E1,-5.268708616E-2,-1.725693047E-2,-3.283398226E-2
1.274998131E1,-5.268708616E-2,-1.970038936E-2,-8.399390616E-3
1.275998131E1,-3.558287397E-2,-1.481347065E-2,6.261364091E-3
1.276998131E1,-1.725693047E-2,-1.374445739E-3,1.237001177E-2
1.277998131E1,1.069013379E-3,1.084284950E-2,7.483093534E-3
1.278998131E1,1.069013379E-3,9.621120058E-3,-5.955931731E-3
1.279998131E1,-8.704823442E-3,3.512472380E-3,-3.039052337E-2
1.280998131E1,-2.092211880E-2,-9.926552884E-3,-3.894263133E-2
1.281998131E1,-3.558287397E-2,-2.336557768E-2,-3.772090003E-2
1.282998131E1,-3.802633286E-2,-3.069595434E-2,-3.527744114E-2
1.283998131E1,-2.703076601E-2,-2.580903657E-2,-2.916879393E-2
1.284998131E1,-5.039634649E-3,-8.704823442E-3,-1.450803876E-2
1.285998131E1,8.399390616E-3,1.206457894E-2,-5.955931731E-3
1.286998131E1,9.621120058E-3,1.206457894E-2,-1.069013379E-3
1.287998131E1,-3.817904973E-3,-1.847865991E-2,-3.512472380E-3
1.288998131E1,-1.603520103E-2,-4.780016840E-2,-7.177661173E-3
1.289998131E1,-2.336557768E-2,-6.734783947E-2,-7.177661173E-3
1.290998131E1,-2.092211880E-2,-6.490438432E-2,-1.450803876E-2
1.291998131E1,-2.596175298E-3,-5.268708616E-2,-1.572976820E-2
1.292998131E1,2.550360374E-2,-3.069595434E-2,-1.572976820E-2
1.293998131E1,5.360338464E-2,7.177661173E-3,-9.621120058E-3
1.294998131E1,6.215549260E-2,2.672533318E-2,-7.177661173E-3
1.295998131E1,5.971203372E-2,2.916879393E-2,-5.955931731E-3
1.296998131E1,4.627300799E-2,1.328630932E-2,-4.734201822E-3
1.297998131E1,3.161225095E-2,-1.114828233E-2,6.261364091E-3
1.298998131E1,1.939495653E-2,-2.825249545E-2,2.214384824E-2
1.299998131E1,5.955931731E-3,-2.947422490E-2,2.580903657E-2
1.300998131E1,-7.483093534E-3,-1.359174121E-2,1.970038936E-2
1.301998131E1,-2.580903657E-2,-5.039634649E-3,6.261364091E-3
1.302998131E1,-3.802633286E-2,-7.483093534E-3,-1.069013379E-3
1.303998131E1,-4.780016840E-2,-1.603520103E-2,-4.734201822E-3
1.304998131E1,-5.024362728E-2,-1.237001177E-2,-4.734201822E-3
1.305998131E1,-4.535670951E-2,-1.359174121E-2,-1.206457894E-2
1.306998131E1,-3.436114267E-2,-1.114828233E-2,-1.450803876E-2
1.307998131E1,-8.704823442E-3,-6.261364091E-3,-2.290742937E-3
1.308998131E1,1.939495653E-2,2.290742937E-3,1.114828233E-2
1.309998131E1,3.527744114E-2,5.955931731E-3,1.603520103E-2
1.310998131E1,4.871646687E-2,1.450803876E-2,1.847865991E-2
1.311998131E1,4.871646687E-2,1.939495653E-2,2.214384824E-2
1.312998131E1,3.527744114E-2,1.695149764E-2,1.847865991E-2
1.313998131E1,1.572976820E-2,3.512472380E-3,1.359174121E-2
1.314998131E1,-1.114828233E-2,-1.603520103E-2,8.704823442E-3
1.315998131E1,-2.947422490E-2,-3.802633286E-2,2.596175298E-3
1.316998131E1,-3.680460155E-2,-3.680460155E-2,-3.512472380E-3
1.317998131E1,-2.703076601E-2,-1.374445739E-3,-7.177661173E-3
1.318998131E1,-9.926552884E-3,3.527744114E-2,-9.621120058E-3
1.319998131E1,4.734201822E-3,6.215549260E-2,-1.695149764E-2
1.320998131E1,3.512472380E-3,5.238165334E-2,-2.306014486E-2
1.321998131E1,-1.237001177E-2,9.621120058E-3,-2.916879393E-2
1.322998131E1,-3.069595434E-2,-4.046979174E-2,-2.183841541E-2
1.323998131E1,-4.291325063E-2,-5.879573524E-2,-1.572976820E-2
1.324998131E1,-5.146535859E-2,-4.657844082E-2,-5.955931731E-3
1.325998131E1,-4.657844082E-2,-2.703076601E-2,-4.734201822E-3
1.326998131E1,-2.214384824E-2,-1.603520103E-2,2.596175298E-3
1.327998131E1,4.734201822E-3,-6.261364091E-3,9.926552884E-3
1.328998131E1,3.405570984E-2,-5.039634649E-3,8.704823442E-3
1.329998131E1,5.849030241E-2,-5.039634649E-3,6.261364091E-3
1.330998131E1,7.070759684E-2,5.955931731E-3,5.039634649E-3
1.331998131E1,6.826414168E-2,1.817322709E-2,2.596175298E-3
1.332998131E1,5.604684353E-2,2.550360374E-2,-4.734201822E-3
1.333998131E1,2.061668597E-2,2.061668597E-2,-1.328630932E-2
1.334998131E1,-1.114828233E-2,1.695149764E-2,-1.939495653E-2
1.335998131E1,-4.780016840E-2,4.734201822E-3,-2.428187430E-2
1.336998131E1,-7.589995116E-2,-1.847865991E-2,-3.405570984E-2
1.337998131E1,-8.200860023E-2,-4.046979174E-2,-4.016435891E-2
1.338998131E1,-7.712167501E-2,-3.313941509E-2,-3.527744114E-2
1.339998131E1,-6.490438432E-2,-1.847865991E-2,-2.916879393E-2
1.340998131E1,-4.046979174E-2,-7.483093534E-3,-3.161225095E-2
1.341998131E1,-2.580903657E-2,-1.481347065E-2,-3.283398226E-2
1.342998131E1,-1.603520103E-2,-2.092211880E-2,-3.161225095E-2
1.343998131E1,-2.458730713E-2,-2.092211880E-2,-3.649916872E-2
1.344998131E1,-3.802633286E-2,-2.336557768E-2,-3.894263133E-2
1.345998131E1,-5.757400393E-2,-2.214384824E-2,-3.772090003E-2
1.346998131E1,-7.223475724E-2,-1.970038936E-2,-3.161225095E-2
1.347998131E1,-8.445205539E-2,-1.970038936E-2,-2.183841541E-2
1.348998131E1,-9.056070447E-2,-2.092211880E-2,-1.084284950E-2
1.349998131E1,-8.933897316E-2,-4.780016840E-2,-4.734201822E-3
1.350998131E1,-7.223475724E-2,-7.223475724E-2,-8.399390616E-3
1.351998131E1,-4.780016840E-2,-9.544762224E-2,-1.695149764E-2
1.352998131E1,-1.725693047E-2,-8.567378670E-2,-2.306014486E-2
1.353998131E1,-2.596175298E-3,-4.902189970E-2,-1.939495653E-2
1.354998131E1,3.512472380E-3,-6.261364091E-3,-1.206457894E-2
1.355998131E1,-6.261364091E-3,8.399390616E-3,-2.290742937E-3
1.356998131E1,-3.313941509E-2,8.399390616E-3,6.261364091E-3
1.357998131E1,-6.979130208E-2,-7.483093534E-3,1.114828233E-2
1.358998131E1,-1.003345400E-1,-2.092211880E-2,1.481347065E-2
1.359998131E1,-1.308777779E-1,-3.924806044E-2,1.725693047E-2
1.360998131E1,-1.418733448E-1,-4.413498193E-2,2.336557768E-2
1.361998131E1,-1.333212405E-1,-1.847865991E-2,3.436114267E-2
1.362998131E1,-1.101083755E-1,5.955931731E-3,3.191768378E-2
1.363998131E1,-7.101303339E-2,8.399390616E-3,1.847865991E-2
1.364998131E1,-2.336557768E-2,2.290742937E-3,1.481347065E-2
1.365998131E1,2.183841541E-2,-2.214384824E-2,1.359174121E-2
1.366998131E1,7.925970852E-2,-6.001746282E-2,1.114828233E-2
1.367998131E1,1.207985133E-1,-7.712167501E-2,1.237001177E-2
1.368998131E1,1.550069451E-1,-6.856957078E-2,1.237001177E-2
1.369998131E1,1.586721241E-1,-5.635227636E-2,1.481347065E-2
1.370998131E1,1.195767820E-1,-4.780016840E-2,1.847865991E-2
1.371998131E1,5.604684353E-2,-4.169152305E-2,2.703076601E-2
1.372998131E1,7.177661173E-3,-4.535670951E-2,3.313941509E-2
1.373998131E1,-3.191768378E-2,-5.513054505E-2,3.924806044E-2
1.374998131E1,-4.169152305E-2,-6.001746282E-2,4.413498193E-2
1.375998131E1,-2.947422490E-2,-6.368265301E-2,4.780016840E-2
1.376998131E1,-3.817904973E-3,-4.780016840E-2,4.657844082E-2
1.377998131E1,3.161225095E-2,-1.237001177E-2,4.413498193E-2
1.378998131E1,5.971203372E-2,1.206457894E-2,3.558287397E-2
1.379998131E1,7.070759684E-2,1.450803876E-2,2.580903657E-2
1.380998131E1,7.803797722E-2,-8.704823442E-3,1.237001177E-2
1.381998131E1,7.925970852E-2,-3.680460155E-2,6.261364091E-3
1.382998131E1,8.292489499E-2,-6.612611562E-2,9.926552884E-3
1.383998131E1,8.903354406E-2,-6.979130208E-2,1.359174121E-2
1.384998131E1,1.036942974E-1,-4.657844082E-2,1.481347065E-2
1.385998131E1,1.244636998E-1,-7.483093534E-3,5.039634649E-3
1.386998131E1,1.354592592E-1,2.428187430E-2,-4.734201822E-3
1.387998131E1,1.244636998E-1,5.238165334E-2,-1.450803876E-2
1.388998131E1,9.880737960E-2,6.459894776E-2,-1.695149764E-2
1.389998131E1,4.749473557E-2,6.337722391E-2,-1.450803876E-2
1.390998131E1,5.955931731E-3,5.726857483E-2,-1.084284950E-2
1.391998131E1,-4.291325063E-2,4.016435891E-2,-1.206457894E-2
1.392998131E1,-9.056070447E-2,4.260781780E-2,-1.939495653E-2
1.393998131E1,-1.272125840E-1,6.826414168E-2,-2.794706449E-2
1.394998131E1,-1.675296724E-1,1.098029464E-1,-3.527744114E-2
1.395998131E1,-1.858556122E-1,1.293506175E-1,-3.527744114E-2
1.396998131E1,-1.882990748E-1,1.220202371E-1,-2.428187430E-2
1.397998131E1,-1.699731201E-1,1.049160287E-1,-2.061668597E-2
1.398998131E1,-1.284343153E-1,7.070759684E-2,-2.428187430E-2
1.399998131E1,-8.323032409E-2,3.772090003E-2,-3.894263133E-2
1.400998131E1,-5.146535859E-2,1.084284950E-2,-4.627300799E-2
1.401998131E1,-2.703076601E-2,-1.847865991E-2,-4.016435891E-2
1.402998131E1,-2.825249545E-2,-5.146535859E-2,-3.894263133E-2
1.403998131E1,-7.101303339E-2,-1.149952933E-1,-4.382954910E-2
1.404998131E1,-1.296560466E-1,-1.553123742E-1,-5.604684353E-2
1.405998131E1,-2.249509543E-1,-2.102901936E-1,-7.559451461E-2
1.406998131E1,-3.239110410E-1,-2.591593862E-1,-9.025526792E-2
1.407998131E1,-3.849975169E-1,-2.457203567E-1,-8.536835015E-2
1.408998131E1,-4.057669342E-1,-1.968511790E-1,-5.971203372E-2
1.409998131E1,-3.691150546E-1,-1.638644785E-1,-3.527744114E-2
1.410998131E1,-2.725984156E-1,-7.467821985E-2,-9.621120058E-3
1.411998131E1,-1.785252392E-1,-1.359174121E-2,9.926552884E-3
1.412998131E1,-4.291325063E-2,3.649916872E-2,1.114828233E-2
1.413998131E1,7.437278330E-2,5.971203372E-2,5.039634649E-3
1.414998131E1,1.366809905E-1,5.604684353E-2,5.039634649E-3
1.415998131E1,1.733328849E-1,1.572976820E-2,1.114828233E-2
1.416998131E1,1.769980639E-1,-2.703076601E-2,2.580903657E-2
1.417998131E1,1.501200199E-1,-5.146535859E-2,5.024362728E-2
1.418998131E1,1.110246703E-1,-5.024362728E-2,6.123919412E-2
1.419998131E1,5.604684353E-2,-3.191768378E-2,5.757400393E-2
1.420998131E1,-1.374445739E-3,-1.527161949E-4,4.657844082E-2
1.421998131E1,-4.780016840E-2,1.328630932E-2,3.191768378E-2
1.422998131E1,-1.015562713E-1,1.084284950E-2,1.114828233E-2
1.423998131E1,-1.333212405E-1,-3.817904973E-3,-8.399390616E-3
1.424998131E1,-1.601992846E-1,-9.926552884E-3,-3.283398226E-2
1.425998131E1,-1.687513888E-1,-5.039634649E-3,-4.993819445E-2
1.426998131E1,-1.675296724E-1,1.695149764E-2,-5.971203372E-2
1.427998131E1,-1.540906429E-1,3.527744114E-2,-5.849030241E-2
1.428998131E1,-1.296560466E-1,3.405570984E-2,-4.505127668E-2
1.429998131E1,-8.200860023E-2,1.695149764E-2,-1.695149764E-2
1.430998131E1,-3.069595434E-2,-1.603520103E-2,3.817904973E-3
1.431998131E1,4.993819445E-2,-7.589995116E-2,1.359174121E-2
1.432998131E1,1.195767820E-1,-1.149952933E-1,6.261364091E-3
1.433998131E1,1.928805560E-1,-1.308777779E-1,-5.955931731E-3
1.434998131E1,2.417497337E-1,-1.174387559E-1,-1.572976820E-2
1.435998131E1,2.551887631E-1,-1.003345400E-1,-1.939495653E-2
1.436998131E1,2.429714650E-1,-6.490438432E-2,-3.039052337E-2
1.437998131E1,2.038761228E-1,-3.802633286E-2,-4.382954910E-2
1.438998131E1,1.281288862E-1,-1.970038936E-2,-4.871646687E-2
1.439998131E1,4.993819445E-2,-1.114828233E-2,-4.871646687E-2
1.440998131E1,-5.146535859E-2,-1.114828233E-2,-4.138609022E-2
1.441998131E1,-1.357647032E-1,-3.558287397E-2,-3.283398226E-2
1.442998131E1,-1.760817766E-1,-6.123919412E-2,-2.306014486E-2
1.443998131E1,-1.736383140E-1,-7.589995116E-2,-1.206457894E-2
1.444998131E1,-1.369864196E-1,-5.513054505E-2,-1.069013379E-3
1.445998131E1,-5.390881747E-2,8.399390616E-3,1.359174121E-2
1.446998131E1,4.505127668E-2,8.659008145E-2,2.458730713E-2
1.447998131E1,1.244636998E-1,1.305723488E-1,2.947422490E-2
1.448998131E1,1.977674663E-1,1.427896470E-1,3.313941509E-2
1.449998131E1,2.234237939E-1,1.293506175E-1,3.558287397E-2
1.450998131E1,2.087630332E-1,1.122464016E-1,3.069595434E-2
1.451998131E1,1.586721241E-1,9.025526792E-2,2.580903657E-2
1.452998131E1,6.582067907E-2,7.070759684E-2,1.603520103E-2
1.453998131E1,-4.169152305E-2,5.360338464E-2,1.603520103E-2
1.454998131E1,-1.174387559E-1,5.360338464E-2,2.092211880E-2
1.455998131E1,-1.846338809E-1,4.993819445E-2,2.336557768E-2
1.456998131E1,-2.041815519E-1,4.260781780E-2,1.481347065E-2
1.457998131E1,-1.992946416E-1,1.572976820E-2,3.817904973E-3
1.458998131E1,-1.736383140E-1,-1.527161949E-4,2.596175298E-3
1.459998131E1,-1.211039424E-1,2.550360374E-2,5.039634649E-3
1.460998131E1,-5.146535859E-2,4.871646687E-2,3.817904973E-3
1.461998131E1,4.734201822E-3,6.337722391E-2,-1.069013379E-3
1.462998131E1,7.192932814E-2,7.925970852E-2,-7.177661173E-3
1.463998131E1,1.049160287E-1,9.514218569E-2,-1.328630932E-2
1.464998131E1,1.256854236E-1,1.073594838E-1,-2.061668597E-2
1.465998131E1,1.220202371E-1,9.514218569E-2,-2.183841541E-2
1.466998131E1,1.036942974E-1,6.582067907E-2,-2.306014486E-2
1.467998131E1,6.948586553E-2,2.916879393E-2,-1.572976820E-2
1.468998131E1,3.283398226E-2,1.572976820E-2,-1.328630932E-2
1.469998131E1,-2.703076601E-2,1.084284950E-2,-1.695149764E-2
1.470998131E1,-7.589995116E-2,1.572976820E-2,-1.695149764E-2
1.471998131E1,-1.284343153E-1,2.306014486E-2,-1.450803876E-2
1.472998131E1,-1.528689116E-1,2.306014486E-2,-9.621120058E-3
1.473998131E1,-1.516471803E-1,1.817322709E-2,-5.955931731E-3
1.474998131E1,-1.186604798E-1,1.328630932E-2,-7.177661173E-3
1.475998131E1,-7.712167501E-2,9.621120058E-3,-1.206457894E-2
1.476998131E1,-1.603520103E-2,-1.374445739E-3,-1.695149764E-2
1.477998131E1,2.306014486E-2,-3.817904973E-3,-1.817322709E-2
1.478998131E1,4.749473557E-2,-1.603520103E-2,-1.939495653E-2
1.479998131E1,4.993819445E-2,-2.947422490E-2,-2.061668597E-2
1.480998131E1,4.016435891E-2,-4.902189970E-2,-1.817322709E-2
1.481998131E1,2.428187430E-2,-5.146535859E-2,-1.206457894E-2
1.482998131E1,7.177661173E-3,-4.169152305E-2,-1.206457894E-2
1.483998131E1,-1.114828233E-2,-3.558287397E-2,-1.328630932E-2
1.484998131E1,-2.458730713E-2,-3.558287397E-2,-1.084284950E-2
1.485998131E1,-2.703076601E-2,-3.558287397E-2,1.374445739E-3
1.486998131E1,-1.359174121E-2,-3.436114267E-2,1.237001177E-2
1.487998131E1,1.450803876E-2,-2.580903657E-2,1.603520103E-2
1.488998131E1,4.138609022E-2,-7.483093534E-3,3.817904973E-3
1.489998131E1,4.505127668E-2,-2.596175298E-3,-9.621120058E-3
1.490998131E1,2.061668597E-2,-7.483093534E-3,-2.672533318E-2
1.491998131E1,-1.725693047E-2,-1.970038936E-2,-3.283398226E-2
1.492998131E1,-7.589995116E-2,-3.558287397E-2,-2.916879393E-2
1.493998131E1,-1.137735620E-1,-4.046979174E-2,-1.695149764E-2
1.494998131E1,-1.333212405E-1,-3.069595434E-2,8.704823442E-3
1.495998131E1,-1.137735620E-1,-8.704823442E-3,2.703076601E-2
1.496998131E1,-7.345648855E-2,1.206457894E-2,3.069595434E-2
1.497998131E1,-3.817904973E-3,2.183841541E-2,2.703076601E-2
1.498998131E1,4.871646687E-2,1.939495653E-2,2.825249545E-2
1.499998131E1,1.049160287E-1,1.817322709E-2,3.069595434E-2
1.500998131E1,1.403461844E-1,5.955931731E-3,2.214384824E-2
1.501998131E1,1.611155868E-1,-2.458730713E-2,1.603520103E-2
1.502998131E1,1.586721241E-1,-4.169152305E-2,1.237001177E-2
1.503998131E1,1.391244531E-1,-3.924806044E-2,1.359174121E-2
1.504998131E1,9.514218569E-2,-2.336557768E-2,1.725693047E-2
1.505998131E1,4.627300799E-2,-2.596175298E-3,1.603520103E-2
1.506998131E1,-1.237001177E-2,2.550360374E-2,1.359174121E-2
1.507998131E1,-4.780016840E-2,4.016435891E-2,9.926552884E-3
1.508998131E1,-6.001746282E-2,4.505127668E-2,8.704823442E-3
1.509998131E1,-4.291325063E-2,5.115992576E-2,8.704823442E-3
1.510998131E1,-1.970038936E-2,4.627300799E-2,3.817904973E-3
1.511998131E1,1.328630932E-2,3.405570984E-2,-4.734201822E-3
1.512998131E1,3.283398226E-2,2.061668597E-2,-7.177661173E-3
1.513998131E1,4.627300799E-2,8.399390616E-3,-7.177661173E-3
1.514998131E1,5.238165334E-2,1.084284950E-2,-5.955931731E-3
1.515998131E1,5.238165334E-2,2.183841541E-2,-8.399390616E-3
1.516998131E1,4.871646687E-2,3.772090003E-2,-9.621120058E-3
1.517998131E1,4.505127668E-2,5.360338464E-2,-7.177661173E-3
1.518998131E1,3.772090003E-2,5.482511222E-2,1.527161949E-4
1.519998131E1,2.794706449E-2,3.772090003E-2,3.817904973E-3
1.520998131E1,4.734201822E-3,-1.527161949E-4,9.926552884E-3
1.521998131E1,-1.603520103E-2,-2.336557768E-2,1.481347065E-2
1.522998131E1,-4.169152305E-2,-4.046979174E-2,1.847865991E-2
1.523998131E1,-6.001746282E-2,-4.046979174E-2,1.237001177E-2
1.524998131E1,-6.856957078E-2,-2.825249545E-2,2.596175298E-3
1.525998131E1,-7.101303339E-2,-8.704823442E-3,-1.572976820E-2
1.526998131E1,-6.856957078E-2,1.450803876E-2,-1.939495653E-2
1.527998131E1,-5.635227636E-2,5.115992576E-2,-1.084284950E-2
1.528998131E1,-3.436114267E-2,6.704241037E-2,-3.512472380E-3
1.529998131E1,-1.374445739E-3,5.604684353E-2,1.374445739E-3
1.530998131E1,2.672533318E-2,4.016435891E-2,-1.069013379E-3
1.531998131E1,3.161225095E-2,3.161225095E-2,-1.084284950E-2
1.532998131E1,1.206457894E-2,1.450803876E-2,-1.328630932E-2
1.533998131E1,-9.926552884E-3,-1.374445739E-3,-3.512472380E-3
1.534998131E1,-3.558287397E-2,-1.114828233E-2,1.603520103E-2
1.535998131E1,-4.413498193E-2,-5.039634649E-3,3.191768378E-2
1.536998131E1,-3.558287397E-2,1.084284950E-2,3.191768378E-2
1.537998131E1,-1.970038936E-2,3.405570984E-2,2.214384824E-2
1.538998131E1,-1.237001177E-2,5.971203372E-2,1.481347065E-2
1.539998131E1,-1.481347065E-2,8.536835015E-2,8.704823442E-3
1.540998131E1,-2.458730713E-2,7.803797722E-2,5.039634649E-3
1.541998131E1,-3.191768378E-2,4.749473557E-2,1.527161949E-4
1.542998131E1,-3.069595434E-2,2.428187430E-2,-4.734201822E-3
1.543998131E1,-1.603520103E-2,1.939495653E-2,-1.817322709E-2
1.544998131E1,-1.527161949E-4,3.772090003E-2,-3.527744114E-2
1.545998131E1,8.399390616E-3,4.138609022E-2,-4.016435891E-2
1.546998131E1,-1.527161949E-4,7.177661173E-3,-4.138609022E-2
1.547998131E1,-1.481347065E-2,-3.069595434E-2,-3.527744114E-2
1.548998131E1,-3.069595434E-2,-6.246092543E-2,-1.939495653E-2
1.549998131E1,-2.703076601E-2,-8.567378670E-2,-7.177661173E-3
1.550998131E1,4.734201822E-3,-1.064431891E-1,1.114828233E-2
1.551998131E1,5.726857483E-2,-9.300415963E-2,1.603520103E-2
1.552998131E1,9.269873053E-2,-6.001746282E-2,1.114828233E-2
1.553998131E1,1.183550507E-1,-1.374445739E-3,-1.084284950E-2
1.554998131E1,1.134681329E-1,2.916879393E-2,-3.527744114E-2
1.555998131E1,7.437278330E-2,3.405570984E-2,-5.360338464E-2
1.556998131E1,2.550360374E-2,1.939495653E-2,-5.360338464E-2
1.557998131E1,-4.413498193E-2,8.399390616E-3,-3.649916872E-2
1.558998131E1,-1.015562713E-1,1.084284950E-2,-2.061668597E-2
1.559998131E1,-1.284343153E-1,1.572976820E-2,-9.621120058E-3
1.560998131E1,-1.406516135E-1,1.572976820E-2,1.374445739E-3
1.561998131E1,-1.284343153E-1,7.177661173E-3,1.359174121E-2
1.562998131E1,-8.445205539E-2,-1.603520103E-2,3.069595434E-2
1.563998131E1,-3.436114267E-2,-3.313941509E-2,4.046979174E-2
1.564998131E1,3.894263133E-2,-4.046979174E-2,4.780016840E-2
1.565998131E1,1.098029464E-1,-1.970038936E-2,4.169152305E-2
1.566998131E1,1.488982886E-1,5.955931731E-3,3.191768378E-2
1.567998131E1,1.660024971E-1,3.405570984E-2,2.825249545E-2
1.568998131E1,1.464548260E-1,5.238165334E-2,2.703076601E-2
1.569998131E1,8.170316368E-2,5.726857483E-2,2.703076601E-2
1.570998131E1,1.084284950E-2,4.627300799E-2,2.825249545E-2
1.571998131E1,-8.200860023E-2,4.260781780E-2,3.069595434E-2
1.572998131E1,-1.553123742E-1,4.505127668E-2,2.580903657E-2
1.573998131E1,-1.907425225E-1,4.260781780E-2,1.481347065E-2
1.574998131E1,-2.017380893E-1,2.550360374E-2,3.817904973E-3
1.575998131E1,-1.846338809E-1,4.734201822E-3,1.527161949E-4
1.576998131E1,-1.333212405E-1,-4.535670951E-2,1.527161949E-4
1.577998131E1,-7.345648855E-2,-7.834340632E-2,-3.512472380E-3
1.578998131E1,8.399390616E-3,-7.589995116E-2,-1.084284950E-2
1.579998131E1,8.659008145E-2,-5.635227636E-2,-1.695149764E-2
1.580998131E1,1.317940801E-1,-3.680460155E-2,-1.450803876E-2
1.581998131E1,1.550069451E-1,-1.527161949E-4,-1.450803876E-2
1.582998131E1,1.440113783E-1,1.695149764E-2,-1.328630932E-2
1.583998131E1,1.024725661E-1,1.572976820E-2,-1.328630932E-2
1.584998131E1,5.482511222E-2,3.512472380E-3,-1.084284950E-2
1.585998131E1,-9.926552884E-3,-8.704823442E-3,-7.177661173E-3
1.586998131E1,-7.101303339E-2,-3.817904973E-3,-1.084284950E-2
1.587998131E1,-1.015562713E-1,5.955931731E-3,-1.572976820E-2
1.588998131E1,-1.186604798E-1,1.695149764E-2,-1.939495653E-2
1.589998131E1,-1.101083755E-1,2.794706449E-2,-1.939495653E-2
1.590998131E1,-7.101303339E-2,2.428187430E-2,-2.061668597E-2
1.591998131E1,-2.703076601E-2,2.290742937E-3,-2.183841541E-2
1.592998131E1,3.161225095E-2,-1.481347065E-2,-1.817322709E-2
1.593998131E1,8.048143238E-2,-7.483093534E-3,-8.399390616E-3
1.594998131E1,9.636391699E-2,7.177661173E-3,1.374445739E-3
1.595998131E1,9.758564830E-2,2.306014486E-2,1.237001177E-2
1.596998131E1,8.292489499E-2,3.283398226E-2,2.214384824E-2
1.597998131E1,5.115992576E-2,4.138609022E-2,3.313941509E-2
1.598998131E1,1.817322709E-2,3.527744114E-2,3.680460155E-2
1.599998131E1,-2.825249545E-2,4.734201822E-3,2.825249545E-2
1.600998131E1,-7.834340632E-2,-1.847865991E-2,1.481347065E-2
1.601998131E1,-1.162170246E-1,-1.970038936E-2,5.039634649E-3
1.602998131E1,-1.638644785E-1,-1.359174121E-2,-7.177661173E-3
1.603998131E1,-1.846338809E-1,-5.039634649E-3,-9.621120058E-3
1.604998131E1,-1.858556122E-1,5.955931731E-3,-5.955931731E-3
1.605998131E1,-1.565341055E-1,1.328630932E-2,6.261364091E-3
1.606998131E1,-1.125518382E-1,2.306014486E-2,1.603520103E-2
1.607998131E1,-4.535670951E-2,1.817322709E-2,2.580903657E-2
1.608998131E1,4.734201822E-3,1.069013379E-3,3.069595434E-2
1.609998131E1,6.459894776E-2,-2.825249545E-2,3.558287397E-2
1.610998131E1,1.036942974E-1,-4.657844082E-2,3.191768378E-2
1.611998131E1,1.305723488E-1,-5.024362728E-2,2.703076601E-2
1.612998131E1,1.366809905E-1,-3.558287397E-2,1.481347065E-2
1.613998131E1,1.293506175E-1,-2.214384824E-2,5.039634649E-3
1.614998131E1,1.024725661E-1,-1.237001177E-2,-4.734201822E-3
1.615998131E1,6.704241037E-2,-8.704823442E-3,-8.399390616E-3
1.616998131E1,2.061668597E-2,-1.725693047E-2,-1.206457894E-2
1.617998131E1,-1.970038936E-2,-3.436114267E-2,-1.817322709E-2
1.618998131E1,-5.635227636E-2,-6.612611562E-2,-2.550360374E-2
1.619998131E1,-7.467821985E-2,-7.956513762E-2,-2.428187430E-2
1.620998131E1,-7.345648855E-2,-7.223475724E-2,-1.572976820E-2
1.621998131E1,-4.291325063E-2,-4.169152305E-2,1.374445739E-3
1.622998131E1,1.069013379E-3,-9.926552884E-3,7.483093534E-3
1.623998131E1,6.215549260E-2,1.695149764E-2,1.603520103E-2
1.624998131E1,1.085812151E-1,3.161225095E-2,2.580903657E-2
1.625998131E1,1.501200199E-1,3.649916872E-2,2.580903657E-2
1.626998131E1,1.660024971E-1,3.527744114E-2,7.483093534E-3
1.627998131E1,1.501200199E-1,3.161225095E-2,-1.450803876E-2
1.628998131E1,9.514218569E-2,2.428187430E-2,-3.649916872E-2
1.629998131E1,3.161225095E-2,8.399390616E-3,-4.871646687E-2
1.630998131E1,-4.535670951E-2,-1.481347065E-2,-4.505127668E-2
1.631998131E1,-9.056070447E-2,-9.926552884E-3,-3.527744114E-2
1.632998131E1,-1.088866442E-1,1.817322709E-2,-2.428187430E-2
1.633998131E1,-9.666935354E-2,5.482511222E-2,-1.328630932E-2
1.634998131E1,-7.223475724E-2,7.070759684E-2,-4.734201822E-3
1.635998131E1,-3.436114267E-2,6.215549260E-2,6.261364091E-3
1.636998131E1,-9.926552884E-3,4.138609022E-2,1.725693047E-2
1.637998131E1,1.817322709E-2,1.450803876E-2,9.926552884E-3
1.638998131E1,3.161225095E-2,-9.926552884E-3,-3.512472380E-3
1.639998131E1,3.527744114E-2,-1.725693047E-2,-1.817322709E-2
1.640998131E1,2.061668597E-2,4.734201822E-3,-2.550360374E-2
1.641998131E1,-5.039634649E-3,3.772090003E-2,-2.672533318E-2
1.642998131E1,-4.535670951E-2,7.070759684E-2,-2.794706449E-2
1.643998131E1,-7.345648855E-2,7.925970852E-2,-2.306014486E-2
1.644998131E1,-9.544762224E-2,7.559451461E-2,-1.817322709E-2
1.645998131E1,-9.911280870E-2,6.215549260E-2,-1.328630932E-2
1.646998131E1,-8.567378670E-2,3.649916872E-2,-1.572976820E-2
1.647998131E1,-6.123919412E-2,1.817322709E-2,-1.328630932E-2
1.648998131E1,-3.436114267E-2,1.450803876E-2,-2.290742937E-3
1.649998131E1,-3.817904973E-3,9.621120058E-3,1.237001177E-2
1.650998131E1,1.450803876E-2,4.734201822E-3,1.970038936E-2
1.651998131E1,2.428187430E-2,-7.483093534E-3,2.092211880E-2
1.652998131E1,2.183841541E-2,-1.481347065E-2,2.092211880E-2
1.653998131E1,9.621120058E-3,-1.847865991E-2,1.725693047E-2
1.654998131E1,-5.039634649E-3,-1.237001177E-2,1.359174121E-2
1.655998131E1,-1.237001177E-2,-2.596175298E-3,6.261364091E-3
1.656998131E1,-1.481347065E-2,9.621120058E-3,-7.177661173E-3
1.657998131E1,-1.603520103E-2,1.450803876E-2,-1.572976820E-2
1.658998131E1,-1.359174121E-2,2.672533318E-2,-1.695149764E-2
1.659998131E1,-7.483093534E-3,3.161225095E-2,-1.939495653E-2
1.660998131E1,1.695149764E-2,2.428187430E-2,-1.939495653E-2
1.661998131E1,5.238165334E-2,2.290742937E-3,-1.084284950E-2
1.662998131E1,8.170316368E-2,-3.817904973E-3,1.527161949E-4
1.663998131E1,1.110246703E-1,4.734201822E-3,5.039634649E-3
1.664998131E1,1.195767820E-1,1.817322709E-2,5.039634649E-3
1.665998131E1,9.880737960E-2,2.550360374E-2,3.817904973E-3
1.666998131E1,6.459894776E-2,2.672533318E-2,9.926552884E-3
1.667998131E1,3.512472380E-3,4.382954910E-2,1.481347065E-2
1.668998131E1,-4.657844082E-2,4.871646687E-2,1.603520103E-2
1.669998131E1,-6.490438432E-2,4.505127668E-2,1.847865991E-2
1.670998131E1,-5.513054505E-2,4.871646687E-2,2.580903657E-2
1.671998131E1,-2.458730713E-2,5.360338464E-2,3.069595434E-2
1.672998131E1,1.695149764E-2,5.726857483E-2,3.436114267E-2
1.673998131E1,4.993819445E-2,5.238165334E-2,3.558287397E-2
1.674998131E1,6.704241037E-2,3.039052337E-2,3.924806044E-2
1.675998131E1,6.582067907E-2,7.177661173E-3,4.046979174E-2
1.676998131E1,4.993819445E-2,-3.817904973E-3,3.436114267E-2
1.677998131E1,2.794706449E-2,1.328630932E-2,2.703076601E-2
1.678998131E1,1.084284950E-2,2.794706449E-2,2.580903657E-2
1.679998131E1,-1.725693047E-2,3.527744114E-2,2.947422490E-2
1.680998131E1,-3.069595434E-2,5.604684353E-2,3.191768378E-2
1.681998131E1,-3.191768378E-2,5.238165334E-2,2.703076601E-2
1.682998131E1,-1.114828233E-2,3.527744114E-2,8.704823442E-3
1.683998131E1,1.939495653E-2,2.306014486E-2,-9.621120058E-3
1.684998131E1,4.260781780E-2,-5.039634649E-3,-2.183841541E-2
1.685998131E1,4.016435891E-2,-2.580903657E-2,-4.016435891E-2
1.686998131E1,-3.817904973E-3,-5.635227636E-2,-5.849030241E-2
1.687998131E1,-5.879573524E-2,-7.101303339E-2,-6.215549260E-2
1.688998131E1,-1.235474050E-1,-7.467821985E-2,-5.604684353E-2
1.689998131E1,-1.565341055E-1,-6.856957078E-2,-4.749473557E-2
1.690998131E1,-1.528689116E-1,-5.024362728E-2,-4.138609022E-2
1.691998131E1,-1.186604798E-1,-1.603520103E-2,-3.405570984E-2
1.692998131E1,-7.467821985E-2,2.290742937E-3,-3.161225095E-2
1.693998131E1,-1.603520103E-2,-1.374445739E-3,-2.428187430E-2
1.694998131E1,2.428187430E-2,-5.039634649E-3,-1.206457894E-2
1.695998131E1,5.849030241E-2,-1.603520103E-2,1.374445739E-3
1.696998131E1,6.337722391E-2,-3.313941509E-2,8.704823442E-3
1.697998131E1,4.016435891E-2,-4.657844082E-2,9.926552884E-3
1.698998131E1,-7.483093534E-3,-5.757400393E-2,1.237001177E-2
1.699998131E1,-5.635227636E-2,-7.101303339E-2,1.725693047E-2
1.700998131E1,-9.544762224E-2,-6.490438432E-2,2.947422490E-2
1.701998131E1,-9.789107740E-2,-3.680460155E-2,3.924806044E-2
1.702998131E1,-6.612611562E-2,-1.237001177E-2,3.436114267E-2
1.703998131E1,-1.237001177E-2,-1.847865991E-2,2.214384824E-2
1.704998131E1,2.061668597E-2,-3.313941509E-2,1.603520103E-2
1.705998131E1,3.405570984E-2,-5.635227636E-2,1.847865991E-2
1.706998131E1,2.061668597E-2,-7.834340632E-2,9.926552884E-3
1.707998131E1,-2.825249545E-2,-1.272125840E-1,-1.084284950E-2
1.708998131E1,-8.445205539E-2,-1.553123742E-1,-2.672533318E-2
1.709998131E1,-1.479819864E-1,-1.528689116E-1,-3.649916872E-2
1.710998131E1,-1.870773435E-1,-1.174387559E-1,-3.772090003E-2
1.711998131E1,-1.846338809E-1,-6.612611562E-2,-2.794706449E-2
1.712998131E1,-1.308777779E-1,7.177661173E-3,-2.290742937E-3
1.713998131E1,-5.635227636E-2,5.360338464E-2,1.603520103E-2
1.714998131E1,5.360338464E-2,4.505127668E-2,3.191768378E-2
1.715998131E1,1.293506175E-1,7.177661173E-3,2.336557768E-2
1.716998131E1,1.818849891E-1,-6.612611562E-2,-1.572976820E-2
1.717998131E1,1.635590494E-1,-1.320995092E-1,-4.993819445E-2
1.718998131E1,1.159115955E-1,-1.589775532E-1,-6.093376130E-2
1.719998131E1,4.505127668E-2,-1.589775532E-1,-6.582067907E-2
1.720998131E1,-1.527161949E-4,-1.333212405E-1,-5.971203372E-2
1.721998131E1,-2.580903657E-2,-9.056070447E-2,-5.238165334E-2
1.722998131E1,-1.970038936E-2,-5.757400393E-2,-5.115992576E-2
1.723998131E1,1.328630932E-2,-2.703076601E-2,-4.505127668E-2
1.724998131E1,5.360338464E-2,-2.596175298E-3,-3.527744114E-2
1.725998131E1,8.170316368E-2,3.512472380E-3,-2.428187430E-2
1.726998131E1,9.758564830E-2,5.955931731E-3,-4.734201822E-3
1.727998131E1,1.012508348E-1,-5.039634649E-3,1.237001177E-2
1.728998131E1,1.024725661E-1,-1.725693047E-2,3.191768378E-2
1.729998131E1,1.012508348E-1,-2.580903657E-2,4.413498193E-2
1.730998131E1,9.392046183E-2,-2.214384824E-2,4.902189970E-2
1.731998131E1,7.681624591E-2,-1.374445739E-3,4.291325063E-2
1.732998131E1,5.238165334E-2,1.939495653E-2,3.680460155E-2
1.733998131E1,7.177661173E-3,3.772090003E-2,3.069595434E-2
1.734998131E1,-3.924806044E-2,3.649916872E-2,2.580903657E-2
1.735998131E1,-9.666935354E-2,1.939495653E-2,1.970038936E-2
1.736998131E1,-1.272125840E-1,1.939495653E-2,1.481347065E-2
1.737998131E1,-1.382081509E-1,2.672533318E-2,7.483093534E-3
1.738998131E1,-1.149952933E-1,3.405570984E-2,-2.290742937E-3
1.739998131E1,-7.834340632E-2,4.627300799E-2,-1.328630932E-2
1.740998131E1,-1.847865991E-2,6.582067907E-2,-3.039052337E-2
1.741998131E1,2.550360374E-2,7.192932814E-2,-3.649916872E-2
1.742998131E1,6.337722391E-2,7.070759684E-2,-2.428187430E-2
1.743998131E1,8.414662629E-2,5.115992576E-2,-1.084284950E-2
1.744998131E1,1.049160287E-1,2.672533318E-2,1.725693047E-2
1.745998131E1,1.354592592E-1,4.734201822E-3,4.413498193E-2
1.746998131E1,1.684459597E-1,2.290742937E-3,5.635227636E-2
1.747998131E1,2.063195854E-1,1.939495653E-2,6.001746282E-2
1.748998131E1,2.246455252E-1,4.871646687E-2,5.513054505E-2
1.749998131E1,2.160934210E-1,8.292489499E-2,3.436114267E-2
1.750998131E1,1.672242284E-1,7.192932814E-2,1.970038936E-2
1.751998131E1,5.971203372E-2,4.260781780E-2,8.704823442E-3
1.752998131E1,-6.856957078E-2,7.177661173E-3,-1.069013379E-3
1.753998131E1,-1.540906429E-1,-2.214384824E-2,-2.290742937E-3
1.754998131E1,-2.127336562E-1,-3.191768378E-2,2.596175298E-3
1.755998131E1,-2.102901936E-1,-2.214384824E-2,1.374445739E-3
1.756998131E1,-1.577558219E-1,3.512472380E-3,-4.734201822E-3
1.757998131E1,-9.789107740E-2,2.916879393E-2,-9.621120058E-3
1.758998131E1,-5.039634649E-3,6.948586553E-2,-1.450803876E-2
1.759998131E1,8.414662629E-2,9.636391699E-2,-1.695149764E-2
1.760998131E1,1.354592592E-1,7.925970852E-2,-2.550360374E-2
1.761998131E1,1.550069451E-1,3.405570984E-2,-4.016435891E-2
1.762998131E1,1.281288862E-1,7.177661173E-3,-4.505127668E-2
1.763998131E1,5.360338464E-2,-3.817904973E-3,-4.260781780E-2
1.764998131E1,-4.169152305E-2,-7.483093534E-3,-3.039052337E-2
1.765998131E1,-9.911280870E-2,-1.374445739E-3,-1.817322709E-2
1.766998131E1,-1.308777779E-1,1.328630932E-2,-3.512472380E-3
1.767998131E1,-1.198822111E-1,2.672533318E-2,1.374445739E-3
1.768998131E1,-8.323032409E-2,4.382954910E-2,2.596175298E-3
1.769998131E1,-5.635227636E-2,5.482511222E-2,-7.177661173E-3
1.770998131E1,-4.535670951E-2,2.916879393E-2,-2.794706449E-2
1.771998131E1,-7.101303339E-2,-2.214384824E-2,-4.382954910E-2
1.772998131E1,-1.076649204E-1,-6.979130208E-2,-4.871646687E-2
1.773998131E1,-1.553123742E-1,-1.052214578E-1,-5.238165334E-2
1.774998131E1,-1.760817766E-1,-1.186604798E-1,-5.115992576E-2
1.775998131E1,-1.724165827E-1,-1.101083755E-1,-5.482511222E-2
1.776998131E1,-1.528689116E-1,-8.567378670E-2,-5.482511222E-2
1.777998131E1,-1.137735620E-1,-4.046979174E-2,-5.115992576E-2
1.778998131E1,-7.589995116E-2,-1.359174121E-2,-4.505127668E-2
1.779998131E1,-4.780016840E-2,-1.725693047E-2,-3.283398226E-2
1.780998131E1,-1.725693047E-2,-4.291325063E-2,-1.695149764E-2
1.781998131E1,9.621120058E-3,-5.635227636E-2,-2.290742937E-3
1.782998131E1,5.238165334E-2,-5.757400393E-2,2.596175298E-3
1.783998131E1,8.536835015E-2,-5.635227636E-2,2.596175298E-3
1.784998131E1,1.134681329E-1,-5.268708616E-2,7.483093534E-3
1.785998131E1,1.220202371E-1,-3.802633286E-2,1.847865991E-2
1.786998131E1,1.183550507E-1,-2.580903657E-2,2.458730713E-2
1.787998131E1,1.098029464E-1,-1.725693047E-2,3.191768378E-2
1.788998131E1,9.636391699E-2,-1.725693047E-2,3.558287397E-2
1.789998131E1,7.559451461E-2,-1.725693047E-2,3.680460155E-2
1.790998131E1,5.360338464E-2,-2.825249545E-2,2.947422490E-2
1.791998131E1,2.061668597E-2,-3.680460155E-2,1.970038936E-2
1.792998131E1,-1.847865991E-2,-3.680460155E-2,8.704823442E-3
1.793998131E1,-4.413498193E-2,-4.535670951E-2,-4.734201822E-3
1.794998131E1,-7.101303339E-2,-4.657844082E-2,-8.399390616E-3
1.795998131E1,-7.834340632E-2,-2.947422490E-2,-4.734201822E-3
1.796998131E1,-7.345648855E-2,2.290742937E-3,7.483093534E-3
1.797998131E1,-5.268708616E-2,3.039052337E-2,2.214384824E-2
1.798998131E1,-1.114828233E-2,6.582067907E-2,4.291325063E-2
1.799998131E1,4.505127668E-2,7.925970852E-2,6.001746282E-2
1.800998131E1,8.659008145E-2,6.704241037E-2,6.368265301E-2
1.801998131E1,1.146898642E-1,3.405570984E-2,5.024362728E-2
1.802998131E1,1.085812151E-1,-5.039634649E-3,2.825249545E-2
1.803998131E1,6.093376130E-2,-4.535670951E-2,1.114828233E-2
1.804998131E1,5.955931731E-3,-6.246092543E-2,6.261364091E-3
1.805998131E1,-5.024362728E-2,-6.979130208E-2,-1.069013379E-3
1.806998131E1,-7.712167501E-2,-5.268708616E-2,-5.955931731E-3
1.807998131E1,-7.101303339E-2,-1.114828233E-2,-9.621120058E-3
1.808998131E1,-4.780016840E-2,4.871646687E-2,-2.183841541E-2
1.809998131E1,-3.069595434E-2,8.781181276E-2,-3.161225095E-2
1.810998131E1,-2.703076601E-2,1.085812151E-1,-3.405570984E-2
1.811998131E1,-3.191768378E-2,1.073594838E-1,-2.428187430E-2
1.812998131E1,-2.580903657E-2,9.025526792E-2,-1.069013379E-3
1.813998131E1,7.177661173E-3,7.437278330E-2,1.603520103E-2
1.814998131E1,5.360338464E-2,5.849030241E-2,2.947422490E-2
1.815998131E1,1.159115955E-1,4.138609022E-2,3.313941509E-2
1.816998131E1,1.501200199E-1,2.061668597E-2,2.336557768E-2
1.817998131E1,1.611155868E-1,-1.970038936E-2,1.847865991E-2
1.818998131E1,1.427896470E-1,-4.046979174E-2,2.214384824E-2
1.819998131E1,1.012508348E-1,-6.490438432E-2,2.092211880E-2
1.820998131E1,3.894263133E-2,-7.101303339E-2,7.483093534E-3
1.821998131E1,-2.092211880E-2,-4.780016840E-2,-5.955931731E-3
1.822998131E1,-1.052214578E-1,-2.596175298E-3,-2.550360374E-2
1.823998131E1,-1.736383140E-1,2.916879393E-2,-3.772090003E-2
1.824998131E1,-2.335030586E-1,4.993819445E-2,-3.772090003E-2
1.825998131E1,-2.481638193E-1,4.749473557E-2,-2.428187430E-2
1.826998131E1,-2.200640440E-1,3.283398226E-2,-9.621120058E-3
1.827998131E1,-1.479819864E-1,1.206457894E-2,-5.955931731E-3
1.828998131E1,-8.323032409E-2,-1.481347065E-2,-5.955931731E-3
1.829998131E1,-1.237001177E-2,-5.390881747E-2,-4.734201822E-3
1.830998131E1,3.283398226E-2,-9.300415963E-2,-4.734201822E-3
1.831998131E1,7.681624591E-2,-1.272125840E-1,-4.734201822E-3
1.832998131E1,1.146898642E-1,-1.211039424E-1,-2.290742937E-3
1.833998131E1,1.574503928E-1,-8.323032409E-2,-9.621120058E-3
1.834998131E1,1.708894223E-1,-3.680460155E-2,-2.306014486E-2
1.835998131E1,1.550069451E-1,-5.039634649E-3,-3.161225095E-2
1.836998131E1,9.636391699E-2,1.572976820E-2,-2.306014486E-2
1.837998131E1,3.283398226E-2,9.621120058E-3,-5.955931731E-3
1.838998131E1,-4.291325063E-2,-6.261364091E-3,2.214384824E-2
1.839998131E1,-8.078686893E-2,-1.237001177E-2,3.069595434E-2
1.840998131E1,-1.027780026E-1,-1.847865991E-2,3.069595434E-2
1.841998131E1,-1.027780026E-1,-7.483093534E-3,2.458730713E-2
1.842998131E1,-8.933897316E-2,1.069013379E-3,1.725693047E-2
1.843998131E1,-6.734783947E-2,1.069013379E-3,7.483093534E-3
1.844998131E1,-3.924806044E-2,-7.483093534E-3,7.483093534E-3
1.845998131E1,1.572976820E-2,-9.926552884E-3,1.114828233E-2
1.846998131E1,7.070759684E-2,-3.817904973E-3,1.481347065E-2
1.847998131E1,1.403461844E-1,2.290742937E-3,1.725693047E-2
1.848998131E1,1.855501831E-1,-1.374445739E-3,2.092211880E-2
1.849998131E1,2.002109289E-1,3.512472380E-3,1.970038936E-2
1.850998131E1,1.782197952E-1,5.955931731E-3,1.603520103E-2
1.851998131E1,1.391244531E-1,1.817322709E-2,1.114828233E-2
1.852998131E1,6.093376130E-2,4.505127668E-2,2.596175298E-3
1.853998131E1,-1.237001177E-2,5.849030241E-2,-9.621120058E-3
1.854998131E1,-1.027780026E-1,6.215549260E-2,-1.939495653E-2
1.855998131E1,-1.711948514E-1,6.215549260E-2,-2.183841541E-2
1.856998131E1,-1.944077164E-1,7.192932814E-2,-1.328630932E-2
1.857998131E1,-1.785252392E-1,8.659008145E-2,-1.069013379E-3
1.858998131E1,-1.320995092E-1,9.392046183E-2,9.926552884E-3
1.859998131E1,-4.780016840E-2,9.514218569E-2,1.481347065E-2
1.860998131E1,1.939495653E-2,9.636391699E-2,6.261364091E-3
1.861998131E1,7.070759684E-2,7.803797722E-2,-1.206457894E-2
1.862998131E1,6.948586553E-2,5.115992576E-2,-2.306014486E-2
1.863998131E1,3.039052337E-2,1.695149764E-2,-2.794706449E-2
1.864998131E1,-4.657844082E-2,-3.191768378E-2,-3.405570984E-2
1.865998131E1,-1.113301069E-1,-5.390881747E-2,-3.527744114E-2
1.866998131E1,-1.748600453E-1,-3.069595434E-2,-2.061668597E-2
1.867998131E1,-1.968511790E-1,-1.374445739E-3,-7.177661173E-3
1.868998131E1,-1.882990748E-1,5.115992576E-2,5.039634649E-3
1.869998131E1,-1.504254490E-1,9.758564830E-2,2.458730713E-2
1.870998131E1,-9.300415963E-2,1.098029464E-1,5.146535859E-2
1.871998131E1,-5.039634649E-3,9.147699922E-2,7.834340632E-2
1.872998131E1,7.070759684E-2,5.360338464E-2,7.223475724E-2
1.873998131E1,1.537852138E-1,-7.483093534E-3,3.436114267E-2
1.874998131E1,1.867718995E-1,-3.313941509E-2,-2.290742937E-3
1.875998131E1,1.660024971E-1,-3.436114267E-2,-2.306014486E-2
1.876998131E1,9.025526792E-2,-4.169152305E-2,-2.672533318E-2
1.877998131E1,1.572976820E-2,-5.268708616E-2,-2.183841541E-2
1.878998131E1,-6.246092543E-2,-3.558287397E-2,-5.955931731E-3
1.879998131E1,-9.300415963E-2,2.290742937E-3,3.817904973E-3
1.880998131E1,-8.933897316E-2,3.894263133E-2,8.704823442E-3
1.881998131E1,-5.879573524E-2,3.894263133E-2,9.926552884E-3
1.882998131E1,-3.817904973E-3,1.084284950E-2,1.847865991E-2
1.883998131E1,5.604684353E-2,-1.847865991E-2,2.703076601E-2
1.884998131E1,1.036942974E-1,-2.947422490E-2,2.458730713E-2
1.885998131E1,1.452330947E-1,-2.214384824E-2,-1.069013379E-3
1.886998131E1,1.427896470E-1,-1.725693047E-2,-2.428187430E-2
1.887998131E1,9.147699922E-2,-3.313941509E-2,-3.894263133E-2
1.888998131E1,3.039052337E-2,-5.635227636E-2,-3.649916872E-2
1.889998131E1,-3.924806044E-2,-6.123919412E-2,-1.206457894E-2
1.890998131E1,-6.368265301E-2,-3.436114267E-2,5.039634649E-3
1.891998131E1,-6.368265301E-2,-1.114828233E-2,9.926552884E-3
1.892998131E1,-5.635227636E-2,1.817322709E-2,8.704823442E-3
1.893998131E1,-4.780016840E-2,2.183841541E-2,9.926552884E-3
1.894998131E1,-2.458730713E-2,-3.817904973E-3,1.481347065E-2
1.895998131E1,7.177661173E-3,-1.847865991E-2,9.926552884E-3
1.896998131E1,1.450803876E-2,-2.214384824E-2,5.039634649E-3
1.897998131E1,2.000582218E-2,-1.603520103E-2,-8.903354406E-2
1.898998131E1,-5.085449293E-2,-1.175914705E-2,-1.128572673E-1
1.899998131E1,-1.718057245E-1,-1.664606482E-2,-1.073594838E-1
1.900998131E1,-2.469420880E-1,-1.359174121E-2,-6.826414168E-2
1.901998131E1,-2.493855506E-1,3.100138716E-2,1.114828233E-2
1.902998131E1,-1.595884264E-1,8.353576064E-2,7.528908551E-2
1.903998131E1,7.788525894E-3,1.287397593E-1,1.033888608E-1
1.904998131E1,1.629481763E-1,1.134681329E-1,4.963276163E-2
1.905998131E1,2.313650399E-1,5.787943676E-2,-2.122755162E-2
1.906998131E1,1.928805560E-1,-3.924806044E-2,-8.109229803E-2
1.907998131E1,1.012508348E-1,-1.308777779E-1,-9.147699922E-2
1.908998131E1,-2.031125315E-2,-1.742491722E-1,-6.948586553E-2
1.909998131E1,-8.567378670E-2,-1.412624866E-1,-4.688387364E-2
1.910998131E1,-1.143844277E-1,-4.535670951E-2,-4.688387364E-2
1.911998131E1,-1.082757786E-1,5.910116807E-2,-5.787943676E-2
1.912998131E1,-9.117157012E-2,1.153007299E-1,-4.016435891E-2
1.913998131E1,-5.635227636E-2,1.128572673E-1,1.053741761E-2
1.914998131E1,-1.298087649E-2,5.543597788E-2,5.024362728E-2
1.915998131E1,6.215549260E-2,-3.924806044E-2,6.673697382E-2
1.916998131E1,1.207985133E-1,-1.027780026E-1,4.169152305E-2
1.917998131E1,1.550069451E-1,-1.351538301E-1,-9.010255337E-3
1.918998131E1,1.183550507E-1,-1.076649204E-1,-4.260781780E-2
1.919998131E1,5.482511222E-2,-6.490438432E-2,-4.321868345E-2
1.920998131E1,-2.580903657E-2,-1.603520103E-2,-1.084284950E-2
1.921998131E1,-6.062832847E-2,1.695149764E-2,2.275471389E-2
1.922998131E1,-4.718930274E-2,5.726857483E-2,4.535670951E-2
1.923998131E1,-9.926552884E-3,7.620538026E-2,3.985892609E-2
1.924998131E1,3.344484791E-2,7.987056673E-2,3.252854943E-2
1.925998131E1,5.421425030E-2,4.321868345E-2,3.924806044E-2
1.926998131E1,4.810560122E-2,7.177661173E-3,5.635227636E-2
1.927998131E1,2.794706449E-2,-3.802633286E-2,7.345648855E-2
1.928998131E1,2.794706449E-2,-3.802633286E-2,7.345648855E-2
1.929998131E1,1.817322709E-2,-5.268708616E-2,7.589995116E-2
1.930998131E1,3.161225095E-2,-7.483093534E-3,5.268708616E-2
1.931998131E1,4.382954910E-2,1.695149764E-2,4.291325063E-2
1.932998131E1,4.993819445E-2,5.971203372E-2,3.924806044E-2
1.933998131E1,4.993819445E-2,7.681624591E-2,3.802633286E-2
1.934998131E1,4.138609022E-2,6.704241037E-2,3.924806044E-2
1.935998131E1,3.649916872E-2,6.459894776E-2,4.902189970E-2
1.936998131E1,3.527744114E-2,5.482511222E-2,5.146535859E-2
1.937998131E1,2.550360374E-2,2.672533318E-2,4.046979174E-2
1.938998131E1,7.177661173E-3,4.734201822E-3,2.947422490E-2
1.939998131E1,-3.069595434E-2,-1.603520103E-2,1.481347065E-2
1.940998131E1,-6.612611562E-2,-1.603520103E-2,8.704823442E-3
1.941998131E1,-9.056070447E-2,2.061668597E-2,3.817904973E-3
1.942998131E1,-8.445205539E-2,6.215549260E-2,-3.512472380E-3
1.943998131E1,-4.780016840E-2,9.880737960E-2,-2.290742937E-3
1.944998131E1,1.328630932E-2,1.122464016E-1,1.374445739E-3
1.945998131E1,6.826414168E-2,1.098029464E-1,1.114828233E-2
1.946998131E1,1.330158114E-1,8.903354406E-2,2.596175298E-3
1.947998131E1,1.672242284E-1,5.971203372E-2,-2.672533318E-2
1.948998131E1,1.660024971E-1,8.399390616E-3,-7.437278330E-2
1.949998131E1,1.061377525E-1,2.290742937E-3,-1.061377525E-1
1.950998131E1,-4.046979174E-2,1.695149764E-2,-1.159115955E-1
1.951998131E1,-2.102901936E-1,5.360338464E-2,-8.414662629E-2
1.952998131E1,-3.055851161E-1,8.414662629E-2,-4.871646687E-2
1.953998131E1,-3.397935331E-1,1.012508348E-1,-4.382954910E-2
1.954998131E1,-3.080285788E-1,9.514218569E-2,-4.993819445E-2
1.955998131E1,-2.273944169E-1,1.012508348E-1,-5.360338464E-2
1.956998131E1,-1.589775532E-1,9.025526792E-2,-6.459894776E-2
1.957998131E1,-8.567378670E-2,5.238165334E-2,-7.681624591E-2
1.958998131E1,-2.825249545E-2,1.939495653E-2,-6.459894776E-2
1.959998131E1,5.955931731E-3,5.955931731E-3,-4.993819445E-2
1.960998131E1,2.794706449E-2,-3.313941509E-2,-6.215549260E-2
1.961998131E1,1.450803876E-2,-8.200860023E-2,-1.061377525E-1
1.962998131E1,-5.146535859E-2,-1.601992846E-1,-1.733328849E-1
1.963998131E1,-1.320995092E-1,-2.200640440E-1,-1.965457499E-1
1.964998131E1,-2.139553875E-1,-2.383899838E-1,-1.757763475E-1
1.965998131E1,-2.359465212E-1,-2.041815519E-1,-1.195767820E-1
1.966998131E1,-1.821904182E-1,-1.479819864E-1,-1.024725661E-1
1.967998131E1,-5.635227636E-2,-7.956513762E-2,-1.207985133E-1
1.968998131E1,5.482511222E-2,-3.558287397E-2,-1.403461844E-1
1.969998131E1,1.537852138E-1,-2.947422490E-2,-1.464548260E-1
1.970998131E1,1.941022873E-1,-5.879573524E-2,-1.293506175E-1
1.971998131E1,2.136499584E-1,-1.137735620E-1,-9.269873053E-2
1.972998131E1,2.222020626E-1,-1.601992846E-1,-7.192932814E-2
1.973998131E1,2.234237939E-1,-1.699731201E-1,-7.559451461E-2
1.974998131E1,2.209803313E-1,-1.553123742E-1,-9.392046183E-2
1.975998131E1,2.124282271E-1,-1.357647032E-1,-1.073594838E-1
1.976998131E1,1.904370934E-1,-1.272125840E-1,-1.110246703E-1
1.977998131E1,1.647807807E-1,-1.284343153E-1,-1.036942974E-1
1.978998131E1,1.366809905E-1,-1.223256737E-1,-1.000291109E-1
1.979998131E1,1.207985133E-1,-1.003345400E-1,-8.903354406E-2
1.980998131E1,1.207985133E-1,-8.200860023E-2,-7.925970852E-2
