"Time (s)","Linear Acceleration x (m/s^2)","Linear Acceleration y (m/s^2)","Linear Acceleration z (m/s^2)"
4.205959500E-2,0.000000000E0,0.000000000E0,0.000000000E0
5.299495900E-2,1.695799828E-2,-7.516384125E-3,1.277256012E-2
6.393032400E-2,1.066052914E-2,-2.811431885E-3,2.372264862E-2
7.486574000E-2,1.831459999E-2,2.765703201E-2,4.329586029E-2
8.580110500E-2,3.287053108E-2,4.200458527E-2,9.918117523E-2
9.673647000E-2,2.073800564E-2,1.367330551E-2,1.721916199E-1
1.076718340E-1,-3.109252453E-2,-5.797386169E-3,2.043333054E-1
1.186072510E-1,7.234954834E-2,-2.317428589E-2,1.188640594E-1
1.295426150E-1,5.128157139E-2,-7.139253616E-2,7.874774933E-2
1.404779800E-1,-1.965284348E-2,-5.825138092E-2,8.933162689E-2
1.514133970E-1,-1.712238789E-2,-3.921985626E-3,3.900337219E-2
1.623487610E-1,-9.241366386E-2,3.597259521E-2,-4.386043549E-2
1.732841260E-1,-1.337037086E-1,5.540227890E-2,-1.114482880E-1
1.842195420E-1,-1.058745384E-1,4.245662689E-2,-1.043758392E-1
1.951549070E-1,-3.055678606E-1,7.405328751E-2,-1.060562134E-1
2.060902720E-1,-2.312234640E-1,1.394329071E-1,1.826934814E-1
2.170256880E-1,-3.516733646E-1,1.434812546E-1,1.675262451E-1
2.279610530E-1,-1.071374416E-1,1.680855751E-1,8.051013947E-2
2.388964170E-1,1.051377058E-1,8.728027344E-2,-8.866024017E-2
2.498318340E-1,1.832246780E-1,-1.067590714E-2,-1.649475098E-1
2.607671990E-1,1.384022236E-1,-1.014971733E-1,-1.297359467E-1
2.717025630E-1,-1.250576973E-2,-5.259323120E-2,-2.169799805E-2
2.826379800E-1,1.862120628E-2,2.929353714E-2,-3.851318359E-2
2.935733450E-1,1.199504137E-1,3.924226761E-2,-6.634330750E-2
3.045087090E-1,-7.670164108E-3,2.314090729E-2,6.308555603E-3
3.154440740E-1,-1.214889288E-1,5.189561844E-2,1.352548599E-1
3.263794900E-1,-1.159155369E-1,6.532192230E-2,1.969776154E-1
3.373148550E-1,4.734945297E-2,-5.202674866E-2,1.574316025E-1
3.482502200E-1,2.902589440E-1,-1.822943687E-1,-8.297920227E-2
3.591855840E-1,3.959546089E-1,-2.669587135E-1,-2.413253784E-1
3.701210010E-1,3.872354031E-1,-2.439479828E-1,-2.703647614E-1
3.810563650E-1,2.473500967E-1,-1.339530945E-1,-2.099151611E-1
3.919917820E-1,1.458842754E-1,-4.570913315E-2,-6.629943848E-2
4.029271470E-1,6.227064133E-2,6.332397461E-4,5.198478699E-3
4.138625110E-1,5.119681358E-3,3.352594376E-2,1.081466675E-3
4.247979280E-1,4.252755642E-2,2.499055862E-2,-1.387596130E-3
4.357332920E-1,1.404728889E-1,-1.775264740E-2,5.257701874E-2
4.466686570E-1,2.621996403E-1,-6.933975220E-2,7.210445404E-2
4.576040220E-1,2.884213328E-1,-9.682226181E-2,2.334785461E-2
4.685394380E-1,2.436015010E-1,-1.104397774E-1,7.774353027E-3
4.794748030E-1,2.292915583E-1,-1.037144661E-1,1.845264435E-2
4.904101670E-1,2.072402835E-1,-3.305196762E-2,4.988574982E-2
5.013455840E-1,1.195035577E-1,6.449174881E-2,1.601886749E-1
5.122809490E-1,8.612692356E-2,1.515502930E-1,2.705278397E-1
5.232163130E-1,9.105372429E-2,1.797652245E-1,2.555103302E-1
5.341516780E-1,4.149043560E-2,1.647310257E-1,2.561521530E-1
5.450870950E-1,-7.366573811E-2,1.850309372E-1,1.376171112E-1
5.560224590E-1,-1.215004921E-2,1.197400093E-1,-4.904556274E-2
5.669578240E-1,7.228338718E-2,1.202249527E-2,-1.658096313E-1
5.778932400E-1,1.498595476E-1,-8.569574356E-2,-2.734251022E-1
5.888286050E-1,1.439176798E-1,-1.202554703E-1,-2.789840698E-1
5.997639700E-1,1.025445461E-1,-9.587526321E-2,-1.914815903E-1
6.106993860E-1,1.350957155E-1,-1.132531166E-1,-4.750633240E-2
6.216347510E-1,7.180929184E-2,-4.318428040E-2,-7.047653198E-3
6.325701150E-1,-1.546933651E-1,4.179859161E-2,7.272720337E-3
6.435055320E-1,-1.269285679E-1,7.462406158E-2,9.984970093E-3
6.544408970E-1,-1.799082756E-2,7.016801834E-2,-4.507637024E-2
6.653762610E-1,6.107681990E-2,6.422662735E-2,-1.611652374E-1
6.763116260E-1,7.188677788E-2,3.685998917E-2,-1.758699417E-1
6.872470420E-1,-1.607179642E-3,4.333686829E-2,-1.589517593E-1
6.981824070E-1,-7.966852188E-2,3.663253784E-2,-1.297531128E-1
7.091177720E-1,-1.965795755E-1,8.184194565E-2,-1.319122314E-1
7.200531880E-1,-2.387676239E-1,1.573333740E-1,-1.526403427E-1
7.309885530E-1,-2.175332308E-1,2.399873734E-1,-1.339378357E-1
7.419239170E-1,-2.015082836E-1,3.256855011E-1,-1.401014328E-1
7.528593340E-1,-2.687636614E-1,3.450675011E-1,-1.026735306E-1
7.637946990E-1,-3.697240353E-1,3.366003036E-1,-6.552219391E-2
7.747300630E-1,-5.045528412E-1,3.573341370E-1,-4.760646820E-2
7.856654280E-1,-5.722206831E-1,4.494628906E-1,-1.419448853E-2
7.966008450E-1,-7.013419867E-1,5.414819717E-1,-1.019954681E-2
8.075362090E-1,-8.162369728E-1,5.291709900E-1,4.320144653E-4
8.184715740E-1,-7.726386786E-1,4.651584625E-1,-3.089046478E-2
8.294069900E-1,-6.148163080E-1,3.888192177E-1,-1.145124435E-1
8.403423550E-1,-4.588578939E-1,3.024168015E-1,-2.806873322E-1
8.512777200E-1,-3.843700886E-1,2.124333382E-1,-4.137697220E-1
8.622130840E-1,-3.513203859E-1,1.333439350E-1,-3.660783768E-1
8.731485010E-1,-2.795537710E-1,1.964402199E-2,-2.481403351E-1
8.840838650E-1,-2.738107443E-1,-1.093981266E-1,-1.308746338E-1
8.950192300E-1,-3.511462212E-1,-1.975870132E-1,-8.690834045E-2
9.059546470E-1,-3.241949081E-1,-1.972033978E-1,6.028556824E-2
9.168900110E-1,-2.693728209E-1,-1.210873127E-1,1.600904465E-1
9.278253760E-1,-2.901028395E-1,7.626771927E-3,1.361989975E-1
9.387607400E-1,-2.083219290E-1,6.759023666E-2,5.728530884E-2
9.496961570E-1,7.738769054E-3,4.568314552E-2,5.309009552E-2
9.606315220E-1,1.902239323E-1,-2.862024307E-2,5.210971832E-2
9.715668860E-1,2.386202812E-1,-1.030170918E-1,8.743000031E-2
9.825023030E-1,2.338150144E-1,-2.130782604E-1,1.269073486E-1
9.934376670E-1,1.383027434E-1,-1.591911316E-1,1.292877197E-1
1.004373032E0,8.828628063E-2,-1.308045387E-1,6.749725342E-2
1.015308397E0,1.299686432E-1,-1.658952236E-1,4.180049896E-2
1.026243813E0,1.754842401E-1,-1.892745495E-1,6.996631622E-2
1.037179178E0,2.296770811E-1,-1.880507469E-1,-6.229305267E-2
1.048114542E0,2.963851094E-1,-1.603419781E-1,-3.256587982E-1
1.059049907E0,3.339708447E-1,-1.212184429E-1,-5.260639191E-1
1.069985324E0,2.694921792E-1,-1.116473675E-1,-5.442838669E-1
1.080920688E0,2.191706002E-1,-2.051780224E-1,-4.165239334E-1
1.091856053E0,3.280192912E-1,-3.118665218E-1,-2.125558853E-1
1.102791470E0,3.533308506E-1,-4.346666336E-1,-4.200077057E-2
1.113726834E0,4.467679858E-1,-7.712631226E-1,-6.680774689E-2
1.124662199E0,5.583160520E-1,-7.604932785E-1,-2.476692200E-1
1.135597615E0,6.967356801E-1,-7.175321579E-1,-2.950820923E-1
1.146532980E0,8.204934597E-1,-8.710088730E-1,-2.207975388E-1
1.157468345E0,1.022526026E0,-1.033382893E0,-6.864547729E-2
1.168403709E0,1.210116744E0,-1.069857001E0,2.202491760E-1
1.179339126E0,1.366894484E0,-8.645009995E-1,5.841312408E-1
1.190274490E0,1.382126927E0,-8.552308083E-1,8.087472916E-1
1.201209855E0,1.194385290E0,-6.344621181E-1,9.350147247E-1
1.212145220E0,3.494774401E-1,-2.986567020E-1,9.851913452E-1
1.223080636E0,-1.729086936E-1,5.988979340E-2,1.220018387E0
1.234016001E0,-2.911085784E-1,3.442614079E-1,1.432795525E0
1.244951365E0,-2.354170084E-1,5.317025185E-1,1.605520248E0
1.255886782E0,-8.852472901E-2,4.024424553E-1,1.334708214E0
1.266822147E0,-8.919280767E-2,1.808998585E-1,1.090224266E0
1.277757511E0,-2.381269038E-1,5.915141106E-2,7.846469879E-1
1.288692876E0,-4.734132588E-1,-1.998686790E-2,3.412904739E-1
1.299628292E0,-5.191029310E-1,5.400490761E-2,-1.272144318E-1
1.310563657E0,-4.587931335E-1,-7.289648056E-2,-7.123699188E-1
1.321499022E0,-5.504338145E-1,1.273458004E-1,-1.105338097E0
1.332434386E0,-2.795215249E-1,2.674710751E-1,-9.565582275E-1
1.343369803E0,-2.086558938E-2,6.006932259E-2,-8.176307678E-1
1.354305167E0,2.492544800E-1,-1.861369610E-1,-5.567121506E-1
1.365240532E0,3.682389259E-1,-3.010170460E-1,-1.474132538E-1
1.376175949E0,2.020730823E-1,-2.534794807E-1,1.035881042E-2
1.387111313E0,3.853446245E-2,-1.210486889E-1,1.276893616E-1
1.398046678E0,3.984967619E-2,7.110500336E-2,2.798681259E-1
1.408982042E0,1.120145544E-1,1.244497299E-2,3.474254608E-1
1.419917459E0,7.502783090E-2,-2.131206989E-1,3.740043640E-1
1.430852824E0,1.719130576E-1,-2.702867985E-1,3.780832291E-1
1.441788188E0,3.942321539E-1,-2.293303013E-1,3.799543381E-1
1.452723553E0,5.107420683E-1,-2.933933735E-1,2.077436447E-1
1.463658970E0,9.231749177E-1,-5.032382011E-1,3.781414032E-2
1.474594334E0,3.707708716E-1,-7.892010212E-1,-1.009178162E-1
1.485529699E0,-7.007572651E-1,2.327837944E-1,1.062107086E-1
1.496465063E0,-7.908284664E-1,3.248822689E-1,1.003456116E-1
1.507400480E0,-3.567464948E-1,1.093356609E-1,1.869668961E-1
1.518335845E0,-2.955415845E-2,-1.464078426E-1,1.119537354E-1
1.529271209E0,8.955907822E-2,-2.132318020E-1,1.091585159E-1
1.540206626E0,1.929339767E-2,-1.330530643E-1,1.294898987E-1
1.551141990E0,-8.822524548E-2,-1.609086990E-3,9.367942810E-2
1.562077355E0,-1.337840259E-1,1.481924057E-1,5.974674225E-2
1.573012720E0,-9.038576484E-2,1.294047832E-1,-9.341049194E-2
1.583948136E0,5.396074057E-2,9.860110283E-2,-1.049995422E-1
1.594883501E0,2.016975880E-1,6.191635132E-2,1.817512512E-2
1.605818865E0,1.530246735E-1,-5.621838570E-2,8.085918427E-2
1.616754230E0,-7.774233818E-3,-1.007585526E-1,2.088165283E-2
1.627689647E0,-1.037698984E-2,-2.130985260E-2,-6.238174438E-2
1.638625011E0,9.933060408E-2,4.697585106E-2,-1.623859406E-1
1.649560376E0,1.412004232E-1,5.516886711E-2,-2.803764343E-1
1.660495740E0,1.126836538E-1,3.616905212E-2,-2.107696533E-1
1.671431157E0,1.241129637E-2,2.407908440E-2,-1.457567215E-1
1.682366522E0,4.621505737E-3,3.398418427E-2,-1.351499557E-1
1.693301886E0,6.142258644E-4,3.730964661E-2,-1.240625381E-1
1.704237251E0,7.921159267E-3,7.332062721E-2,-9.505558014E-2
1.715172667E0,-1.009600759E-1,1.336464882E-1,-8.335208893E-2
1.726108032E0,-4.328691959E-2,-5.775976181E-2,-6.623172760E-2
1.737043397E0,1.329854131E-1,-1.168348789E-1,-2.007646561E-1
1.747978761E0,1.626659632E-1,-9.833478928E-2,-3.419799805E-1
1.758914178E0,3.518050909E-2,-6.230163574E-2,-3.940944672E-1
1.769849542E0,-8.383828402E-2,1.095318794E-2,-3.696365356E-1
1.780784907E0,-1.084709167E-1,6.765198708E-2,-4.088783264E-1
1.791720272E0,-6.331974268E-2,7.160377502E-2,-5.031499863E-1
1.802655688E0,-8.789956570E-3,1.142168045E-2,-5.526227951E-1
1.813591053E0,-4.670608044E-2,-2.423644066E-2,-4.193925858E-1
1.824526417E0,-8.263778687E-2,1.254224777E-2,-1.830739975E-1
1.835461782E0,-7.800453901E-2,9.395027161E-2,8.029651642E-2
1.846397199E0,-4.998528957E-2,2.452499866E-1,3.961772919E-1
1.857332563E0,1.318237782E-1,1.100933552E-1,5.536394119E-1
1.868267928E0,2.466167212E-1,4.634904861E-2,5.728683472E-1
1.879203345E0,1.395358443E-1,5.311870575E-2,4.819526672E-1
1.890138709E0,9.017324448E-2,1.055269241E-1,2.961282730E-1
1.901074074E0,2.161282301E-2,1.342043877E-1,1.104354858E-1
1.912009438E0,2.052891254E-2,1.167485714E-1,8.732795715E-2
1.922944855E0,-9.535968304E-2,6.467676163E-2,8.311557770E-2
1.933880220E0,-1.916148067E-1,5.717277527E-3,-6.186199188E-2
1.944815584E0,-1.209538579E-1,-1.517200470E-2,-2.122869492E-1
1.955750949E0,1.127535105E-2,-2.863574028E-2,-3.289833069E-1
1.966686365E0,5.442780256E-2,-4.221820831E-2,-3.947963715E-1
1.977621730E0,1.449656487E-2,-5.411338806E-2,-4.401063919E-1
1.988557095E0,-7.536208630E-2,-8.464717865E-2,-4.215469360E-1
1.999492459E0,-3.203761578E-2,-7.730960846E-2,-2.472076416E-1
2.010427824E0,-4.925191402E-3,-9.883236885E-2,-1.376247406E-2
2.021363240E0,-1.165782511E-1,-1.153798103E-1,1.513357162E-1
2.032298605E0,-9.837278724E-2,-7.730555534E-2,1.871042252E-1
2.043233970E0,4.084748030E-2,-2.795743942E-2,1.664609909E-1
2.054169334E0,1.840854287E-1,5.315113068E-2,1.144962311E-1
2.065104751E0,1.661031842E-1,1.069784164E-1,1.980876923E-2
2.076040115E0,1.418224573E-1,1.227865219E-1,-1.299934387E-1
2.086975480E0,1.768289804E-1,9.365081787E-2,-2.999811172E-1
2.097910845E0,2.223409414E-1,7.152295113E-2,-3.614177704E-1
2.108846261E0,1.804999709E-1,5.402278900E-2,-3.330583572E-1
2.119781626E0,1.562386751E-2,2.534317970E-2,-2.093915939E-1
2.130716990E0,-6.501352787E-2,-1.452255249E-2,-5.821418762E-2
2.141652355E0,-1.607735753E-1,-4.850959778E-2,1.009330750E-1
2.152587772E0,-1.717446446E-1,-6.451964378E-2,2.632884979E-1
2.163523136E0,-5.097168684E-2,-1.049518585E-2,3.838062286E-1
2.174458501E0,4.754269123E-2,-6.792545319E-3,4.334335327E-1
2.185393865E0,1.136243939E-1,-2.224946022E-2,4.127788544E-1
2.196329282E0,5.861568451E-2,-3.252816200E-2,3.789958954E-1
2.207264647E0,-1.756304502E-2,-2.086639404E-3,3.286323547E-1
2.218200011E0,-1.571285725E-2,9.184598923E-3,2.682104111E-1
2.229135376E0,-6.705212593E-2,-8.141517639E-3,1.211614609E-1
2.240070792E0,-1.480113864E-1,-3.917050362E-2,-9.013080597E-2
2.251006157E0,-1.582714319E-1,4.874229431E-3,-2.100048065E-1
2.261941522E0,-8.170551062E-2,5.809831619E-2,-2.251901627E-1
2.272876886E0,-5.553555489E-2,2.514076233E-2,-1.703767776E-1
2.283812251E0,-2.819740772E-2,-4.124093056E-2,-5.881404877E-2
2.294747615E0,5.237042904E-2,-8.189892769E-2,4.294681549E-2
2.305683032E0,9.967482090E-2,-8.708930016E-2,1.871929169E-1
2.316618397E0,1.823462248E-1,-7.756495476E-2,3.652915955E-1
2.327553813E0,2.568202615E-1,3.095865250E-3,4.652566910E-1
2.338489178E0,2.450419068E-1,4.143047333E-2,4.669046402E-1
2.349424542E0,1.625602841E-1,2.850079536E-2,3.943748474E-1
2.360359907E0,1.473533511E-1,7.503032684E-4,2.156267166E-1
2.371295324E0,8.559679985E-2,-5.349898338E-2,-1.707553864E-2
2.382230688E0,-4.032903910E-2,-6.853365898E-2,-1.743164062E-1
2.393166053E0,-1.130701900E-1,-5.188584328E-2,-2.801923752E-1
2.404101417E0,-5.115246773E-2,-2.722382545E-2,-3.697729111E-1
2.415036782E0,5.311435461E-2,-4.202485085E-2,-3.738546371E-1
2.425972199E0,1.025040150E-1,4.045963287E-4,-2.948503494E-1
2.436907563E0,1.385236382E-1,2.674078941E-2,-2.084474564E-1
2.447842928E0,1.619650126E-1,4.583477974E-2,-1.219997406E-1
2.458778292E0,1.677458286E-1,7.307553291E-2,-3.985691071E-2
2.469713657E0,1.553373933E-1,1.091933250E-1,1.389312744E-2
2.480649074E0,1.081897616E-1,6.910347939E-2,3.234100342E-2
2.491584438E0,4.584896564E-2,1.415562630E-2,6.215953827E-2
2.502519803E0,5.086004734E-2,6.642818451E-3,5.137920380E-2
2.513455167E0,1.489693522E-1,2.322459221E-2,1.841640472E-2
2.524390584E0,2.435691953E-1,3.090596199E-2,1.171112061E-3
2.535325949E0,2.683415413E-1,2.510333061E-2,-3.532409668E-3
2.546261313E0,3.101406693E-1,9.815216064E-3,6.055831909E-3
2.557196678E0,2.842385769E-1,-3.686189651E-3,-3.222656250E-2
2.568132042E0,2.258523703E-1,1.099443436E-2,-7.692718506E-2
2.579067459E0,1.752671003E-1,2.721381187E-2,-1.175880432E-1
2.590002824E0,1.242512465E-1,3.374886513E-2,-1.855401993E-1
2.600938188E0,7.616430521E-2,-1.250243187E-2,-2.554292679E-1
2.611873553E0,4.650592804E-2,-4.116868973E-2,-2.327756882E-1
2.622808970E0,7.126331329E-3,-3.588557243E-2,-1.382761002E-1
2.633744334E0,-5.085802078E-2,-1.910185814E-2,1.852607727E-2
2.644679699E0,-1.330303550E-1,-5.011296272E-2,1.908216476E-1
2.655615063E0,-1.718595624E-1,-7.647347450E-2,3.809442520E-1
2.666550428E0,-2.344558239E-1,-9.521055222E-2,4.742746353E-1
2.677485845E0,-2.756123841E-1,-3.949832916E-2,5.153770447E-1
2.688421209E0,-2.995585501E-1,1.605367661E-2,4.585924149E-1
2.699356574E0,-3.193261027E-1,5.795717239E-3,2.765731812E-1
2.710291938E0,-3.509007692E-1,-3.031444550E-2,3.682994843E-2
2.721227355E0,-2.608275712E-1,-1.520013809E-2,-2.173948288E-1
2.732162720E0,-1.516622901E-1,-1.682877541E-2,-3.816041946E-1
2.743098084E0,-2.141670585E-1,-1.123762131E-2,-4.839954376E-1
2.754033449E0,-1.721001863E-1,-2.557277679E-2,-4.779825211E-1
2.764968813E0,-6.081241369E-2,-3.196644783E-2,-3.416328430E-1
2.775904230E0,1.350927353E-2,-1.499819756E-2,-8.640384674E-2
2.786839595E0,1.472538710E-2,-1.388216019E-2,1.562328339E-1
2.797774959E0,-4.444479942E-2,-1.423430443E-2,2.613573074E-1
2.808710324E0,-5.017381907E-2,1.561999321E-2,2.741107941E-1
2.819645688E0,-5.889725685E-2,2.431416512E-2,1.874132156E-1
2.830581105E0,-5.047756433E-2,-2.241849899E-3,4.466438293E-2
2.841516470E0,-6.767988205E-3,-6.298208237E-2,-1.248407364E-1
2.852451834E0,1.720130444E-2,-5.782580376E-2,-2.157907486E-1
2.863387199E0,4.667526484E-2,1.585006714E-3,-2.410678864E-1
2.874322563E0,5.703032017E-2,3.778553009E-2,-1.989078522E-1
2.885257980E0,8.914780617E-2,4.034328461E-2,-1.628389359E-1
2.896193709E0,7.971215248E-2,5.128002167E-2,-9.874820709E-2
2.907128709E0,3.966468573E-2,1.111197472E-2,-3.124809265E-2
2.918064074E0,-5.765354633E-2,-5.067658424E-2,5.577468872E-2
2.928999438E0,-1.357201934E-1,-6.414151192E-2,1.987771988E-1
2.939934855E0,-1.614578962E-1,-6.236267090E-2,3.113975525E-1
2.950870220E0,-1.198381782E-1,-4.269647598E-2,3.710527420E-1
2.961805584E0,-8.454120159E-2,3.049612045E-3,3.357849121E-1
2.972740949E0,-4.167371988E-2,3.560972214E-2,2.044544220E-1
2.983676313E0,3.196740150E-2,7.052493095E-2,1.390457153E-2
2.994611730E0,1.097254753E-1,7.211184502E-2,-1.095809937E-1
3.005547095E0,1.019284725E-1,6.548571587E-2,-1.791191101E-1
3.016482459E0,7.353287935E-2,4.483342171E-2,-1.854286194E-1
3.027417824E0,-5.068361759E-3,2.150821686E-2,-1.517267227E-1
3.038353240E0,-2.552646399E-2,-6.767749786E-3,-7.911109924E-2
3.049288605E0,-8.482575417E-3,-3.455185890E-2,-3.447532654E-3
3.060223970E0,-2.008223534E-2,-4.499459267E-2,2.720928192E-2
3.071159334E0,-2.235853672E-2,-2.577924728E-2,3.688335419E-2
3.082094699E0,3.354388475E-2,1.816892624E-2,-2.131080627E-2
3.093030115E0,3.587037325E-2,1.524686813E-3,-6.556415558E-2
3.103965480E0,7.388639450E-2,-1.345205307E-2,-8.803749084E-2
3.114900845E0,1.199375987E-1,1.756215096E-2,-8.154773712E-2
3.125836209E0,9.289824963E-2,1.651787758E-2,-6.332397461E-2
3.136771574E0,6.069254875E-2,1.224970818E-2,-1.749515533E-2
3.147706938E0,5.390989780E-2,4.896855354E-2,1.500988007E-2
3.158642355E0,1.359927654E-2,7.355976105E-2,6.664562225E-2
3.169577720E0,-8.404850960E-4,1.614186764E-1,1.306581497E-1
3.180513084E0,-8.929014206E-3,1.994979382E-1,1.119737625E-1
3.191448449E0,3.916698694E-2,1.564736366E-1,1.166467667E-1
3.202383865E0,-5.701363087E-3,1.230294704E-1,4.092979431E-2
3.213319230E0,-7.574629784E-2,1.489245892E-1,-2.265071869E-2
3.224254595E0,6.893593073E-2,1.183536053E-1,-9.276771545E-2
3.235189959E0,1.911713481E-1,4.914832115E-2,-5.840015411E-2
3.246125324E0,1.572734714E-1,2.404904366E-2,-1.240634918E-2
3.257060636E0,1.293647885E-1,1.856160164E-2,-3.393363953E-2
3.267996105E0,1.223590374E-1,3.258752823E-2,-5.313587189E-2
3.278931470E0,1.407878995E-1,-8.402109146E-3,-8.517932892E-2
3.289866834E0,1.666393280E-1,-6.561994553E-2,-1.608209610E-1
3.300802199E0,1.864283085E-1,-9.014415741E-2,-2.653236389E-1
3.311737563E0,2.988690138E-1,-1.245670319E-1,-2.967557907E-1
3.322672980E0,3.372540474E-1,-1.407334805E-1,-2.346591949E-1
3.333608345E0,2.109247446E-1,-1.545574665E-1,-1.409730911E-1
3.344543709E0,6.394052505E-2,-1.399116516E-1,-7.178974152E-2
3.355479074E0,2.953481674E-2,-5.647230148E-2,-1.993274689E-2
3.366414438E0,3.881382942E-2,2.104735374E-2,-4.812812805E-2
3.377349803E0,-2.822077274E-2,-3.682851791E-3,-9.293365479E-2
3.388285220E0,-2.030563354E-2,-5.348300934E-2,-1.012887955E-1
3.399220584E0,-1.047790051E-2,-9.456896782E-2,-7.798194885E-2
3.410155949E0,-8.556675911E-2,-8.218646049E-2,-3.867340088E-2
3.421091313E0,-1.410667300E-1,-5.544281006E-2,-3.115844727E-2
3.432026730E0,-2.192883492E-1,-5.810856819E-2,9.657859802E-3
3.442962095E0,-2.530353069E-1,-5.424547195E-2,8.133125305E-2
3.453897459E0,-2.863599658E-1,-3.171110153E-2,1.972112656E-1
3.464832824E0,-2.827954888E-1,-5.018782616E-2,2.724466324E-1
3.475768188E0,-1.962125897E-1,-5.949974060E-2,2.893047333E-1
3.486703553E0,-1.381480694E-1,-8.332180977E-2,2.380371094E-1
3.497638970E0,-4.453480244E-2,-6.133508682E-2,1.258172989E-1
3.508574334E0,5.642771721E-3,-3.301262856E-2,-1.181049347E-1
3.519509699E0,1.140356064E-3,1.970291138E-2,-2.710485458E-1
3.530445063E0,-1.239851713E-1,2.561855316E-2,-2.758846283E-1
3.541380428E0,-2.284419537E-1,1.046485901E-1,-2.397432327E-1
3.552315792E0,-3.523992300E-1,5.534982681E-2,-1.375560760E-1
3.563251209E0,-3.658832312E-1,9.013414383E-3,3.898429871E-2
3.574186574E0,-3.712886572E-1,1.375675201E-2,1.466922760E-1
3.585121938E0,-3.264442682E-1,-4.572296143E-2,1.598892212E-1
3.596057303E0,-2.188143134E-1,-1.012036800E-1,1.532258987E-1
3.606992667E0,-1.207129955E-1,-9.882521629E-2,1.430578232E-1
3.617928032E0,-2.491450310E-2,-1.744079590E-2,1.240606308E-1
3.628863449E0,2.548384666E-2,1.637196541E-2,1.167201996E-1
3.639798813E0,3.326427937E-2,-4.407000542E-2,1.461839676E-1
3.650734178E0,-6.245350838E-2,-7.698321342E-2,2.488632202E-1
3.661669542E0,-1.457491517E-1,-6.734442711E-2,3.743667603E-1
3.672604907E0,-1.485449076E-1,-4.708290100E-2,4.403438568E-1
3.683540324E0,-7.283735275E-2,-7.718324661E-3,4.068584442E-1
3.694475688E0,-9.105086327E-3,5.337905884E-2,2.895154953E-1
3.705411053E0,8.002018929E-2,4.357719421E-2,1.079263687E-1
3.716346417E0,1.716419458E-1,-1.920580864E-2,8.486652374E-2
3.727281782E0,1.746920347E-1,-4.877710342E-2,7.925033569E-2
3.738217147E0,1.517063379E-1,1.965332031E-2,9.236240387E-2
3.749152563E0,1.830832958E-1,7.766819000E-2,7.280540466E-2
3.760087928E0,2.176948786E-1,4.837727547E-2,6.251525879E-2
3.771023292E0,2.256121635E-1,7.755589485E-2,1.005821228E-1
3.781958657E0,2.023011446E-1,7.485198975E-2,1.163311005E-1
3.792894022E0,1.678804159E-1,6.258797646E-2,9.639930725E-2
3.803829386E0,1.653149128E-1,2.914428711E-2,-2.843189240E-2
3.814764803E0,1.808434725E-1,1.469135284E-2,-2.357444763E-1
3.825700167E0,2.249482870E-1,-8.840799332E-3,-3.465547562E-1
3.836635532E0,2.840563059E-1,-2.895259857E-2,-3.694257736E-1
3.847570897E0,2.239890099E-1,-3.087925911E-2,-3.092927933E-1
3.858506261E0,1.509892941E-1,-3.329157829E-2,-2.412109375E-1
3.869441626E0,4.567098618E-2,-6.339788437E-2,-1.421585083E-1
3.880377042E0,-5.927705765E-2,-9.169054031E-2,-7.088184357E-2
3.891312407E0,-9.381437302E-2,-8.982777596E-2,-2.041625977E-2
3.902247772E0,-1.279331446E-1,-7.421302795E-2,-9.147644043E-3
3.913183136E0,-1.399760842E-1,-6.617212296E-2,-3.273391724E-2
3.924118501E0,-1.477702856E-1,-3.578448296E-2,-7.954311371E-2
3.935053917E0,-1.521785259E-1,-2.055191994E-2,-1.307649612E-1
3.945989282E0,-1.368139982E-1,-3.374457359E-2,-1.357526779E-1
3.956924647E0,-1.691311598E-1,-3.752183914E-2,-6.231307983E-2
3.967860011E0,-1.701884866E-1,-2.625989914E-2,3.287982941E-2
3.978795324E0,-1.826910973E-1,2.093529701E-2,8.289146423E-2
3.989730740E0,-1.513274312E-1,5.128526688E-2,1.075916290E-1
4.000666105E0,-5.903506279E-2,4.468989372E-2,9.820461273E-2
4.011601522E0,1.125204563E-2,1.232314110E-2,7.990646362E-2
4.022536886E0,-2.336800098E-2,-8.982419968E-3,7.923221588E-2
4.033472251E0,-7.828855515E-2,-1.331424713E-2,8.745765686E-2
4.044407615E0,-9.187304974E-2,-8.316993713E-3,6.765651703E-2
4.055342980E0,-9.366548061E-2,-3.906822205E-2,2.751636505E-2
4.066278345E0,-1.699942350E-2,-3.748536110E-2,3.378486633E-2
4.077213761E0,6.332474947E-2,-5.361843109E-2,1.602745056E-2
4.088149126E0,7.308173180E-2,-4.434657097E-2,-7.247924805E-3
4.099084490E0,5.302453041E-2,-1.691007614E-2,-6.890296936E-3
4.110019855E0,9.670948982E-2,-5.608320236E-3,2.449035645E-3
4.120955220E0,1.262820959E-1,1.847577095E-2,6.196212769E-2
4.131890584E0,1.213116050E-1,4.490828514E-2,1.863174438E-1
4.142826001E0,5.213260651E-2,6.779313087E-2,2.855072021E-1
4.153761365E0,2.885997295E-3,6.424975395E-2,3.424673080E-1
4.164696730E0,3.382146358E-3,8.674287796E-2,3.355302811E-1
4.175632095E0,-3.771150112E-2,9.896063805E-2,3.346147537E-1
4.186567459E0,-9.878462553E-2,6.616854668E-2,2.670326233E-1
4.197502824E0,-7.189643383E-2,-2.588176727E-2,6.774520874E-2
4.208438188E0,3.748482466E-2,-1.328144073E-1,-8.837127686E-2
4.219373553E0,1.377101541E-1,-1.454262733E-1,-1.722545624E-1
4.230308970E0,1.838842630E-1,-1.660652161E-1,-2.548303604E-1
4.241244334E0,1.884918213E-1,-2.197418213E-1,-3.388414383E-1
4.252179699E0,2.103632689E-1,-2.481939793E-1,-4.259929657E-1
4.263115063E0,1.855219603E-1,-2.506599426E-1,-5.736656189E-1
4.274050428E0,6.912964582E-2,-2.505831718E-1,-7.350883484E-1
4.284985792E0,-7.159572840E-2,-2.666738033E-1,-8.975353241E-1
4.295921209E0,-1.733731031E-1,-2.579581738E-1,-9.205265045E-1
4.306856574E0,-2.712567449E-1,-1.743786335E-1,-8.644552231E-1
4.317791938E0,-4.516772032E-1,-4.152560234E-2,-7.300844193E-1
4.328727303E0,-6.405928731E-1,3.957915306E-2,-4.473524094E-1
4.339662667E0,-6.852115393E-1,4.712629318E-2,-4.053592682E-2
4.350598032E0,-5.627187490E-1,-2.210426331E-2,3.914213181E-1
4.361533397E0,-4.441245198E-1,-4.415225983E-2,7.636089325E-1
4.372468761E0,-3.782137632E-1,2.374505997E-2,9.925203323E-1
4.383404178E0,-3.436073661E-1,1.242411137E-1,1.073079109E0
4.394339542E0,-3.150599301E-1,1.946389675E-1,1.031044006E0
4.405274907E0,-1.822695136E-1,2.343990803E-1,8.422422409E-1
4.416210272E0,2.046787739E-2,2.582600117E-1,4.943885803E-1
4.427145636E0,1.790041924E-1,2.797720432E-1,7.258796692E-2
4.438081001E0,3.367698789E-1,2.559816837E-1,-2.849855423E-1
4.449016365E0,4.776483774E-1,2.214276791E-1,-5.333089828E-1
4.459951782E0,5.343405604E-1,2.033171654E-1,-6.795406342E-1
4.470887147E0,5.657728314E-1,2.217965126E-1,-6.700181961E-1
4.481822772E0,5.844773650E-1,2.094194889E-1,-5.586957932E-1
4.492757876E0,6.105560064E-1,1.406016350E-1,-4.202127457E-1
4.503693240E0,6.567956805E-1,7.288575172E-2,-2.798986435E-1
4.514628605E0,6.517439485E-1,2.012705803E-2,-1.335716248E-1
4.525563970E0,5.527700782E-1,-3.308296204E-3,-3.292179108E-2
4.536499334E0,3.908826113E-1,-2.978086472E-2,4.100799561E-3
4.547434751E0,1.677743793E-1,-5.696058273E-2,4.061698914E-3
4.558370115E0,2.035272121E-2,-4.461383820E-2,8.307456970E-3
4.569305480E0,-3.133535385E-2,4.788661003E-2,9.466171265E-3
4.580240845E0,-4.110729694E-2,1.341850758E-1,1.959056854E-1
4.591176209E0,-7.298588753E-4,7.600522041E-2,4.080476761E-1
4.602111574E0,1.972355843E-1,3.833770752E-2,4.836854935E-1
4.613046990E0,1.801768541E-1,-4.890751839E-2,5.557069778E-1
4.623982355E0,9.770619869E-2,-4.959797859E-2,6.090545654E-1
4.634917720E0,-2.741521597E-2,3.390216827E-2,5.682268143E-1
4.645853084E0,-1.708261967E-1,6.849503517E-2,3.819751740E-1
4.656788449E0,-2.288959622E-1,4.170203209E-2,1.704769135E-1
4.667723813E0,-1.746763587E-1,-8.458137512E-3,-4.137992859E-3
4.678659178E0,-1.285413504E-1,-3.568768501E-2,-1.113767624E-1
4.689594542E0,-1.316168308E-1,-5.378699303E-2,-1.512603760E-1
4.700529907E0,-1.042507887E-1,-9.193181992E-2,-1.747226715E-1
4.711465324E0,-8.343183994E-2,-1.147637367E-1,-1.611194611E-1
4.722400688E0,-8.593314886E-2,-1.093645096E-1,-1.270761490E-1
4.733336053E0,-1.040916443E-1,-1.025691032E-1,-1.368989944E-1
4.744271417E0,-1.115701795E-1,-9.676885605E-2,-1.918544769E-1
4.755206782E0,-1.192985773E-1,-6.223750114E-2,-2.876510620E-1
4.766142147E0,-1.450068951E-1,-1.745295525E-2,-3.372936249E-1
4.777077511E0,-1.528782248E-1,-3.368377686E-3,-3.039779663E-1
4.788012928E0,-1.163329482E-1,-2.031064034E-2,-1.899175644E-1
4.798948292E0,-6.618273258E-2,-1.647472382E-2,-6.209850311E-2
4.809883657E0,-4.242658615E-2,-7.122278214E-3,1.134090424E-1
4.820819022E0,-2.748435736E-2,-3.066062927E-3,2.241067886E-1
4.831754386E0,1.772797108E-2,-9.675502777E-3,2.372035980E-1
4.842689751E0,1.861107349E-2,-5.254602432E-2,2.409057617E-1
4.853625115E0,-3.653591871E-2,-6.420922279E-2,2.128849030E-1
4.864560480E0,-7.132554054E-2,-4.266953468E-2,1.556148529E-1
4.875495897E0,-1.518800855E-1,-7.094073296E-2,6.386756897E-3
4.886431209E0,-1.087977290E-1,-6.950235367E-2,-1.349363327E-1
4.897366626E0,-1.641756296E-1,-3.918743134E-2,-2.357454300E-1
4.908301990E0,-9.749406576E-2,-3.962826729E-2,-2.855920792E-1
4.919237355E0,-4.960060120E-3,-7.378721237E-2,-3.277482986E-1
4.930172720E0,3.823441267E-2,-1.038391590E-1,-2.886686325E-1
4.941108084E0,1.390814781E-2,-1.158072948E-1,-9.577655792E-2
4.952043449E0,-9.699583054E-3,-8.885407448E-2,1.047677994E-1
4.962978813E0,-2.574008703E-2,-7.245993614E-2,1.781740189E-1
4.973914230E0,5.535811186E-2,-4.624581337E-2,2.222156525E-1
4.984849595E0,9.391283989E-2,-2.168774605E-2,2.720861435E-1
4.995784959E0,4.656052589E-2,-6.703376770E-3,3.477621078E-1
5.006720324E0,-2.317506075E-2,1.024174690E-2,3.748130798E-1
5.017655688E0,-1.122505665E-1,1.235198975E-2,3.522176743E-1
5.028591053E0,-1.240593791E-1,-1.329159737E-2,2.759618759E-1
5.039526417E0,-5.453532934E-2,-3.490924835E-2,1.655120850E-1
5.050461782E0,-1.146669984E-1,-3.491163254E-3,4.216194153E-2
5.061397199E0,-8.813846111E-2,8.784532547E-3,-7.166385651E-2
5.072332563E0,-3.235095739E-2,2.362561226E-2,-1.445512772E-1
5.083267928E0,-2.009457350E-2,2.655839920E-2,-1.152648926E-1
5.094203292E0,-3.626185656E-2,-1.093029976E-2,-7.805824280E-3
5.105138657E0,-3.536283970E-2,-1.744008064E-2,9.977531433E-2
5.116074022E0,-7.016575336E-2,3.918123245E-2,2.183427811E-1
5.127009386E0,-2.925133705E-2,7.875704765E-2,2.020683289E-1
5.137944751E0,1.940566301E-2,9.604167938E-2,6.984710693E-2
5.148880115E0,8.948266506E-2,5.443477631E-2,-4.119873047E-2
5.159815532E0,1.472789049E-1,9.775638580E-3,-8.084392548E-2
5.170750845E0,1.551604271E-1,-1.014208794E-2,-7.687759399E-2
5.181686261E0,1.274192929E-1,6.526231766E-3,-7.904243469E-2
5.192621626E0,9.176111221E-2,5.814433098E-2,-6.931495667E-2
5.203556990E0,1.175815463E-1,8.755397797E-2,-1.051940918E-1
5.214492355E0,1.611070037E-1,5.437684059E-2,-1.096096039E-1
5.225427720E0,1.684008241E-1,9.298563004E-3,-8.195400238E-2
5.236363084E0,1.183601022E-1,-2.469110489E-2,-4.118728638E-2
5.247298449E0,5.245023966E-2,-3.962731361E-2,-7.274436951E-2
5.258233813E0,1.965224743E-3,-6.523180008E-2,-1.124114990E-1
5.269169230E0,-9.698212147E-2,3.565788269E-3,-2.001152039E-1
5.280104595E0,-1.029270887E-1,2.463436127E-2,-3.480539322E-1
5.291039959E0,-7.988810539E-3,-3.391981125E-2,-4.183502197E-1
5.301975324E0,6.932955980E-2,-2.878332138E-2,-3.446912766E-1
5.312910688E0,7.042604685E-2,-2.015590668E-3,-1.799182892E-1
5.323846053E0,4.543131590E-2,4.774093628E-3,-2.498531342E-2
5.334781417E0,2.390611172E-2,1.016354561E-2,1.329030991E-1
5.345716782E0,5.762517452E-3,3.488993645E-2,3.007736206E-1
5.356652147E0,-5.210435390E-2,1.300191879E-2,3.961105347E-1
5.367587511E0,-4.016232491E-2,2.732253075E-2,3.497877121E-1
5.378522928E0,3.253638744E-3,8.725070953E-2,2.128868103E-1
5.389458292E0,-4.914093018E-2,1.258404255E-1,7.394599915E-2
5.400393657E0,-7.083219290E-2,1.411156654E-1,6.389617920E-5
5.411329022E0,-3.721785545E-2,1.106832027E-1,-1.872253418E-2
5.422264386E0,-3.864067793E-2,4.885625839E-2,4.298877716E-2
5.433199751E0,-8.959120512E-2,3.863191605E-2,1.597785950E-1
5.444135115E0,-9.545576572E-2,7.460689545E-2,2.016067505E-1
5.455070480E0,-1.052730680E-1,6.811714172E-2,1.628189087E-1
5.466005845E0,-1.312737465E-1,1.781940460E-2,2.959537506E-2
5.476941209E0,-1.367087960E-1,-2.410435677E-2,-1.273002625E-1
5.487876574E0,-1.544496417E-1,-3.142714500E-2,-2.498540878E-1
5.498811938E0,-1.749914289E-1,-5.431818962E-2,-3.241615295E-1
5.509747355E0,-1.615201235E-1,-8.983325958E-2,-3.400669098E-1
5.520682720E0,-9.856098890E-2,-6.566119194E-2,-2.588996887E-1
5.531618084E0,-1.416110396E-1,-1.791119576E-2,-9.512424469E-2
5.542553449E0,-1.743049622E-1,-2.571129799E-2,1.032390594E-1
5.553488813E0,-1.338358521E-1,-5.673313141E-2,2.178707123E-1
5.564424178E0,-1.426059008E-1,-6.902432442E-2,2.620353699E-1
5.575359542E0,-1.296427250E-1,-1.886606216E-2,3.282175064E-1
5.586294907E0,-1.249819398E-1,3.963661194E-2,2.832832336E-1
5.597230272E0,-1.629884839E-1,3.575229645E-2,1.039457321E-1
5.608165636E0,-9.555488825E-2,2.225661278E-2,-1.247882843E-2
5.619101053E0,-4.424530268E-2,4.235315323E-2,-5.498600006E-2
5.630036365E0,-9.665381908E-2,2.647614479E-2,-1.159086227E-1
5.640971782E0,-9.146815538E-2,-4.575467110E-2,-1.487064362E-1
5.651907147E0,1.889646053E-3,-6.069707870E-2,-9.350013733E-2
5.662842511E0,3.011995554E-2,-5.718207359E-2,-6.829071045E-2
5.673777876E0,-1.194411516E-2,-1.011312008E-1,-5.762481689E-2
5.684713240E0,3.290134668E-2,-1.226718426E-1,-4.088592529E-2
5.695648605E0,1.340635419E-1,-8.878660202E-2,-2.007102966E-2
5.706583970E0,1.488896608E-1,-6.768560410E-2,9.641647339E-3
5.717519334E0,9.663999081E-2,-9.635114670E-2,3.421878815E-2
5.728454699E0,1.362553239E-1,-1.199555397E-1,5.676841736E-2
5.739390063E0,1.084651351E-1,-1.188247204E-1,4.263401031E-2
5.750325428E0,4.191213846E-2,-8.849596977E-2,1.109600067E-2
5.761260792E0,1.203185320E-2,-4.677414894E-2,-3.133296967E-2
5.772196157E0,-1.731461287E-2,-3.329014778E-2,-8.177280426E-2
5.783131574E0,-2.472102642E-2,-5.580496788E-2,-6.374263763E-2
5.794066938E0,-4.069882631E-2,-5.786418915E-2,-7.705974579E-2
5.805002303E0,-5.453228951E-4,-4.589962959E-2,-1.155242920E-1
5.815937667E0,7.949209213E-2,-1.506662369E-2,-9.881019592E-2
5.826873032E0,1.368719339E-1,2.148509026E-2,-1.862621307E-2
5.837808397E0,2.099341154E-1,3.108811378E-2,7.125663757E-2
5.848743761E0,2.650653124E-1,9.736537933E-3,1.521406174E-1
5.859679126E0,2.625986934E-1,2.822875977E-4,2.236776352E-1
5.870614490E0,1.854332089E-1,-1.238679886E-2,2.015724182E-1
5.881549855E0,1.742176414E-1,-9.792804718E-3,9.584999084E-2
5.892485220E0,1.754022241E-1,-2.744078636E-2,-5.553150177E-2
5.903420584E0,8.805942535E-2,-3.937005997E-2,-2.023992538E-1
5.914356001E0,9.768849611E-2,3.982305527E-3,-2.907104492E-1
5.925291313E0,1.286336184E-1,5.555152893E-4,-3.217754364E-1
5.936226730E0,1.617562771E-1,-2.321696281E-2,-2.523460388E-1
5.947162095E0,9.112560749E-2,7.258176804E-3,-1.890277863E-1
5.958097459E0,7.368630171E-2,-5.859303474E-2,-1.502466202E-1
5.969032824E0,7.993727922E-2,-1.357686520E-1,-1.476030350E-1
5.979968188E0,7.928371429E-3,-1.335258484E-1,-1.675138474E-1
5.990903553E0,-1.707851887E-3,-1.206490993E-1,-1.525678635E-1
6.001838917E0,8.917123079E-2,-9.316134453E-2,-8.665752411E-2
6.012774282E0,1.029139757E-1,-5.451869965E-2,3.889846802E-2
6.023709647E0,3.314763308E-2,-3.112506866E-2,1.800670624E-1
6.034645011E0,3.761959076E-2,-3.422737122E-3,2.711200714E-1
6.045580376E0,3.425198793E-2,6.123065948E-3,2.767629623E-1
6.056515740E0,6.950855255E-3,7.443666458E-3,1.685390472E-1
6.067451105E0,-1.695770025E-2,5.535221100E-2,7.365226746E-3
6.078386522E0,-1.453661919E-2,9.218907356E-2,-1.595783234E-1
6.089321834E0,-5.570650101E-4,3.987193108E-2,-2.548675537E-1
6.100257251E0,-1.085466146E-2,-3.239274025E-2,-2.253952026E-1
6.111192615E0,-3.851264715E-2,-5.130267143E-2,-8.042526245E-2
6.122127980E0,-1.111109853E-1,-3.455090523E-2,5.740928650E-2
6.133063345E0,-1.107209325E-1,2.048826218E-2,1.259431839E-1
6.143998709E0,-5.821681023E-2,4.845786095E-2,5.038452148E-2
6.154934074E0,-3.157037497E-2,1.491713524E-2,-1.202793121E-1
6.165869438E0,-1.772350073E-2,7.395505905E-3,-2.647790909E-1
6.176804803E0,1.289075613E-2,-4.060745239E-3,-2.797698975E-1
6.187740167E0,-1.827299595E-3,-4.574847221E-2,-1.856060028E-1
6.198675532E0,-6.255507469E-4,-8.264279366E-2,2.558898926E-2
6.209610897E0,4.959499836E-2,-5.284476280E-2,2.444190979E-1
6.220546261E0,3.724342585E-2,5.413699150E-2,3.709907532E-1
6.231481626E0,-2.322202921E-2,1.018757820E-1,3.658514023E-1
6.242416990E0,-7.352888584E-2,9.023571014E-2,2.687740326E-1
6.253352355E0,-1.107500792E-1,5.126667023E-2,1.307439804E-1
6.264287720E0,-1.325950027E-1,7.444477081E-2,-3.132534027E-2
6.275223136E0,-1.547529697E-1,6.454300880E-2,-1.893205643E-1
6.286158501E0,-1.664961576E-1,5.546021461E-2,-2.806978226E-1
6.297093865E0,-2.023766041E-1,6.203889847E-2,-2.344369888E-1
6.308029178E0,-2.223020196E-1,6.530451775E-2,-8.589744568E-2
6.318964595E0,-2.173583508E-1,5.686187744E-2,1.205940247E-1
6.329899959E0,-1.987442970E-1,8.598828316E-2,3.086900711E-1
6.340835324E0,-1.342235208E-1,1.334378719E-1,3.684673309E-1
6.351770688E0,-6.007975340E-2,1.136081219E-1,3.691186905E-1
6.362706053E0,5.128753185E-2,3.714919090E-2,3.667945862E-1
6.373641417E0,1.778775454E-1,-1.780056953E-2,3.611593246E-1
6.384576782E0,2.213826180E-1,-7.875251770E-2,3.193016052E-1
6.395512147E0,2.510799170E-1,-1.441788673E-1,2.664203644E-1
6.406447511E0,2.526074648E-1,-1.715109348E-1,1.483135223E-1
6.417382876E0,2.191388607E-1,-1.741502285E-1,-5.485439301E-2
6.428318240E0,1.776778698E-1,-1.662874222E-1,-2.445402145E-1
6.439253605E0,8.474040031E-2,-1.341207027E-1,-3.586959839E-1
6.450188970E0,3.636163473E-2,-1.142995358E-1,-3.471755981E-1
6.461124334E0,2.207702398E-2,-6.237459183E-2,-2.511367798E-1
6.472059699E0,-7.045865059E-3,2.463936806E-2,-1.455106735E-1
6.482995063E0,7.177948952E-3,1.123867035E-1,-9.866714478E-2
6.493930428E0,6.847548485E-2,1.447093487E-1,-8.322906494E-2
6.504865792E0,1.070670485E-1,1.297962666E-1,-8.394432068E-2
6.515801157E0,1.152083278E-1,7.997298241E-2,-7.176208496E-2
6.526736574E0,5.391591787E-2,5.136466026E-2,-1.134300232E-2
6.537671886E0,-8.308887482E-3,4.719185829E-2,7.777786255E-2
6.548607303E0,-3.208440542E-2,5.225682259E-2,1.513919830E-1
6.559542667E0,-5.037117004E-2,8.598160744E-2,1.743602753E-1
6.570478032E0,-9.094369411E-2,9.447026253E-2,1.785440445E-1
6.581413397E0,-8.791166544E-2,1.183047295E-1,2.005205154E-1
6.592348761E0,-4.670864344E-2,1.428072453E-1,2.247409821E-1
6.603284126E0,-2.266108990E-3,1.177043915E-1,2.383470535E-1
6.614219490E0,2.200102806E-2,1.598393917E-1,2.165040970E-1
6.625154855E0,-2.346038818E-4,1.741111279E-1,1.675224304E-1
6.636090220E0,-4.710918665E-2,1.316609383E-1,6.711387634E-2
6.647025584E0,-6.706500053E-2,7.632136345E-2,-2.590560913E-2
6.657960949E0,-8.556693792E-2,5.748987198E-2,-1.157341003E-1
6.668896313E0,-8.857065439E-2,5.593109131E-2,-1.676626205E-1
6.679831678E0,-8.260619640E-2,5.222439766E-2,-1.887617111E-1
6.690767042E0,-6.662976742E-2,5.615901947E-2,-2.470731735E-1
6.701702407E0,-4.443544149E-2,3.458356857E-2,-3.479757309E-1
6.712637772E0,6.522804499E-2,-6.401300430E-3,-3.668537140E-1
6.723573136E0,1.164600253E-1,-6.714010239E-2,-2.545862198E-1
6.734508449E0,7.996875048E-2,-1.702136993E-1,-2.830123901E-2
6.745443865E0,9.247344732E-2,-2.073559761E-1,2.054176331E-1
6.756379230E0,8.378732204E-2,-1.321468353E-1,3.504018784E-1
6.767314855E0,-2.367037535E-2,-5.504035950E-2,3.350849152E-1
6.778249959E0,-2.059699893E-1,-5.117702484E-2,2.530374527E-1
6.789185324E0,-2.929775715E-1,-6.569528580E-2,1.312885284E-1
6.800120688E0,-3.064171076E-1,-1.521182060E-2,-6.536483765E-2
6.811056053E0,-3.354989588E-1,6.195783615E-2,-2.333831787E-1
6.821991417E0,-3.432334960E-1,1.315202713E-1,-2.836351395E-1
6.832926782E0,-2.499337196E-1,1.770875454E-1,-2.478313446E-1
6.843862147E0,-2.005470395E-1,1.887116432E-1,-1.468696594E-1
6.854797511E0,-1.217889190E-1,1.871783733E-1,4.240989685E-2
6.865732928E0,-4.803228378E-2,1.783707142E-1,1.722021103E-1
6.876828397E0,-4.559350014E-2,1.799979210E-1,1.678123474E-1
6.887763761E0,-2.910357714E-2,1.726665497E-1,1.742753983E-1
6.898699126E0,-2.889943123E-2,1.715078354E-1,1.708736420E-1
6.909634490E0,-1.215606332E-1,3.926825523E-2,3.806524277E-1
6.920569855E0,-1.405673027E-1,2.994775772E-3,3.944826126E-1
6.931505220E0,-1.315240264E-1,1.878309250E-2,2.874403000E-1
6.942440584E0,-8.897995949E-2,2.449965477E-2,9.818935394E-2
6.953376001E0,-1.080328226E-2,1.865720749E-2,-1.580467224E-1
6.964311313E0,5.962437391E-2,-2.286076546E-2,-3.670740128E-1
6.975246678E0,5.931174755E-2,-9.696984291E-2,-3.903427124E-1
6.986182042E0,3.835982084E-2,-1.506054401E-1,-2.596702576E-1
6.997117459E0,3.198581934E-2,-1.800186634E-1,-5.910873413E-3
7.008052772E0,2.092766762E-2,-1.455161572E-1,2.097826004E-1
7.018988188E0,-3.635358810E-2,-1.121540070E-1,2.590990067E-1
7.029923501E0,-9.348779917E-2,-6.512951851E-2,1.163263321E-1
7.040858917E0,-7.138061523E-2,-5.045938492E-2,-1.192913055E-1
7.051794230E0,1.454532146E-2,-6.559777260E-2,-3.494653702E-1
7.062729647E0,8.082598448E-2,-8.920764923E-2,-4.307918549E-1
7.073664959E0,1.620295048E-1,-4.148125648E-2,-3.348388672E-1
7.084600376E0,2.278749943E-1,9.408473969E-3,-1.414670944E-1
7.095535688E0,1.815376282E-1,1.997351646E-2,1.370449066E-1
7.106471105E0,1.454424858E-1,-2.665233612E-2,3.946332932E-1
7.117406417E0,5.224108696E-2,-4.578351974E-2,4.896268845E-1
7.128341834E0,-4.005169868E-2,-1.171898842E-2,3.881416321E-1
7.139277147E0,-5.327069759E-2,5.571103096E-2,1.195898056E-1
7.150212563E0,-1.810759306E-2,7.907986641E-2,-2.135992050E-1
7.161147876E0,3.012627363E-2,4.907226562E-2,-4.438323975E-1
7.172083292E0,1.020308137E-1,3.555059433E-2,-4.815473557E-1
7.183018605E0,1.944210529E-1,-7.808208466E-4,-3.686475754E-1
7.193954022E0,1.885637641E-1,-4.780173302E-2,-1.430072784E-1
7.222225845E0,1.672083735E-1,-1.381740570E-1,3.343906403E-1
7.233161209E0,9.648680687E-2,-1.775386333E-1,2.896213531E-1
7.244096522E0,4.142266512E-2,-1.341605186E-1,1.577568054E-1
7.255031886E0,1.862692833E-2,-5.411028862E-2,-3.692340851E-2
7.265967251E0,1.809519529E-2,-2.908182144E-2,-2.178440094E-1
7.276902615E0,3.356277943E-2,-3.791642189E-2,-3.166532516E-1
7.287837980E0,8.811497688E-2,-7.822442055E-2,-2.986402512E-1
7.298773397E0,8.218908310E-2,-1.049654484E-1,-2.180414200E-1
7.309708709E0,7.345479727E-2,-1.046802998E-1,-1.274251938E-1
7.320644074E0,8.389204741E-2,-1.236321926E-1,-6.922817230E-2
7.331579438E0,4.608184099E-2,-1.663198471E-1,-2.771282196E-2
7.342514855E0,1.363146305E-2,-1.734664440E-1,-2.896213531E-2
7.353450167E0,-1.714569330E-2,-1.567792892E-1,-9.889030457E-2
7.364385532E0,-6.580185890E-2,-1.377353668E-1,-1.332130432E-1
7.375320949E0,-4.336965084E-2,-7.527995110E-2,-1.280279160E-1
7.386256313E0,1.705533266E-2,-2.553224564E-3,-9.618186951E-2
7.397191678E0,8.850246668E-2,1.289486885E-2,-2.067565918E-3
7.408127042E0,1.441446543E-1,-5.748033524E-3,1.511478424E-1
7.419062355E0,9.601956606E-2,-5.814075470E-3,2.491140366E-1
7.429997772E0,2.928286791E-2,-3.843259811E-2,2.852487564E-1
7.440933084E0,4.549527168E-2,-4.641389847E-2,2.668752670E-1
7.451868449E0,4.146081209E-2,-4.404711723E-2,1.538105011E-1
7.462803813E0,-2.044773102E-2,-3.867626190E-3,8.452415466E-3
7.473739230E0,-2.146291733E-2,2.649593353E-2,-1.130886078E-1
7.484674542E0,2.392798662E-2,1.180529594E-2,-1.753215790E-1
7.495609907E0,7.031059265E-2,9.131431580E-5,-2.518968582E-1
7.506545272E0,1.587623954E-1,-6.329298019E-3,-2.889728546E-1
7.517480688E0,9.296023846E-2,-2.798652649E-2,-2.590627670E-1
7.528416001E0,8.317112923E-2,-1.150703430E-1,-1.634502411E-1
7.539351365E0,1.815685034E-1,-1.715431213E-1,-3.964996338E-2
7.550286730E0,1.640704274E-1,-1.551036835E-1,1.154165268E-1
7.561222095E0,4.481309652E-2,-7.934761047E-2,1.870107651E-1
7.572157459E0,3.798961639E-3,-9.106636047E-3,1.680507660E-1
7.583092824E0,-4.346579313E-2,3.536295891E-2,3.117179871E-2
7.594028188E0,-6.320106983E-2,6.219172478E-2,-1.256027222E-1
7.604963553E0,-6.809198856E-2,5.920672417E-2,-2.411899567E-1
7.615898917E0,-7.459193468E-2,4.110860825E-2,-2.654609680E-1
7.626834282E0,-1.049927473E-1,4.236698151E-2,-1.986303329E-1
7.637769647E0,-7.920068502E-2,4.611349106E-2,-6.600475311E-2
7.648705011E0,-1.590096951E-2,3.667879105E-2,4.422855377E-2
7.659640376E0,3.151148558E-2,1.708579063E-2,7.120227814E-2
7.670575740E0,1.339745522E-2,2.134013176E-2,7.337284088E-2
7.681511105E0,-1.988720894E-2,4.476404190E-2,8.872127533E-2
7.692446470E0,-2.873092890E-2,4.666709900E-2,9.740257263E-2
7.703381834E0,-2.371960878E-2,3.563594818E-2,8.271789551E-2
7.714317199E0,4.746675491E-3,6.008267403E-2,6.096458435E-2
7.725252563E0,3.362852335E-2,9.640955925E-2,2.168083191E-2
7.736187928E0,4.099231958E-2,1.179366112E-1,-2.196311951E-2
7.747123292E0,-5.145013332E-3,9.690904617E-2,-2.475929260E-2
7.758058657E0,-2.427256107E-2,5.354166031E-2,-7.987976074E-3
7.768994022E0,-6.305110455E-2,4.697513580E-2,8.983612061E-4
7.779929386E0,-1.302842498E-1,6.192207336E-2,-1.590728760E-3
7.790864751E0,-1.539096236E-1,9.461879730E-2,5.266857147E-2
7.801800115E0,-1.474227309E-1,1.165840626E-1,4.033374786E-2
7.812735480E0,-1.289904714E-1,7.797193527E-2,-1.609611511E-2
7.823670845E0,-1.228689551E-1,6.048607826E-2,-3.887653351E-2
7.834606209E0,-1.235925555E-1,8.561754227E-2,-2.193737030E-2
7.845541574E0,-9.234291315E-2,9.046506882E-2,2.379131317E-2
7.856476938E0,-7.662659883E-2,7.206916809E-2,9.702301025E-2
7.867412303E0,-6.226718426E-2,7.202100754E-2,1.401758194E-1
7.878347667E0,-6.787115335E-2,6.320571899E-2,1.613321304E-1
7.889283032E0,-1.290882230E-1,5.863761902E-2,1.345415115E-1
7.900218397E0,-1.650152206E-1,5.800700188E-2,8.486557007E-2
7.911153761E0,-1.906018257E-1,9.238505363E-2,1.523303986E-2
7.922089126E0,-1.621460915E-1,8.029747009E-2,-4.880905151E-2
7.933024490E0,-1.537579298E-1,5.349254608E-2,-1.113214493E-1
7.943959855E0,-1.560430527E-1,6.323480606E-2,-1.385469437E-1
7.954895220E0,-1.258255243E-1,3.804159164E-2,-1.064291000E-1
7.965830584E0,-6.952190399E-2,5.528998375E-2,-3.304481506E-3
7.976765949E0,-8.031898737E-2,5.925273895E-2,5.041885376E-2
7.987701313E0,-3.314119577E-2,3.922200203E-2,1.257581711E-1
7.998636678E0,6.349444389E-3,2.233505249E-2,9.906768799E-2
8.009571990E0,-1.155477762E-2,3.139376640E-2,-3.114700317E-3
8.020507407E0,-3.108924627E-2,4.259967804E-2,-1.136894226E-1
8.031442772E0,-7.355880737E-2,7.600474358E-2,-1.501016617E-1
8.042378084E0,-6.372678280E-2,4.582333565E-2,-1.215238571E-1
8.053313501E0,-1.096953154E-1,3.519392014E-2,-3.101062775E-2
8.064248865E0,-1.567112803E-1,8.105754852E-3,-3.302574158E-3
8.075184178E0,-1.245614290E-1,5.598592758E-2,-3.572559357E-2
8.086119542E0,-1.153447032E-1,6.478047371E-2,-8.681774139E-2
8.097054907E0,-6.473344564E-2,1.914286613E-2,-9.760570526E-2
8.107990272E0,-4.228979349E-2,2.301359177E-2,1.046180725E-3
8.118925636E0,-8.962810040E-3,4.098439217E-2,1.564006805E-1
8.129861001E0,-1.880466938E-3,5.053186417E-2,2.911052704E-1
8.140796365E0,-2.909749746E-2,2.199363708E-2,3.824415207E-1
8.151731730E0,-4.794806242E-2,3.802037239E-2,3.454627991E-1
8.162667095E0,-4.935449362E-2,4.701852798E-3,1.929855347E-1
8.173602459E0,-5.746394396E-2,-2.605628967E-2,3.166103363E-2
8.184537824E0,-1.145601273E-2,-4.068803787E-2,-1.039142609E-1
8.195473136E0,-2.430391312E-2,-2.429938316E-2,-1.812591553E-1
8.206408553E0,-1.807039976E-2,-4.754519463E-2,-2.049446106E-1
8.217343917E0,4.007065296E-2,-3.296089172E-2,-2.340497971E-1
8.228279282E0,8.730322123E-2,-2.214193344E-2,-2.846317291E-1
8.239214647E0,1.109672785E-1,-3.758668900E-3,-3.181180954E-1
8.250150011E0,1.204994917E-1,-1.634812355E-2,-3.019504547E-1
8.261085376E0,1.037549376E-1,-4.328250885E-2,-1.698665619E-1
8.272020740E0,2.602887154E-2,-7.190179825E-2,-1.738262177E-2
8.282956105E0,2.478772402E-2,-7.115221024E-2,1.003522873E-1
8.293891470E0,5.195647478E-2,-7.408523560E-2,1.700115204E-1
8.304826834E0,6.215965748E-2,-5.767774582E-2,1.938657761E-1
8.315762199E0,6.531572342E-2,-2.634572983E-2,1.570692062E-1
8.326697511E0,1.015653610E-1,-2.016210556E-2,1.196947098E-1
8.337632928E0,1.151189804E-1,-2.571344376E-2,8.837127686E-2
8.348568240E0,1.215508580E-1,-1.114916801E-2,8.003425598E-2
8.359503605E0,1.519813538E-1,2.043080330E-2,5.793285370E-2
8.370438970E0,1.624922752E-1,1.425337791E-2,3.357791901E-2
8.381374334E0,1.011943221E-1,-2.323102951E-2,2.762413025E-2
8.392309699E0,1.016872525E-1,-6.139612198E-2,3.219032288E-2
8.403245063E0,1.156975627E-1,-7.332658768E-2,2.275848389E-2
8.414180428E0,8.302563429E-2,-6.593346596E-2,-1.641654968E-2
8.425115792E0,6.929987669E-2,-4.630661011E-2,-1.048221588E-1
8.436051157E0,1.295117140E-1,-1.396894455E-2,-1.932401657E-1
8.446986522E0,1.843409538E-1,-1.464605331E-2,-2.256593704E-1
8.457921886E0,1.560297608E-1,-3.733491898E-2,-1.757717133E-1
8.468857251E0,1.095209122E-1,-6.544399261E-2,1.582431793E-2
8.479792615E0,1.115251184E-1,-8.373546600E-2,2.613010406E-1
8.490727980E0,1.160690784E-1,-8.272290230E-2,4.413433075E-1
8.501663345E0,5.833113194E-2,-6.105852127E-2,4.585409164E-1
8.512598709E0,3.866243362E-2,-8.479833603E-3,3.129863739E-1
8.523534074E0,6.554359198E-2,1.290869713E-2,1.454925537E-2
8.534469438E0,6.486737728E-2,-2.135491371E-2,-2.772855759E-1
8.545404751E0,6.330972910E-2,-5.529785156E-2,-4.321422577E-1
8.556340115E0,5.509781837E-2,-7.519721985E-2,-4.669599533E-1
8.567275532E0,3.529244661E-2,-7.501363754E-2,-3.812437057E-1
8.578210845E0,2.979463339E-2,-5.782556534E-2,-2.612752914E-1
8.589146209E0,6.382769346E-2,-5.286979675E-2,-1.595392227E-1
8.600081574E0,8.133733273E-2,-5.256676674E-2,-5.432796478E-2
8.611016938E0,8.608633280E-2,-7.718467712E-2,9.194469452E-2
8.621952303E0,4.539793730E-2,-1.018714905E-1,3.150835037E-1
8.632887667E0,-1.646804810E-2,-1.117045879E-1,5.008659363E-1
8.643823032E0,-6.329137087E-2,-1.008260250E-1,5.546007156E-1
8.654758397E0,-3.536278009E-2,-6.129145622E-2,4.480104446E-1
8.665693761E0,-5.074143410E-3,1.287627220E-2,1.731834412E-1
8.676629126E0,3.832101822E-2,7.003068924E-3,-9.807491302E-2
8.687564490E0,7.708811760E-2,-4.891204834E-2,-2.685861588E-1
8.698499855E0,8.664131165E-2,-9.883761406E-2,-2.736768723E-1
8.709435220E0,4.784238338E-2,-1.344566345E-1,-1.573400497E-1
8.720370532E0,-3.370338678E-2,-1.212859154E-1,-7.518005371E-2
8.731305897E0,-9.543627501E-2,-9.767317772E-2,-4.358196259E-2
8.742241261E0,-6.574839354E-2,-8.093786240E-2,-6.242561340E-2
8.753176626E0,-2.315086126E-2,-9.613084793E-2,-4.955101013E-2
8.764111990E0,-1.180148125E-2,-1.330490112E-1,-8.329391479E-3
8.775047355E0,2.230548859E-2,-1.326885223E-1,8.779811859E-2
8.785982720E0,8.148115873E-2,-7.580161095E-2,1.708784103E-1
8.796918084E0,9.589427710E-2,-3.333592415E-2,1.460704803E-1
8.807853449E0,8.853328228E-2,-8.693695068E-3,5.971527100E-2
8.818788813E0,5.703538656E-2,-1.683044434E-2,-1.161861420E-2
8.829724178E0,7.568776608E-3,-6.321048737E-2,-2.114772797E-2
8.840659542E0,1.823532581E-2,-1.175768375E-1,2.780246735E-2
8.851594907E0,2.379417419E-2,-1.004824638E-1,6.510448456E-2
8.862530220E0,4.485851526E-2,-1.906824112E-2,4.760360718E-2
8.873465584E0,5.706340075E-2,4.289054871E-2,-1.385498047E-2
8.884401001E0,1.047492623E-1,2.088928223E-2,-8.146858215E-2
8.895336313E0,1.432533264E-1,-3.635668755E-2,-5.349636078E-2
8.906271678E0,1.249776483E-1,-8.129882812E-2,6.047248840E-3
8.917207042E0,6.998175383E-2,-7.690548897E-2,8.598232269E-2
8.928142407E0,3.291928768E-2,-3.315877914E-2,4.393768311E-2
8.939077772E0,1.677870750E-2,1.638555527E-2,-8.477115631E-2
8.950013136E0,1.342916489E-2,2.757072449E-2,-1.695861816E-1
8.960948501E0,2.486026287E-2,-2.859902382E-2,-1.683082581E-1
8.971883865E0,3.561449051E-2,-6.049299240E-2,-8.742427826E-2
8.982819230E0,4.708033800E-2,-6.041717529E-2,1.060199738E-2
8.993754595E0,1.844125986E-2,4.447221756E-3,3.946304321E-2
9.004689907E0,6.981492043E-4,1.011242867E-1,-6.890296936E-2
9.015625272E0,2.065259218E-2,1.722726822E-1,-2.624292374E-1
9.026560636E0,6.544578075E-2,1.451482773E-1,-4.231481552E-1
9.037496001E0,8.304244280E-2,5.387663841E-2,-4.031677246E-1
9.048431365E0,6.694328785E-2,2.204036713E-2,-1.602878571E-1
9.059366730E0,2.428650856E-2,3.352952003E-2,1.610593796E-1
9.070302095E0,-1.285862923E-2,7.544660568E-2,3.477220535E-1
9.081237459E0,-1.203066111E-2,8.451771736E-2,3.944664001E-1
9.092172824E0,7.016003132E-3,8.074545860E-2,3.386888504E-1
9.103108188E0,-3.883159161E-2,5.150747299E-2,1.878480911E-1
9.114043553E0,-7.771557570E-2,2.835130692E-2,7.204723358E-2
9.124978917E0,-1.223580837E-1,1.855349541E-2,-2.617073059E-2
9.135914282E0,-1.770105362E-1,6.038737297E-2,-1.270246506E-1
9.146849595E0,-1.925077438E-1,1.014087200E-1,-1.609640121E-1
9.157784959E0,-2.184354663E-1,1.004798412E-1,-1.451015472E-1
9.168720272E0,-2.375118136E-1,6.584906578E-2,-6.667423248E-2
9.179655688E0,-2.666836381E-1,2.851748466E-2,6.721115112E-2
9.190591053E0,-2.470483184E-1,3.578019142E-2,1.101350784E-1
9.201526417E0,-1.953372955E-1,7.064652443E-2,5.853939056E-2
9.212461782E0,-1.493759751E-1,9.253859520E-2,-4.339027405E-2
9.223397147E0,-1.043650508E-1,7.944154739E-2,-9.742927551E-2
9.234332511E0,-9.766173363E-2,1.415491104E-3,-6.479835510E-2
9.245267876E0,-1.144800186E-1,-5.338215828E-2,5.457115173E-2
9.256203188E0,-1.155298948E-1,-2.700519562E-2,1.298513412E-1
9.267138553E0,-9.475797415E-2,3.947377205E-2,2.356529236E-1
9.278073917E0,-1.432074904E-1,1.144416332E-1,2.359609604E-1
9.289009282E0,-1.770035625E-1,1.191840172E-1,1.803178787E-1
9.299944647E0,-1.728765368E-1,3.903770447E-2,1.354618073E-1
9.310880011E0,-1.104198694E-1,-2.094483376E-2,1.058940887E-1
9.321815376E0,-1.587021351E-1,1.086759567E-2,5.335903168E-2
9.332750740E0,-1.973792315E-1,3.552150726E-2,-5.988597870E-2
9.343686105E0,-1.254751086E-1,4.087519646E-2,-1.513986588E-1
9.354621470E0,-4.832333326E-2,6.214737892E-2,-1.510543823E-1
9.365556834E0,-3.052318096E-2,3.165006638E-2,-4.671669006E-2
9.376492147E0,-7.528072596E-2,-3.526568413E-2,1.073274612E-1
9.387427511E0,-1.156063080E-1,-8.171963692E-2,2.346849442E-1
9.398362876E0,-1.005960107E-1,-7.653856277E-2,1.523990631E-1
9.409298240E0,-2.257543802E-2,-6.962490082E-2,8.234024048E-3
9.420233605E0,-4.863673449E-2,-5.674695969E-2,-1.603317261E-1
9.431168970E0,-4.222047329E-2,-3.078556061E-2,-2.634944916E-1
9.442104334E0,1.135611534E-2,-4.931259155E-2,-2.882585526E-1
9.453039699E0,5.471235514E-2,-8.520388603E-2,-1.738557816E-1
9.463975063E0,3.865593672E-2,-6.586050987E-2,-3.754043579E-2
9.474910376E0,-2.445876598E-3,2.427268028E-2,7.073593140E-2
9.485845740E0,-7.096654177E-2,7.454276085E-2,1.060743332E-1
9.496781105E0,-1.014534831E-1,4.607939720E-2,1.326227188E-1
9.507716470E0,-8.988255262E-2,-1.700782776E-2,1.432161331E-1
9.518651834E0,-7.223451138E-2,-1.917648315E-2,9.139823914E-2
9.529587199E0,-3.697609901E-2,2.851223946E-2,-5.868244171E-2
9.540522563E0,-1.497107744E-2,6.313180923E-2,-2.847480774E-1
9.551457928E0,7.753372192E-4,3.422164917E-2,-4.464597702E-1
9.562393292E0,4.950207472E-2,-5.560159683E-2,-4.332418442E-1
9.573328657E0,9.117192030E-2,-1.480433941E-1,-2.511129379E-1
9.584264022E0,3.475642204E-2,-1.588704586E-1,-7.989883423E-3
9.595199334E0,-2.676993608E-2,-1.217994690E-1,2.225360870E-1
9.606134699E0,-6.893479824E-2,-6.151151657E-2,4.033279419E-1
9.617070063E0,-4.377651215E-2,-7.514905930E-2,4.703350067E-1
9.628005428E0,-1.662093401E-2,-9.109807014E-2,4.414024353E-1
9.638940792E0,-1.006746292E-2,-4.037332535E-2,3.234367371E-1
9.649876157E0,1.204061508E-2,4.975390434E-2,9.640312195E-2
9.660811522E0,3.368389606E-2,1.019752026E-1,-1.709804535E-1
9.671746886E0,4.424941540E-2,1.178221703E-1,-3.382472992E-1
9.682682199E0,2.737295628E-2,8.692264557E-2,-3.646926880E-1
9.693617563E0,8.438229561E-3,2.249169350E-2,-2.699470520E-1
9.704552928E0,2.975070477E-2,-1.903796196E-2,-1.042461395E-1
9.715488292E0,6.080752611E-2,-3.756761551E-2,3.648090363E-2
9.726423657E0,8.091336489E-2,-6.036329269E-2,1.449880600E-1
9.737359022E0,6.897157431E-2,-9.084987640E-2,2.383756638E-1
9.748294386E0,3.857326508E-2,-1.451339722E-1,3.470907211E-1
9.759229751E0,8.192545176E-2,-2.104427814E-1,4.648170471E-1
9.770165115E0,6.695514917E-2,-2.109761238E-1,5.450544357E-1
9.781100428E0,8.030205965E-2,-1.696650982E-1,4.991912842E-1
9.792035792E0,9.492689371E-2,-1.027767658E-1,3.316326141E-1
9.802971157E0,1.018614769E-1,-9.304118156E-2,1.338548660E-1
9.813906522E0,7.037925720E-2,-1.189093590E-1,1.778984070E-2
9.824841886E0,2.192544937E-2,-1.334111691E-1,-3.386783600E-2
9.835777251E0,-4.504841566E-2,-1.241395473E-1,-7.714271545E-3
9.846712615E0,-9.100621939E-2,-9.045815468E-2,3.545475006E-2
9.857647980E0,-5.789834261E-2,4.172325134E-3,1.737499237E-2
9.868583292E0,-2.163767815E-3,-4.886889458E-2,-1.207723618E-1
9.879518657E0,-2.692449093E-2,-5.259490013E-2,-2.655029297E-1
9.890454022E0,9.057521820E-4,-3.468036652E-2,-3.925771713E-1
9.901389386E0,1.409237981E-1,-6.169080734E-2,-4.781646729E-1
9.912324751E0,2.268573046E-1,-4.630684853E-2,-4.601202011E-1
9.923260115E0,2.498379946E-1,-3.435921669E-2,-3.353195190E-1
9.934195480E0,2.096423507E-1,-7.965326309E-2,-1.029462814E-1
9.945130845E0,1.456480026E-1,-1.705219746E-1,1.949501038E-1
9.956066157E0,6.821388006E-2,-2.143864632E-1,3.812246323E-1
9.967001522E0,3.185850382E-2,-1.742212772E-1,3.891229630E-1
9.977936886E0,-9.983479977E-3,-1.231057644E-1,2.631835938E-1
9.988872251E0,-6.282937527E-2,-1.004850864E-1,8.273792267E-2
9.999807615E0,-7.827490568E-2,-1.194064617E-1,-3.425216675E-2
1.001074298E1,-4.930537939E-2,-1.221060753E-1,-1.301670074E-1
1.002167834E1,-2.363169193E-2,-7.407593727E-2,-2.002439499E-1
1.003261371E1,-3.095227480E-2,2.100276947E-2,-2.909307480E-1
1.004354902E1,-3.814005852E-2,6.797337532E-2,-3.324041367E-1
1.005448439E1,-3.870761395E-2,4.229092598E-2,-2.992763519E-1
1.006541975E1,-5.460381508E-4,-3.003287315E-2,-1.924819946E-1
1.007635512E1,6.595611572E-3,-5.354833603E-2,-1.107158661E-1
1.008729048E1,-1.834583282E-2,3.873014450E-2,-9.864425659E-2
1.009822584E1,-4.437440634E-2,1.290807724E-1,-1.281747818E-1
1.010916121E1,-3.587961197E-3,1.181921959E-1,-1.076488495E-1
1.012009652E1,4.016119242E-2,3.525900841E-2,-1.902198792E-2
1.013103189E1,7.881534100E-2,-4.969906807E-2,4.206562042E-2
1.014196725E1,1.175090075E-1,-8.053731918E-2,7.352447510E-2
1.015290262E1,1.137977839E-1,-6.492924690E-2,2.842998505E-2
1.016383798E1,8.965146542E-2,-6.153726578E-2,-4.654693604E-2
1.017477334E1,2.808803320E-2,-9.548997879E-2,-4.125213623E-2
1.018570871E1,-4.044681787E-2,-1.472375393E-1,8.378982544E-2
1.019664402E1,-6.844985485E-2,-1.431436539E-1,2.722072601E-1
1.020757939E1,-1.528626084E-1,-6.103658676E-2,3.847923279E-1
1.021851475E1,-2.507318854E-1,5.330514908E-2,2.931423187E-1
1.022945012E1,-2.913944423E-1,1.487290859E-1,1.668834686E-2
1.024038548E1,-3.217597902E-1,1.675810814E-1,-3.122606277E-1
1.025132084E1,-2.802603543E-1,1.368384361E-1,-5.670537949E-1
1.026225621E1,-2.177999914E-1,9.590172768E-2,-6.384420395E-1
1.027319152E1,-1.335145235E-1,8.768486977E-2,-5.131301880E-1
1.028412689E1,-6.455260515E-2,8.840560913E-2,-1.856355667E-1
1.029506225E1,-3.115504980E-2,6.220483780E-2,2.538032532E-1
1.030599762E1,-5.783152580E-2,2.221918106E-2,5.927362442E-1
1.031693298E1,-5.788701773E-2,3.371095657E-2,7.439107895E-1
1.032786834E1,-4.631531239E-2,7.778882980E-2,6.845102310E-1
1.033880371E1,-8.369982243E-2,1.388490200E-1,4.458980560E-1
1.034973902E1,-1.233826280E-1,1.356513500E-1,1.945953369E-1
1.036067439E1,-1.275680661E-1,9.469676018E-2,9.449005127E-3
1.037160975E1,-9.354430437E-2,6.392049789E-2,-2.362632751E-2
1.038254512E1,-8.986979723E-2,7.687425613E-2,1.356601715E-2
1.039348048E1,-9.430545568E-2,7.826733589E-2,4.299259186E-2
1.040441584E1,-1.179879904E-1,3.843331337E-2,2.698993683E-2
1.041535121E1,-1.113337278E-1,-2.744722366E-2,-1.041603088E-2
1.042628652E1,-1.557521820E-1,-8.438801765E-2,-5.668830872E-2
1.043722189E1,-1.926335990E-1,-8.520913124E-2,-1.032428741E-1
1.044815725E1,-2.474925518E-1,-1.881766319E-2,-1.701221466E-1
1.045909262E1,-2.390711904E-1,2.669191360E-2,-2.404813766E-1
1.047002798E1,-1.951222420E-1,2.646350861E-2,-1.789693832E-1
1.048096335E1,-1.657054126E-1,-9.536743164E-3,-1.181221008E-2
1.049189871E1,-1.022661924E-1,-3.552961349E-2,2.508735657E-1
1.050283402E1,2.155208588E-2,-4.509449005E-3,4.324359894E-1
1.051376939E1,1.115153432E-1,2.127647400E-2,4.816160202E-1
1.052470475E1,1.078916788E-1,3.907012939E-2,3.990859985E-1
1.053564012E1,5.363821983E-2,-1.614332199E-2,2.777252197E-1
1.054657548E1,-2.167856693E-2,-7.880949974E-2,1.433973312E-1
1.055751079E1,-8.838045597E-2,-8.843827248E-2,-4.984855652E-2
1.056844616E1,-1.366817355E-1,-5.381870270E-2,-2.777709961E-1
1.057938152E1,-1.278612614E-1,-1.106500626E-3,-4.660129547E-1
1.059031689E1,-1.104397178E-1,-1.437616348E-2,-5.516796112E-1
1.060125225E1,-5.161249638E-2,-8.837199211E-2,-4.819402695E-1
1.061218762E1,3.839194775E-3,-1.464982033E-1,-2.900505066E-1
1.062312298E1,6.890052557E-2,-1.095147133E-1,-4.214096069E-2
1.063405835E1,1.261017323E-1,-5.797457695E-2,2.125864029E-1
1.064499366E1,1.143993139E-1,-4.452490807E-2,3.878784180E-1
1.065592902E1,7.370847464E-2,-6.164574623E-2,4.345998764E-1
1.066686439E1,-6.201684475E-3,-4.863548279E-2,3.531198502E-1
1.067779975E1,-7.529312372E-2,2.051639557E-2,1.139736176E-1
1.068873512E1,-7.186609507E-2,7.708644867E-2,-1.937332153E-1
1.069967043E1,-3.272879124E-2,7.534575462E-2,-4.467849731E-1
1.071060579E1,2.341473103E-2,1.581406593E-2,-5.468006134E-1
1.072154116E1,1.020543575E-1,-4.460334778E-2,-4.865045547E-1
1.073247652E1,1.753098965E-1,-5.156850815E-2,-3.241939545E-1
1.074341189E1,2.044621706E-1,-3.463816643E-2,-1.560735703E-1
1.075434725E1,1.780241728E-1,-3.191471100E-2,-1.056671143E-3
1.076528256E1,1.063279510E-1,-8.961272240E-2,1.702165604E-1
1.077621793E1,2.349054813E-2,-1.734912395E-1,3.455286026E-1
1.078715329E1,-1.096642017E-2,-2.047274113E-1,5.266103745E-1
1.079808866E1,-5.720931292E-2,-1.150586605E-1,5.680952072E-1
1.080902402E1,-7.714879513E-2,-3.099918365E-3,4.024162292E-1
1.081995939E1,-3.975766897E-2,3.598380089E-2,1.017761230E-1
1.083089475E1,-1.075214148E-2,1.142382622E-2,-2.066831589E-1
1.084183006E1,1.336926222E-2,-5.485534668E-2,-4.860210419E-1
1.085276543E1,4.088711739E-2,-1.038398743E-1,-5.995635986E-1
1.086370079E1,2.281713486E-2,-1.253790855E-1,-5.790719986E-1
1.087463616E1,-2.706205845E-2,-9.889864922E-2,-4.499120712E-1
1.088557152E1,-5.740159750E-2,-8.256125450E-2,-2.029361725E-1
1.089650683E1,-1.052792668E-1,-1.010711193E-1,3.799819946E-2
1.090744220E1,-1.167621613E-1,-9.521889687E-2,2.942209244E-1
1.091837756E1,-1.158936620E-1,-6.717395782E-2,5.406150818E-1
1.092931293E1,-9.703409672E-2,-3.533744812E-2,7.083110809E-1
1.094024829E1,-5.581337214E-2,-4.030799866E-2,7.310705185E-1
1.095118360E1,2.909809351E-2,-6.923198700E-3,5.600976944E-1
1.096211897E1,1.129166484E-1,4.035186768E-2,2.191610336E-1
1.097305433E1,9.345531464E-2,4.926800728E-2,-1.415576935E-1
1.098398970E1,5.742084980E-2,-2.025794983E-2,-3.341865540E-1
1.099492506E1,-2.398633957E-2,-8.668661118E-2,-3.499107361E-1
1.100586043E1,-7.733154297E-2,-1.242930889E-1,-2.678327560E-1
1.101679579E1,-8.331519365E-2,-8.242297173E-2,-2.027540207E-1
1.102773110E1,-7.570523024E-2,-1.557326317E-2,-1.611785889E-1
1.103866647E1,-6.266510487E-2,1.828050613E-2,-1.595115662E-1
1.104960183E1,-1.453936100E-3,-6.259083748E-2,-5.528640747E-2
1.106053720E1,4.984146357E-2,-1.609935760E-1,1.503200531E-1
1.107147251E1,9.824877977E-2,-1.359345913E-1,3.974351883E-1
1.108240829E1,1.152757406E-1,-3.429937363E-2,5.327863693E-1
1.109334324E1,1.211974621E-1,2.918338776E-2,5.148191452E-1
1.110427861E1,1.214075685E-1,-3.105640411E-3,3.896102905E-1
1.111521397E1,5.275231600E-2,-9.192681313E-2,2.354860306E-1
1.112614933E1,-1.409602165E-2,-1.499445438E-1,7.719612122E-2
1.113708465E1,-6.003242731E-2,-1.161019802E-1,-9.366512299E-2
1.114802001E1,-1.183423996E-1,-5.976605415E-2,-2.811069489E-1
1.115895538E1,-1.288974285E-1,-4.012775421E-2,-4.173974991E-1
1.116989074E1,-6.242430210E-2,-8.227062225E-2,-3.923082352E-1
1.118082611E1,-6.291788816E-2,-1.488459110E-1,-2.353363037E-1
1.119176147E1,-5.612993240E-2,-1.546807289E-1,-6.660175323E-2
1.120269678E1,5.386531353E-3,-9.152364731E-2,1.150417328E-2
1.121363215E1,3.195267916E-2,-4.910397530E-2,-1.868247986E-2
1.122456751E1,1.669490337E-2,-6.367802620E-2,-1.128206253E-1
1.123550288E1,3.665304184E-2,-9.192419052E-2,-1.337080002E-1
1.124643824E1,6.037324667E-2,-1.362307072E-1,-1.077365875E-2
1.125737355E1,6.273388863E-4,-1.471650600E-1,2.130718231E-1
1.126830892E1,-9.538292885E-3,-1.226866245E-1,3.771924973E-1
1.127924428E1,-2.536296844E-3,-5.395340919E-2,3.861265182E-1
1.129017965E1,-9.564936161E-3,1.100301743E-2,1.485643387E-1
1.130111501E1,-2.260005474E-2,3.838539124E-2,-2.256126404E-1
1.131205038E1,-2.934068441E-2,4.855442047E-2,-5.728883743E-1
1.132298569E1,-2.075242996E-2,2.254223824E-2,-7.060775757E-1
1.133392105E1,2.454036474E-2,-3.241348267E-2,-5.207910538E-1
1.134485642E1,4.650872946E-2,-4.739165306E-2,-1.251926422E-1
1.135579178E1,6.510132551E-2,-4.125118256E-3,2.991371155E-1
1.136672715E1,6.399852037E-2,6.364202499E-2,5.642881393E-1
1.137766251E1,4.181230068E-2,4.778695107E-2,5.653944016E-1
1.138859782E1,6.526470184E-3,2.127528191E-2,3.689985275E-1
1.139953319E1,-6.559675932E-2,1.509809494E-2,5.355644226E-2
1.141046855E1,-1.406590939E-1,2.246785164E-2,-2.331151962E-1
1.142140392E1,-2.171352506E-1,4.424595833E-2,-4.374666214E-1
1.143233923E1,-2.146882117E-1,3.835487366E-2,-4.949645996E-1
1.144327460E1,-1.621393263E-1,2.339458466E-2,-3.678512573E-1
1.145420996E1,-4.746872187E-2,-2.362799644E-2,-1.241712570E-1
1.146514532E1,3.384977579E-2,-1.636958122E-2,8.135700226E-2
1.147608069E1,5.967372656E-2,-7.819414139E-3,1.580371857E-1
1.148701600E1,5.298137665E-2,1.012063026E-2,1.405677795E-1
1.149795136E1,-5.565881729E-3,-1.797676086E-2,7.523441315E-2
1.150888673E1,-1.060113907E-1,-4.856657982E-2,3.883647919E-2
1.151982210E1,-1.969846487E-1,-3.492760658E-2,4.519367218E-2
1.153075746E1,-2.386182547E-1,-1.607275009E-2,9.305477142E-2
1.154169282E1,-1.933946311E-1,1.356792450E-2,1.238508224E-1
1.155262814E1,-9.881973267E-2,2.974581718E-2,1.219778061E-1
1.156356350E1,-1.122093201E-2,4.391336441E-2,1.990318298E-2
1.157449886E1,5.621105433E-2,6.236934662E-2,-1.212863922E-1
1.158543423E1,3.970849514E-2,7.438969612E-2,-2.490062714E-1
1.159636960E1,-1.053273678E-3,3.389906883E-2,-2.507190704E-1
1.160730491E1,-1.901346445E-2,1.749134064E-2,-1.147165298E-1
1.161824027E1,-7.155793905E-2,1.379489899E-3,9.282588959E-2
1.162917564E1,-1.122097969E-1,3.241252899E-2,2.717475891E-1
1.164011100E1,-1.277597845E-1,7.683944702E-2,3.031940460E-1
1.165104637E1,-1.366088092E-1,1.023900509E-1,1.749324799E-1
1.166198168E1,-9.141182899E-2,9.282469749E-2,-2.371120453E-2
1.167291704E1,-4.118752480E-2,6.128048897E-2,-2.434406281E-1
1.168385241E1,-2.625399828E-2,6.844449043E-2,-3.800191879E-1
1.169478777E1,-3.709608316E-2,5.910158157E-2,-3.492803574E-1
1.170572314E1,-3.035801649E-2,3.872179985E-2,-1.241445541E-1
1.171665845E1,-5.512672663E-2,2.116990089E-2,1.926908493E-1
1.172759381E1,-1.033686996E-1,1.822805405E-2,4.625148773E-1
1.173852918E1,-1.379575133E-1,4.050350189E-2,5.556068420E-1
1.174946454E1,-1.529436409E-1,1.010050774E-1,4.102821350E-1
1.176039991E1,-1.678898335E-1,1.255855560E-1,1.468954086E-1
1.177133522E1,-1.838252544E-1,9.186577797E-2,-1.072978973E-1
1.178227058E1,-1.369757950E-1,4.156279564E-2,-2.623786926E-1
1.179320595E1,-6.450337172E-2,1.718235016E-2,-3.216161728E-1
1.180414131E1,-6.077229977E-3,2.685022354E-2,-2.729997635E-1
1.181507668E1,-8.284270763E-3,4.218411446E-2,-1.528692245E-1
1.182601199E1,-3.011888266E-2,3.973484039E-3,-1.761436462E-3
1.183694736E1,-6.131756306E-2,-5.386590958E-2,1.339607239E-1
1.184788272E1,-1.306686997E-1,-7.936835289E-2,1.991052628E-1
1.185881808E1,-1.833219230E-1,-4.887866974E-2,1.975078583E-1
1.186975345E1,-2.253543437E-1,-1.680207253E-2,1.629753113E-1
1.188068876E1,-2.222068608E-1,-5.633831024E-2,1.271123886E-1
1.189162413E1,-1.857946813E-1,-8.961200714E-2,1.315422058E-1
1.190255949E1,-1.149241924E-1,-7.793021202E-2,1.069850922E-1
1.191349486E1,-5.130851269E-2,-2.058529854E-2,7.843494415E-2
1.192443017E1,-2.889645100E-2,3.975629807E-3,3.444099426E-2
1.193536558E1,3.661513329E-3,1.763844490E-2,-7.041072845E-2
1.194630090E1,-3.086149693E-3,3.448033333E-2,-2.215766907E-1
1.195723626E1,-4.470974207E-2,1.208996773E-2,-2.600574493E-1
1.196817163E1,-1.141596138E-1,-5.114197731E-2,-2.023992538E-1
1.197910694E1,-5.605614185E-2,-9.861159325E-2,-1.838397980E-2
1.199004230E1,7.589101791E-3,-1.367323399E-1,1.361026764E-1
1.200097767E1,4.977333546E-2,-1.406695843E-1,2.072610855E-1
1.201191303E1,9.761446714E-2,-8.690643311E-2,1.878223419E-1
1.202284840E1,1.904097795E-1,-6.361484528E-2,4.381275177E-2
1.203378371E1,1.942645311E-1,-3.662443161E-2,-1.066846848E-1
1.204471907E1,2.351480722E-1,-1.021311283E-1,-1.614227295E-1
1.205565444E1,1.224800944E-1,-7.881307602E-2,-1.181859970E-1
1.206658980E1,1.188337803E-2,-6.229972839E-2,-4.989910126E-2
1.207752512E1,-2.618318796E-2,-3.001713753E-2,5.111694336E-2
1.208846048E1,-5.616927147E-2,7.684230804E-4,1.443958282E-1
1.209939584E1,-5.683672428E-2,7.338309288E-2,1.540470123E-1
1.211033121E1,3.743231297E-3,1.178033352E-1,1.255855560E-1
1.212126652E1,1.061567664E-1,8.841705322E-2,7.829093933E-2
1.213220189E1,1.559063196E-1,-1.190662384E-2,1.119384766E-1
1.214313725E1,8.347707987E-2,-1.232028008E-1,8.355236053E-2
1.215407262E1,7.678264380E-2,-1.640686989E-1,4.037952423E-2
1.216500798E1,1.547635198E-1,-8.813261986E-2,-2.569103241E-2
1.217594334E1,9.357428551E-2,2.171993256E-3,-1.257333755E-1
1.218687866E1,2.418029308E-2,-1.619386673E-2,-1.869487762E-1
1.219781402E1,1.997977495E-2,-8.213591576E-2,-1.478519440E-1
1.220874939E1,3.761863708E-2,-6.509566307E-2,1.456165314E-2
1.221968475E1,-2.441549301E-2,-5.222630501E-2,1.335926056E-1
1.223062006E1,3.192198277E-2,-2.498745918E-2,2.007083893E-1
1.224155543E1,1.221222281E-1,-2.097439766E-2,2.405242920E-1
1.225249079E1,2.304990888E-1,-5.923104286E-2,2.978992462E-1
1.226342621E1,1.433624625E-1,-7.188081741E-2,2.295703888E-1
1.227436152E1,-2.517247200E-2,-1.052653790E-1,4.217910767E-2
1.228529683E1,-8.750113845E-2,-8.425450325E-2,-8.948612213E-2
1.229623220E1,-2.753401995E-1,-3.418707848E-2,-2.883329391E-1
1.230716756E1,-7.265979052E-2,-1.204245090E-1,-4.251337051E-1
1.231810293E1,-7.904544473E-2,-7.120633125E-2,-4.566516876E-1
1.232903824E1,-1.417872906E-1,-9.016370773E-2,-4.919710159E-1
1.233997360E1,-1.709055603E-1,-1.602668762E-1,-4.238462448E-1
1.235090897E1,4.207211733E-2,-1.461372375E-1,-2.763147354E-1
1.236184433E1,9.308695793E-2,-8.575701714E-2,-1.599044800E-1
1.237277970E1,7.493144274E-2,4.039359093E-2,7.291984558E-2
1.238371501E1,-1.758867502E-2,1.933717728E-2,2.510728836E-1
1.239465038E1,1.974940300E-3,-3.779482841E-2,3.712091446E-1
1.240558574E1,-3.597438335E-3,-3.253650665E-2,4.093608856E-1
1.241652111E1,-2.816104889E-2,9.583234787E-3,3.821840286E-1
1.242745642E1,4.838287830E-3,1.473283768E-2,2.172985077E-1
1.243839173E1,-6.799268723E-2,-4.663944244E-3,1.283931732E-2
1.244932715E1,-1.129747927E-1,-6.401896477E-2,-1.338891983E-1
1.246026251E1,-8.545392752E-2,-1.452238560E-1,-2.460613251E-1
1.247119782E1,-6.214496493E-2,-1.621892452E-1,-4.002990723E-1
1.248213319E1,-8.926698565E-2,-7.330942154E-2,-4.701566696E-1
1.249306855E1,-1.068523526E-1,1.303672791E-2,-4.947595596E-1
1.250400392E1,-3.516012430E-2,1.866722107E-2,-3.832359314E-1
1.251493928E1,3.569445014E-2,1.959443092E-2,-2.832593918E-1
1.252587460E1,3.954285383E-2,3.468203545E-2,-1.733713150E-1
1.253680996E1,6.173685193E-2,8.019900322E-2,-2.958488464E-2
1.254774532E1,8.600926399E-2,5.668354034E-2,1.604938507E-1
1.255868069E1,4.693302512E-2,-5.765223503E-2,2.111978531E-1
1.256961600E1,-7.694840431E-3,-3.807687759E-2,2.723455429E-1
1.258055137E1,-1.768201590E-3,-4.050302505E-2,3.192901611E-1
1.259148673E1,6.963044405E-2,-1.260685921E-2,3.034591675E-1
1.260242210E1,1.180053651E-1,5.819463730E-2,1.920328140E-1
1.261335741E1,1.021535695E-1,3.993988037E-2,3.264808655E-2
1.262429277E1,2.851581573E-2,5.886578560E-2,-1.863765717E-2
1.263522808E1,5.013635755E-2,3.069782257E-2,2.285003662E-3
1.264616350E1,-2.085924149E-3,-4.184961319E-2,2.925586700E-2
1.265709886E1,-1.990172267E-2,-6.756877899E-2,1.244325638E-1
1.266803418E1,-1.476344466E-2,-5.290150642E-2,1.381072998E-1
1.267896954E1,5.273982882E-2,-5.000710487E-2,1.291608810E-1
1.268990491E1,1.353823841E-1,-3.397607803E-2,1.035623550E-1
1.270084027E1,1.469225287E-1,-2.063703537E-2,6.972980499E-2
1.271177558E1,5.460640788E-2,-2.061009407E-2,5.007934570E-2
1.272271095E1,7.378846407E-3,-5.266427994E-2,6.237125397E-2
1.273364631E1,-2.080708742E-3,-8.959579468E-2,1.966314316E-1
1.274458168E1,-9.117889404E-2,-1.334607601E-1,2.974433899E-1
1.275551699E1,-1.196584702E-1,-1.286747456E-1,3.761425018E-1
1.276645236E1,-5.460408330E-2,-1.045999527E-1,3.580722809E-1
1.277738772E1,2.587446570E-2,-5.936002731E-2,2.325010300E-1
1.278832308E1,1.019716263E-1,-3.585243225E-2,8.740806580E-2
1.279925845E1,1.484305263E-1,-8.999586105E-2,-2.065277100E-2
1.281019376E1,9.671059251E-2,-1.491789818E-1,-9.599685669E-3
1.282112913E1,-3.457844257E-2,-2.129430771E-1,2.460575104E-2
1.283206449E1,-9.829035401E-2,-2.474412918E-1,7.992172241E-2
1.284299980E1,-1.676989496E-1,-2.443902493E-1,7.257080078E-2
1.285393517E1,-2.876966000E-1,-2.018902302E-1,1.490688324E-2
1.286487053E1,-2.625476718E-1,-1.892654896E-1,-6.608009338E-2
1.287580590E1,-1.880309582E-1,-2.005786896E-1,-1.288719177E-1
1.288674126E1,-8.438801765E-2,-1.997041702E-1,-8.639431000E-2
1.289767657E1,-1.681482792E-2,-1.837916374E-1,7.960319519E-3
1.290861194E1,1.580864191E-3,-2.014362812E-1,6.883907318E-2
1.291954730E1,4.650527239E-2,-2.355942726E-1,6.789302826E-2
1.293048267E1,1.917877793E-2,-1.409292221E-1,7.240390778E-2
1.294141798E1,-6.722298265E-2,-9.530186653E-2,-4.645347595E-3
1.295235334E1,-1.073592305E-1,-1.206896305E-1,-1.358594894E-1
1.296328871E1,-1.313164532E-1,-1.222620010E-1,-1.991767883E-1
1.297422407E1,-1.855003536E-1,-1.307938099E-1,-2.532224655E-1
1.298515944E1,-2.095776796E-1,-8.127021790E-2,-2.604780197E-1
1.299609475E1,-1.590404510E-1,1.232790947E-2,-2.726678848E-1
1.300703012E1,-1.171198487E-2,5.419015884E-2,-3.133621216E-1
1.301796548E1,1.015058458E-1,4.803895950E-2,-2.653741837E-1
1.302890079E1,1.376169324E-1,1.810669899E-2,-2.430429459E-1
1.303983616E1,1.056852639E-1,4.232215881E-2,-1.403465271E-1
1.305077152E1,3.127536178E-2,2.672004700E-2,-3.845882416E-2
1.306170689E1,5.511343479E-2,1.087665558E-2,6.467628479E-2
1.307264220E1,8.248552680E-2,1.040244102E-2,1.241903305E-1
1.308357756E1,2.233135700E-2,1.040763855E-1,2.040910721E-1
1.309451293E1,1.335024834E-3,1.655337811E-1,1.721763611E-1
1.310544829E1,5.192539096E-2,1.649591923E-1,8.189773560E-2
1.311638366E1,6.367015839E-2,1.874699593E-1,-3.031921387E-2
1.312731897E1,8.563208580E-2,2.200732231E-1,-1.475162506E-1
1.313825433E1,1.190504134E-1,2.280049324E-1,-1.936035156E-1
1.314918970E1,8.789235353E-2,2.187826633E-1,-1.830492020E-1
1.316012506E1,3.938472271E-2,2.076475620E-1,-1.005353928E-1
1.317106038E1,2.744227648E-3,1.587882042E-1,-5.442428589E-2
1.318199574E1,-3.683307767E-2,1.771535873E-1,-2.682018280E-2
1.319293111E1,-3.720015287E-3,2.496161461E-1,-5.017280579E-3
1.320386642E1,-1.976084709E-2,2.401425838E-1,-4.556846619E-2
1.321480178E1,-3.174513578E-2,1.697366238E-1,-4.980087280E-2
1.322573715E1,-8.913534880E-2,1.221058369E-1,1.264572144E-2
1.323667251E1,-1.567245722E-1,1.127493382E-1,8.414554596E-2
1.324760782E1,-1.542697251E-1,1.355910301E-1,1.363153458E-1
1.325854319E1,-9.701010585E-2,1.661736965E-1,1.461906433E-1
1.326947855E1,-2.552098036E-2,2.174384594E-1,1.413793564E-1
1.328041392E1,-4.674413800E-2,2.354195118E-1,1.383771896E-1
1.329134923E1,-3.165781498E-2,1.701295376E-1,8.346271515E-2
1.330228460E1,-2.677381039E-2,1.310355663E-1,-2.939224243E-3
1.331321996E1,-1.072248518E-1,1.207029819E-1,-1.733350754E-1
1.332415532E1,-1.624161899E-1,1.414759159E-1,-3.308019638E-1
1.333509064E1,-1.693708003E-1,1.354522705E-1,-4.609403610E-1
1.334602600E1,-2.019253969E-1,1.324043274E-1,-5.362291336E-1
1.335696136E1,-2.574160695E-1,1.220059395E-1,-5.161638260E-1
1.336789673E1,-2.566204071E-1,9.953260422E-2,-4.161214828E-1
1.337883204E1,-2.739809453E-1,1.011407375E-1,-2.821674347E-1
1.338976741E1,-3.537649810E-1,7.220578194E-2,-1.108245850E-1
1.340070277E1,-3.863286674E-1,3.935647011E-2,2.222824097E-2
1.341163814E1,-2.859204412E-1,2.058362961E-2,8.496093750E-2
1.342257345E1,-2.822523117E-1,3.634190559E-2,9.720420837E-2
1.343350881E1,-3.041861951E-1,4.207563400E-2,7.451629639E-2
1.344444418E1,-2.824713886E-1,3.676509857E-2,1.611328125E-2
1.345537954E1,-2.904877961E-1,9.023666382E-3,5.607795715E-2
1.346631486E1,-2.999618351E-1,-2.577543259E-2,9.112071991E-2
1.347725022E1,-3.272839189E-1,-2.850151062E-2,1.995964050E-1
1.348818558E1,-3.756021261E-1,-4.063653946E-2,2.900781631E-1
1.349912095E1,-3.879698217E-1,-1.043751240E-1,3.641185760E-1
1.351005626E1,-3.237321377E-1,-1.443903446E-1,4.224386215E-1
1.352099163E1,-2.353748679E-1,-1.238803864E-1,4.722089767E-1
1.353192699E1,-2.114254236E-1,-1.233615875E-1,4.097414017E-1
1.354286230E1,-1.813800782E-1,-1.374161243E-1,3.531694412E-1
1.355379767E1,-1.402736902E-1,-1.227636337E-1,2.982931137E-1
1.356473303E1,-1.322939098E-1,-1.288647652E-1,2.155628204E-1
1.357566840E1,-1.114167273E-1,-1.183094978E-1,1.531944275E-1
1.358660376E1,-3.351938725E-2,-6.537961960E-2,1.709823608E-1
1.359753907E1,-3.211796284E-4,-3.170728683E-2,2.527179718E-1
1.360847444E1,2.481019497E-2,-4.124808311E-2,4.428930283E-1
1.361940980E1,2.069333196E-2,-7.316398621E-2,6.601600647E-1
1.363034517E1,2.047488987E-1,-1.328256130E-1,8.141593933E-1
1.364128048E1,3.702057898E-1,-1.740932465E-1,9.618864059E-1
1.365221584E1,3.425827920E-1,-1.943120956E-1,1.050981522E0
1.366315121E1,2.931119800E-1,-1.917493343E-1,1.004575729E0
1.367408652E1,2.601706982E-1,-1.847803593E-1,8.569431305E-1
1.368502189E1,2.468244135E-1,-1.729199886E-1,5.716810226E-1
1.369595725E1,2.277698517E-1,-1.532490253E-1,1.982784271E-1
1.370689262E1,2.608649135E-1,-1.460032463E-1,-1.498613358E-1
1.371782798E1,2.834737301E-1,-1.619796753E-1,-3.496503830E-1
1.372876329E1,3.373221755E-1,-1.553435326E-1,-3.800687790E-1
1.373969866E1,3.853856325E-1,-1.484072208E-1,-3.139686584E-1
1.375063402E1,3.866570592E-1,-1.754467487E-1,-1.710271835E-1
1.376156933E1,3.776179552E-1,-1.981015205E-1,-3.946208954E-2
1.377250470E1,3.884267211E-1,-2.097244263E-1,1.340961456E-2
1.378344006E1,4.251526594E-1,-2.029831409E-1,-5.821132660E-2
1.379437543E1,5.091795921E-1,-2.343792915E-1,-1.611442566E-1
1.380531074E1,5.777280927E-1,-2.833207846E-1,-2.563924789E-1
1.381624611E1,5.591952801E-1,-2.772117853E-1,-2.707185745E-1
1.382718152E1,4.492857456E-1,-2.706454992E-1,-3.089742661E-1
1.383811683E1,3.836320043E-1,-2.732665539E-1,-4.216718674E-1
1.384905215E1,3.815363050E-1,-2.679364681E-1,-6.000213623E-1
1.385998751E1,4.289407730E-1,-2.450506687E-1,-7.930345535E-1
1.387092288E1,4.194841981E-1,-2.009408474E-1,-9.677963257E-1
1.388185819E1,3.338092566E-1,-1.928613186E-1,-1.159914970E0
1.389279355E1,2.607577443E-1,-2.165699005E-1,-1.304704666E0
1.390372892E1,1.998541355E-1,-2.360954285E-1,-1.344140053E0
1.391466428E1,2.006164193E-1,-1.815624237E-1,-1.310200691E0
1.392559960E1,2.150678635E-1,-9.553194046E-2,-1.245042801E0
1.393653496E1,2.377160192E-1,-4.129672050E-2,-1.123114586E0
1.394747032E1,2.618374825E-1,-1.919627190E-2,-9.101829529E-1
1.395840569E1,2.188189030E-1,1.486492157E-2,-5.676994324E-1
1.396934100E1,9.300661087E-2,1.476550102E-2,-1.887989044E-1
1.398027637E1,3.265458345E-2,4.565739632E-2,1.278867722E-1
1.399121173E1,-7.847011089E-3,7.773089409E-2,2.522068024E-1
1.400214704E1,-8.383229375E-2,1.088187695E-1,2.705945969E-1
1.401308241E1,-2.172194421E-1,1.801857948E-1,1.897144318E-1
1.402401777E1,-4.264271259E-1,2.413384914E-1,5.612087250E-2
1.403495314E1,-4.392987490E-1,3.372740746E-1,-1.384820938E-1
1.404588845E1,-3.612106442E-1,3.497281075E-1,-3.652687073E-1
1.405682381E1,-3.914267719E-1,2.759478092E-1,-4.548397064E-1
1.406775918E1,-4.237105846E-1,2.076685429E-1,-3.732595444E-1
1.407869449E1,-5.651688576E-1,1.218445301E-1,-1.236114502E-1
1.408962986E1,-6.592293382E-1,2.135396004E-2,2.909669876E-1
1.410056522E1,-4.771686196E-1,-3.240466118E-2,7.264795303E-1
1.411150058E1,-3.663406074E-1,-1.088379622E-1,1.056667328E0
1.412243590E1,-2.722075582E-1,-9.851181507E-2,1.209759712E0
1.413337126E1,-1.836877167E-1,-2.639424801E-2,1.149256706E0
1.414430663E1,-2.106925547E-1,-4.505062103E-2,9.468393326E-1
1.415524199E1,-3.356472254E-1,-4.167985916E-2,6.575393677E-1
1.416617730E1,-4.469182193E-1,1.168954372E-1,3.620443344E-1
1.417711267E1,-6.304104924E-1,2.811646461E-1,7.473564148E-2
1.418804803E1,-6.449958086E-1,3.257391453E-1,-1.851472855E-1
1.419898334E1,-5.210705400E-1,3.214914799E-1,-3.569545746E-1
1.420991866E1,-3.938963413E-1,3.097553253E-1,-4.592075348E-1
1.422085407E1,-2.898824811E-1,2.684345245E-1,-4.938488007E-1
1.423178944E1,-2.408381999E-1,1.980135441E-1,-3.939237595E-1
1.424272475E1,-1.775395870E-1,1.952936649E-1,-1.708192825E-1
1.425366012E1,-1.369341016E-1,2.162597179E-1,1.095981598E-1
1.426459548E1,-1.184412241E-1,2.356173992E-1,4.378299713E-1
1.427553079E1,-1.184959412E-1,2.511178255E-1,7.605228424E-1
1.428646616E1,-1.440516710E-1,2.918279171E-1,1.075288773E0
1.429740152E1,-2.136117518E-1,3.482865095E-1,1.330149651E0
1.430833689E1,-2.826968729E-1,3.505834341E-1,1.472370148E0
1.431927220E1,-2.660270333E-1,2.969362736E-1,1.412037849E0
1.433020756E1,-1.957383156E-1,2.030459642E-1,1.097208023E0
1.434114293E1,-1.863574386E-1,6.863355637E-2,6.549444199E-1
1.435207829E1,-2.306584418E-1,-2.097129822E-2,2.279930115E-1
1.436301360E1,-2.824170291E-1,-5.409681797E-2,-1.787052155E-1
1.437394897E1,-2.813118100E-1,-1.605061293E-1,-5.508956909E-1
1.438488433E1,-2.592706680E-1,-2.734223604E-1,-8.521556854E-1
1.439581965E1,-2.770194113E-1,-2.946344614E-1,-9.953603745E-1
1.440675501E1,-2.478055954E-1,-2.776274681E-1,-9.868230820E-1
1.441769038E1,-1.463657022E-1,-3.344057798E-1,-7.319669724E-1
1.442862574E1,-3.824055195E-2,-4.112617970E-1,-2.734060287E-1
1.443956105E1,2.225697041E-2,-3.934882879E-1,1.641311646E-1
1.445049642E1,1.372212172E-2,-2.959984541E-1,4.182157516E-1
1.446143178E1,1.685035229E-2,-2.305141687E-1,4.553642273E-1
1.447236710E1,5.603301525E-2,-2.098063231E-1,3.221988678E-1
1.448330246E1,6.284755468E-2,-1.669908762E-1,7.462310791E-2
1.449423782E1,2.919757366E-2,-1.205165386E-1,-2.330617905E-1
1.450517314E1,-1.088029146E-2,-8.916020393E-2,-6.055068970E-1
1.451610850E1,1.285696030E-2,-8.267807961E-2,-9.482755661E-1
1.452704387E1,9.942007065E-2,-6.253170967E-2,-1.135422707E0
1.453797923E1,1.122561693E-1,-2.855992317E-2,-1.142072678E0
1.454891460E1,1.188142300E-1,1.709866524E-2,-9.666023254E-1
1.455984991E1,2.291218638E-1,2.842283249E-2,-7.090244293E-1
1.457078527E1,3.686950803E-1,-2.778053284E-2,-3.378915787E-1
1.458172064E1,4.222053289E-1,-4.694020748E-2,3.950595856E-2
1.459265595E1,3.923861384E-1,5.410838127E-2,3.414344788E-1
1.460359131E1,3.786677718E-1,7.619309425E-2,5.769329071E-1
1.461452668E1,4.044650197E-1,5.460476875E-2,7.550230026E-1
1.462546199E1,3.422838449E-1,6.784343719E-2,7.603263855E-1
1.463639736E1,2.442255616E-1,1.377062798E-1,6.253404617E-1
1.464733272E1,1.384116411E-1,1.904029846E-1,3.575229645E-1
1.465826808E1,2.137827873E-2,1.953890324E-1,8.565998077E-2
1.466920340E1,-1.166999638E-1,1.803238392E-1,-1.150627136E-1
1.468013876E1,-2.293946147E-1,1.964857578E-1,-2.738008499E-1
1.469107413E1,-2.814665735E-1,2.385635376E-1,-4.168853760E-1
1.470200944E1,-2.763015628E-1,2.562253475E-1,-4.807729721E-1
1.471294480E1,-2.895863652E-1,2.141768932E-1,-3.778638840E-1
1.472388017E1,-2.842829227E-1,1.499164104E-1,-1.215152740E-1
1.473481548E1,-2.708185017E-1,7.769489288E-2,1.788082123E-1
1.474575085E1,-2.588583827E-1,3.406953812E-2,4.387969971E-1
1.475668621E1,-2.273576856E-1,3.246378899E-2,6.610307693E-1
1.476762157E1,-2.377705574E-1,7.436251640E-2,7.628135681E-1
1.477855689E1,-2.735148668E-1,9.665036201E-2,7.060346603E-1
1.478949225E1,-2.883961201E-1,5.798220634E-2,5.459680557E-1
1.480042762E1,-2.622199655E-1,2.686452866E-2,4.036464691E-1
1.481136293E1,-3.074910641E-1,4.195427895E-2,2.710647583E-1
1.482229829E1,-3.506754041E-1,6.840443611E-2,1.298255920E-1
1.483323366E1,-3.249222636E-1,7.871103287E-2,-1.538372040E-2
1.484416897E1,-2.997243404E-1,5.352902412E-2,-1.071691513E-1
1.485510433E1,-3.588622808E-1,7.879734039E-4,-1.005887985E-1
1.486603970E1,-4.094262123E-1,-8.204293251E-2,-4.919433594E-2
1.487697506E1,-4.274343848E-1,-1.274042130E-1,-6.875324249E-2
1.488791038E1,-3.424964845E-1,-1.391901970E-1,-1.825370789E-1
1.489884574E1,-2.437479496E-1,-1.206942797E-1,-3.356962204E-1
1.490978110E1,-1.675219536E-1,-8.619594574E-2,-4.481725693E-1
1.492071642E1,-1.278955340E-1,-8.486342430E-2,-4.458847046E-1
1.493165178E1,-7.545334101E-2,-1.060202122E-1,-3.092384338E-1
1.494258715E1,-9.683924913E-2,-1.104720831E-1,-3.452491760E-2
1.495352246E1,-1.196208596E-1,-8.510661125E-2,2.777996063E-1
1.496445782E1,-6.626170874E-2,-4.475164413E-2,4.866847992E-1
1.497539319E1,-1.770967245E-2,-4.338181019E-2,5.935401917E-1
1.498632855E1,-1.863074303E-2,-6.208884716E-2,5.946159363E-1
1.499726386E1,-9.517189860E-2,-6.851887703E-2,4.538679123E-1
1.500819923E1,-7.479283214E-2,-4.372274876E-2,2.656974792E-1
1.501913460E1,-3.484547138E-2,-5.815804005E-2,3.799819946E-2
1.503006991E1,-3.101104498E-2,-9.289479256E-2,-2.272319794E-1
1.504100527E1,-5.805617571E-2,-6.987619400E-2,-4.556427002E-1
1.505194064E1,1.127934456E-2,-4.974389076E-2,-6.343603134E-1
1.506287595E1,1.171395779E-1,-6.974625587E-2,-7.146854401E-1
1.507381131E1,2.436260581E-1,-1.198589802E-1,-5.954532623E-1
1.508474668E1,2.777305841E-1,-1.243289709E-1,-3.677377701E-1
1.509568204E1,2.307949662E-1,-1.236253977E-1,-1.484298706E-1
1.510661736E1,2.345237732E-1,-1.359612942E-1,-9.379386902E-3
1.511755272E1,2.909960747E-1,-1.776424646E-1,8.667945862E-2
1.512848808E1,2.733866572E-1,-2.212779522E-1,1.592082977E-1
1.513942340E1,2.341253757E-1,-2.365485430E-1,1.876411438E-1
1.515035876E1,2.241012454E-1,-2.106994390E-1,1.545171738E-1
1.516129413E1,2.455847263E-1,-1.813530922E-1,8.136653900E-2
1.517222944E1,2.242878675E-1,-1.540883780E-1,-4.062175751E-2
1.518316480E1,1.557916403E-1,-1.426775455E-1,-1.664361954E-1
1.519410017E1,6.956082582E-2,-1.342351437E-1,-3.175964355E-1
1.520503553E1,5.746817589E-2,-1.512855291E-1,-4.062004089E-1
1.521597085E1,5.634731054E-2,-1.805225611E-1,-3.826160431E-1
1.522690621E1,8.610272408E-2,-1.811074018E-1,-2.563533783E-1
1.523784157E1,2.166619301E-1,-1.477568150E-1,-1.335201263E-1
1.524877689E1,3.475863338E-1,-1.403293610E-1,-1.021194458E-2
1.525971225E1,4.344468713E-1,-1.630266905E-1,1.146383286E-1
1.527064762E1,3.685719967E-1,-1.828892231E-1,2.420005798E-1
1.528158298E1,2.139468193E-1,-1.728276014E-1,3.532171249E-1
1.529251829E1,1.388759613E-1,-1.594232321E-1,3.775320053E-1
1.530345366E1,1.169745922E-1,-1.363397837E-1,2.940034866E-1
1.531438897E1,7.920688391E-2,-8.075463772E-2,1.502256393E-1
1.532532433E1,9.353530407E-2,-3.369486332E-2,3.415679932E-2
1.533625970E1,2.551496029E-2,3.128147125E-2,8.066177368E-3
1.534719501E1,-1.013871431E-1,6.414520741E-2,4.874897003E-2
1.535813038E1,-1.647875905E-1,6.859600544E-2,9.317588806E-2
1.536906574E1,-8.062577248E-2,1.249414682E-1,1.143264771E-1
1.538000105E1,-3.727316856E-3,2.454959154E-1,8.354282379E-2
1.539093642E1,-7.504880428E-3,2.898052931E-1,1.840496063E-2
1.540187178E1,-2.445042133E-2,2.491075993E-1,3.509426117E-2
1.541280715E1,-8.816659451E-3,1.932094097E-1,1.332712173E-1
1.542374246E1,-4.832392931E-2,1.659023762E-1,2.600469589E-1
1.543467782E1,-1.104075909E-1,1.636596918E-1,3.360319138E-1
1.544561319E1,-1.321323514E-1,2.151341438E-1,3.470363617E-1
1.545654850E1,-1.380562186E-1,2.652120590E-1,3.562049866E-1
1.546748386E1,-1.709064245E-1,2.912610769E-1,3.869524002E-1
1.547841923E1,-2.645400763E-1,2.284609079E-1,4.462404251E-1
1.548935454E1,-3.328928351E-1,2.001972198E-1,4.809074402E-1
1.550028991E1,-4.063362181E-1,1.641266346E-1,5.068807602E-1
1.551122527E1,-5.328579545E-1,1.428849697E-1,3.949241638E-1
1.552216058E1,-5.697775483E-1,1.432430744E-1,3.638267517E-2
1.553309595E1,-5.087180138E-1,1.076242924E-1,-4.107017517E-1
1.554403131E1,-3.813968003E-1,4.092979431E-2,-6.978664398E-1
1.555496663E1,-2.847438455E-1,-9.746861458E-2,-7.870140076E-1
1.556590199E1,-3.649095297E-1,-2.035005093E-1,-7.148571014E-1
1.557683736E1,-5.282126069E-1,-2.076421976E-1,-5.172967911E-1
1.558777267E1,-5.724942684E-1,-1.236456633E-1,-3.205585480E-1
1.559870803E1,-4.717649519E-1,-4.841899872E-2,-1.627550125E-1
1.560964340E1,-3.729721904E-1,-5.139350891E-3,6.484985352E-4
1.562057871E1,-3.243835270E-1,3.263485432E-2,2.352495193E-1
1.563151407E1,-3.113814592E-1,7.539570332E-2,3.974294662E-1
1.564244944E1,-2.724553943E-1,6.538236141E-2,4.332647324E-1
1.565338480E1,-2.123091519E-1,4.161655903E-2,2.921314240E-1
1.566432012E1,-1.913698912E-1,5.037605762E-2,1.619052887E-2
1.567525548E1,-1.591740251E-1,8.484482765E-2,-3.044662476E-1
1.568619084E1,-1.362999082E-1,1.169865131E-1,-6.276235580E-1
1.569712616E1,-1.005478501E-1,8.742642403E-2,-8.412132263E-1
1.570806152E1,-3.162550926E-2,9.627079964E-2,-8.808259964E-1
1.571899689E1,9.340822697E-3,1.490397453E-1,-7.617473602E-1
1.572993220E1,7.248529792E-2,2.007677555E-1,-4.984760284E-1
1.574086756E1,1.596961915E-1,2.068550587E-1,-1.312646866E-1
1.575180288E1,1.759465337E-1,1.962292194E-1,2.449312210E-1
1.576273824E1,1.047678888E-1,1.768471003E-1,5.828008652E-1
1.577367360E1,4.108518362E-2,1.862241030E-1,8.102750778E-1
1.578460897E1,3.154188395E-2,1.375731230E-1,8.013467789E-1
1.579554428E1,-4.300543666E-2,1.586496830E-1,6.370315552E-1
1.580647965E1,-5.264738202E-2,2.518990040E-1,4.108219147E-1
1.581741501E1,-4.091942310E-2,2.717540264E-1,3.078460693E-2
1.582835032E1,-3.548899293E-2,2.036340237E-1,-3.008241653E-1
1.583928569E1,-6.227937341E-2,1.314115524E-1,-5.167093277E-1
1.585022105E1,-5.921411514E-2,7.973217964E-2,-6.511754990E-1
1.586115637E1,-2.702388167E-2,2.802777290E-2,-6.069030762E-1
1.587209173E1,5.451652408E-2,-4.547166824E-2,-3.857984543E-1
1.588302710E1,8.986636996E-2,-8.797991276E-2,-1.117553711E-1
1.589396241E1,6.471911073E-2,-9.466469288E-2,1.698465347E-1
1.590489777E1,6.043621898E-2,-1.434972286E-1,3.993196487E-1
1.591583314E1,5.227333307E-2,-1.674975157E-1,5.339317322E-1
1.592676845E1,-7.869392633E-3,-1.217772961E-1,5.801382065E-1
1.593770381E1,-6.778150797E-2,-5.374288559E-2,4.732418060E-1
1.594863918E1,-9.126925468E-2,-3.544068336E-2,2.725839615E-1
1.595957449E1,-1.168495417E-1,-4.188787937E-2,4.038619995E-2
1.597050986E1,-1.561681628E-1,-1.695418358E-2,-1.790075302E-1
1.598144522E1,-2.132844776E-1,3.660917282E-2,-3.296508789E-1
1.599238053E1,-1.715025902E-1,4.464054108E-2,-4.146156311E-1
1.600331590E1,-6.438830495E-2,3.654956818E-3,-4.548292160E-1
1.601425126E1,3.048208356E-2,-2.037906647E-2,-3.871450424E-1
1.602518657E1,1.017856002E-1,-8.965134621E-3,-1.541223526E-1
1.603612194E1,1.419255733E-1,-2.916932106E-2,1.495752335E-1
1.604705730E1,1.184406281E-1,-4.537105560E-2,5.054359436E-1
1.605799262E1,8.743634820E-2,-3.382325172E-3,7.965660095E-1
1.606892798E1,3.508970141E-2,1.962006092E-2,9.718856812E-1
1.607986334E1,1.220574975E-2,2.991807461E-2,1.010149956E0
1.609079866E1,7.868376374E-2,9.899020195E-3,9.588718414E-1
1.610173402E1,9.674474597E-2,3.042721748E-2,8.288478851E-1
1.611266939E1,1.450084448E-1,6.420421600E-2,6.360635757E-1
1.612360470E1,1.770746410E-1,7.191562653E-2,3.414726257E-1
1.613454006E1,2.002051473E-1,5.040538311E-2,3.947067261E-2
1.614547538E1,1.501163840E-1,4.532551765E-2,-2.353715897E-1
1.615641074E1,5.550417304E-2,1.318621635E-2,-4.500007629E-1
1.616734610E1,4.295110703E-3,-6.255733967E-2,-5.961456299E-1
1.617828147E1,1.322793961E-2,-1.715971231E-1,-6.636266708E-1
1.618921678E1,4.267007113E-2,-2.309488058E-1,-5.527105331E-1
1.620015215E1,5.701756477E-2,-2.611086369E-1,-3.498268127E-1
1.621108746E1,2.127754688E-2,-2.867199183E-1,-1.361074448E-1
1.622202282E1,2.878922224E-2,-2.778279781E-1,4.451370239E-2
1.623295819E1,7.621794939E-2,-2.616342306E-1,9.606742859E-2
1.624389355E1,8.455705643E-2,-2.537832260E-1,-1.490306854E-2
1.625482892E1,1.560580730E-2,-2.237197161E-1,-2.472772598E-1
1.626576423E1,2.058750391E-2,-1.602234840E-1,-5.824966431E-1
1.627669954E1,6.981366873E-2,-1.415083408E-1,-8.510341644E-1
1.628763491E1,6.904828548E-2,-1.795835495E-1,-9.532279968E-1
1.629857027E1,3.592759371E-2,-2.130326033E-1,-8.792867661E-1
1.630950558E1,1.716113091E-2,-2.042889595E-1,-7.177553177E-1
1.632044095E1,2.073794603E-2,-1.707431078E-1,-5.252056122E-1
1.633137631E1,2.142140269E-2,-1.449337006E-1,-3.550958633E-1
1.634231163E1,-1.884657145E-2,-1.842442751E-1,-2.083463669E-1
1.635324699E1,-8.773678541E-2,-1.866499186E-1,-7.938861847E-2
1.636418236E1,-9.353023767E-2,-1.473810673E-1,3.226757050E-2
1.637511767E1,-5.996942520E-3,-1.588796377E-1,7.601451874E-2
1.638605303E1,1.264129877E-1,-1.996831894E-1,4.997158051E-2
1.639698840E1,1.416708827E-1,-1.566154957E-1,-1.311206818E-2
1.640792371E1,7.662758231E-2,-7.463395596E-2,-1.055698395E-1
1.641885907E1,9.289547801E-2,-6.918418407E-2,-1.568307877E-1
1.642979444E1,1.187512577E-1,-1.154265404E-1,-1.404457092E-1
1.644072975E1,7.348108292E-2,-1.282850504E-1,-6.295394897E-2
1.645166512E1,-3.404125571E-2,-8.631360531E-2,8.915042877E-2
1.646260048E1,-6.556323171E-2,-2.365493774E-2,2.483015060E-1
1.647353579E1,-7.915842533E-2,1.916730404E-2,3.648281097E-1
1.648447116E1,-1.268346012E-1,3.860747814E-2,4.010086060E-1
1.649540652E1,-2.111952156E-1,8.278715611E-2,4.118509293E-1
1.650634183E1,-2.093310207E-1,1.321520805E-1,3.901233673E-1
1.651727720E1,-1.473593414E-1,1.446880102E-1,3.097476959E-1
1.652821251E1,-7.621511817E-2,1.392546892E-1,2.137975693E-1
1.653914788E1,-1.504123211E-2,1.219190359E-1,1.483993530E-1
1.655008324E1,9.945580363E-2,1.090638638E-1,1.026058197E-1
1.656101855E1,2.211410105E-1,6.712973118E-2,1.034555435E-1
1.657195392E1,2.544941604E-1,4.960834980E-2,1.446666718E-1
1.658288928E1,1.829303205E-1,2.290630341E-2,2.237434387E-1
1.659382460E1,8.447811007E-2,-2.542591095E-2,3.128318787E-1
1.660475996E1,7.129877806E-2,-6.439399719E-2,3.593912125E-1
1.661569532E1,2.633523941E-2,-3.236675262E-2,3.654108047E-1
1.662663064E1,-7.700073719E-2,6.786823273E-3,2.770843506E-1
1.663756600E1,-8.117663860E-2,3.834044933E-2,9.768295288E-2
1.664850136E1,1.703724265E-2,2.676200867E-2,-1.416034698E-1
1.665943668E1,4.270607233E-2,6.872415543E-3,-3.264713287E-1
1.667037204E1,-4.186540842E-3,2.224814892E-2,-3.878440857E-1
1.668130741E1,-2.899155021E-2,4.430270195E-2,-4.382076263E-1
1.669224272E1,2.346664667E-3,1.860249043E-2,-3.540534973E-1
1.670317808E1,-7.625138760E-2,2.383947372E-2,-2.320327759E-1
1.671411340E1,-1.353290379E-1,8.135032654E-2,-1.370077133E-1
1.672504876E1,-1.487680376E-1,1.205478907E-1,-9.072113037E-2
1.673598413E1,-1.652866751E-1,1.465035677E-1,-1.440982819E-1
1.674691944E1,-2.511037588E-1,1.762697697E-1,-2.487258911E-1
1.675785480E1,-3.096590042E-1,1.996542215E-1,-3.900375366E-1
1.676879017E1,-3.027050495E-1,2.131497860E-1,-5.274276733E-1
1.677972548E1,-2.847158015E-1,2.133351564E-1,-5.990056992E-1
1.679066084E1,-2.352130413E-1,2.158856392E-1,-4.948968887E-1
1.680159621E1,-1.818407029E-1,2.399281263E-1,-4.091320038E-1
1.681253152E1,-2.255499065E-1,2.439730167E-1,-3.260345459E-1
1.682346689E1,-1.244885474E-1,2.425857782E-1,-1.462631226E-1
1.683440220E1,-1.146717817E-1,2.286437750E-1,-9.959793091E-2
1.684533756E1,-1.880010068E-1,2.578837872E-1,-1.169586182E-1
1.685627293E1,-2.041356415E-1,2.682242393E-1,-2.750053406E-1
1.686720824E1,-1.424359679E-1,2.309727669E-1,-4.272937775E-1
1.687814360E1,-1.494942307E-1,1.198289394E-1,-4.183626175E-1
1.688907897E1,-1.615881324E-1,4.516410828E-2,-1.605739594E-1
1.690001428E1,-1.401738226E-1,3.253030777E-2,1.759672165E-1
1.691094965E1,-1.613437831E-1,-6.896734238E-3,4.693441391E-1
1.692188501E1,-2.220846564E-1,-6.096243858E-2,6.776304245E-1
1.693282032E1,-2.354204208E-1,-5.577480793E-2,8.195915222E-1
1.694375569E1,-3.010698259E-1,-3.184342384E-2,8.634510040E-1
1.695469100E1,-3.573055267E-1,-3.703546524E-2,7.663249969E-1
1.696562637E1,-3.052120507E-1,-2.505171299E-2,5.686550140E-1
1.697656173E1,-2.294124365E-1,1.630306244E-3,3.466882706E-1
1.698749704E1,-1.694026291E-1,2.500975132E-2,1.745529175E-1
1.699843241E1,-1.336515248E-1,7.840418816E-2,1.725807190E-1
1.700936777E1,-1.309321225E-1,1.093980074E-1,3.034677505E-1
1.702030308E1,-1.410922706E-1,1.096497774E-1,4.405660629E-1
1.703123845E1,-7.665202022E-2,9.752690792E-2,5.328235626E-1
1.704217381E1,-5.832281709E-2,1.076539755E-1,4.957113266E-1
1.705310913E1,-1.390426457E-1,1.010611057E-1,3.630361557E-1
1.706404449E1,-1.475425363E-1,8.510446548E-2,1.526813507E-1
1.707497980E1,2.192667127E-2,-8.941650391E-3,-6.227588654E-2
1.708591517E1,1.443144977E-1,-7.138311863E-2,-1.176500320E-1
1.709685053E1,1.699244678E-1,-5.266332626E-2,2.329158783E-2
1.710778585E1,1.813161671E-1,-5.230998993E-2,2.860622406E-1
1.711872121E1,1.778350770E-1,-7.917594910E-2,6.082286835E-1
1.712965652E1,4.579427838E-2,-1.021914482E-1,9.022397995E-1
1.714059189E1,-7.255256176E-3,-8.838462830E-2,1.056614876E0
1.715152725E1,-5.111819506E-2,-6.888771057E-2,9.904413223E-1
1.716246256E1,-1.035172939E-1,-9.689283371E-2,6.986036301E-1
1.717339793E1,4.533672333E-2,-1.515576839E-1,3.127098083E-1
1.718433329E1,5.033349991E-2,-2.137384415E-1,-3.807926178E-2
1.719526861E1,-1.488184929E-2,-2.772725821E-1,-1.904506683E-1
1.720620397E1,4.742154479E-2,-3.438246250E-1,-1.759805679E-1
1.721713933E1,1.146985590E-1,-4.001406431E-1,-6.757831573E-2
1.722807465E1,1.248292923E-1,-4.399359226E-1,3.513526917E-2
1.723901001E1,3.434064984E-2,-4.154125452E-1,9.237861633E-2
1.724994532E1,-6.664565206E-2,-3.708508015E-1,6.277179718E-2
1.726088069E1,-1.023247540E-1,-3.585113287E-1,3.929138184E-4
1.727181605E1,-1.126037538E-1,-3.853209019E-1,-1.011238098E-1
1.728275136E1,-6.616765261E-2,-3.778402805E-1,-2.055492401E-1
1.729368673E1,-4.359519482E-2,-3.309322596E-1,-3.420438766E-1
1.730462210E1,-1.630988717E-2,-2.871471643E-1,-5.196170807E-1
1.731555741E1,5.260670185E-2,-2.240110636E-1,-7.171478271E-1
1.732649277E1,1.257728040E-1,-1.772304773E-1,-8.809747696E-1
1.733742808E1,1.829320192E-1,-1.438273191E-1,-9.564752579E-1
1.734836345E1,2.310592532E-1,-1.786820889E-1,-9.085998535E-1
1.735929881E1,2.995309830E-1,-2.233091593E-1,-6.978807449E-1
1.737023413E1,3.067173362E-1,-2.071514130E-1,-3.831443787E-1
1.738116949E1,3.392952681E-1,-1.919300556E-1,-2.385902405E-2
1.739210486E1,3.996232152E-1,-1.939989328E-1,2.481040955E-1
1.740304017E1,4.611169100E-1,-1.759756804E-1,3.950662613E-1
1.741397553E1,4.866755009E-1,-5.324459076E-2,4.409027100E-1
1.742491084E1,4.713656902E-1,-6.724834442E-3,4.397964478E-1
1.743584621E1,3.726112247E-1,-2.224290371E-2,4.412603378E-1
1.744678157E1,2.835647464E-1,-4.335510731E-2,4.206981659E-1
1.745771689E1,1.518692374E-1,-3.110504150E-2,3.192968369E-1
1.746865225E1,5.642837286E-2,5.065679550E-3,1.150522232E-1
1.747958762E1,8.365571499E-3,7.168650627E-2,-2.187261581E-1
1.749052293E1,-3.208649158E-2,1.447291374E-1,-6.596584320E-1
1.750145829E1,8.945763111E-3,1.488759518E-1,-1.118191719E0
1.751239360E1,2.220538259E-2,1.108412743E-1,-1.364445686E0
1.752332897E1,3.230127692E-2,4.230093956E-2,-1.428276539E0
1.753426433E1,1.335723102E-1,2.933740616E-4,-1.260021210E0
1.754519965E1,2.379408181E-1,-1.778364182E-3,-8.360023499E-1
1.755613501E1,2.948719263E-1,4.860401154E-2,-3.484878540E-1
1.756707032E1,3.864743114E-1,1.023056507E-1,1.309509277E-1
1.757800569E1,4.279311299E-1,1.434595585E-1,4.320459366E-1
1.758894105E1,4.276345968E-1,2.064934969E-1,5.708427429E-1
1.759987636E1,3.344862163E-1,2.288037539E-1,4.933214188E-1
1.761081173E1,2.306273580E-1,1.781964302E-1,2.531528473E-1
1.762174704E1,1.142159998E-1,1.861431599E-1,-5.284786224E-2
1.763268241E1,-3.302985430E-2,2.591290474E-1,-3.398590088E-1
1.764361777E1,-1.349557936E-1,3.206539154E-1,-4.742164612E-1
1.765455308E1,-1.890431941E-1,3.184764385E-1,-4.611663818E-1
1.766548845E1,-2.496932596E-1,2.881438732E-1,-2.650146484E-1
1.767642381E1,-2.666979730E-1,3.010517359E-1,-3.603267670E-2
1.768735913E1,-2.921394706E-1,3.598562479E-1,1.723632812E-1
1.769829449E1,-3.269631267E-1,3.907140493E-1,2.621593475E-1
1.770922980E1,-2.531288862E-1,3.868055344E-1,3.028287888E-1
1.772016517E1,-2.485423237E-1,3.336397409E-1,3.359661102E-1
1.773110053E1,-2.795637548E-1,2.569524050E-1,4.638347626E-1
1.774203584E1,-2.341293693E-1,2.282701731E-1,6.566143036E-1
1.775297121E1,-1.616087556E-1,2.248055935E-1,8.962774277E-1
1.776390652E1,-7.773786783E-2,2.370095253E-1,1.166143417E0
1.777484189E1,-4.813295603E-2,2.609630823E-1,1.369022369E0
1.778577725E1,-9.897887707E-2,2.245347500E-1,1.473675728E0
1.779671256E1,-1.711845100E-1,1.205799580E-1,1.520525932E0
1.780764793E1,-2.085511386E-1,2.327561378E-2,1.535543442E0
1.781858324E1,-2.290016413E-1,-3.677606583E-3,1.502611160E0
1.782951860E1,-2.124997675E-1,-1.776063442E-2,1.375162125E0
1.784045397E1,-1.882146299E-1,-3.003072739E-2,1.131369591E0
1.785138928E1,-2.293941081E-1,-3.806042671E-2,8.743429184E-1
1.786232465E1,-2.844074965E-1,-4.094541073E-2,5.884284973E-1
1.787325996E1,-2.721666396E-1,-3.640711308E-2,3.488626480E-1
1.788419532E1,-2.624996603E-1,-2.580904961E-2,1.039056778E-1
1.789513064E1,-2.223291993E-1,-1.334190369E-2,-1.083469391E-1
1.790606600E1,-1.333587468E-1,-9.807586670E-3,-2.976284027E-1
1.791700136E1,6.970167160E-3,-6.812214851E-3,-4.020748138E-1
1.792793668E1,1.269631386E-1,3.888249397E-3,-4.535894394E-1
1.793887204E1,2.911187410E-1,-4.981744289E-2,-3.805713654E-1
1.794980741E1,3.842042089E-1,-1.064084768E-1,-1.669750214E-1
1.796074272E1,3.436392546E-1,-1.419320107E-1,5.725479126E-2
1.797167808E1,3.500500917E-1,-1.315243244E-1,2.389469147E-1
1.798261340E1,3.178822994E-1,-8.987474442E-2,3.986606598E-1
1.799354876E1,2.302080989E-1,-5.326378345E-2,4.432916641E-1
1.800448413E1,1.357647777E-1,-4.129409790E-4,3.371562958E-1
1.801541944E1,9.806519747E-2,3.661239147E-2,8.812332153E-2
1.802635480E1,1.615269184E-1,4.240965843E-2,-2.430019379E-1
1.803729017E1,1.644874811E-1,4.630601406E-2,-4.707422256E-1
1.804822548E1,1.212174296E-1,1.316595078E-2,-5.607452393E-1
1.805916084E1,1.385445595E-1,-2.373218536E-2,-5.065250397E-1
1.807009616E1,1.512322426E-1,-9.054994583E-2,-4.148559570E-1
1.808103152E1,1.512866020E-1,-1.426426172E-1,-2.987518311E-1
1.809196683E1,2.501926422E-1,-7.299363613E-2,-1.655960083E-1
1.810290220E1,3.178702593E-1,-4.629349709E-2,-5.461883545E-2
1.811383756E1,2.602648735E-1,-1.188012362E-1,9.516048431E-2
1.812477288E1,5.226966739E-2,-1.298123598E-1,2.656240463E-1
1.813570824E1,-1.164343357E-1,-8.183801174E-2,3.751163483E-1
1.814664360E1,-2.896467447E-1,-2.762484550E-2,3.336639404E-1
1.815757892E1,-3.832821548E-1,7.648289204E-2,1.686182022E-1
1.816851428E1,-4.618312716E-1,1.728395224E-1,-1.582040787E-1
1.817944960E1,-4.877808392E-1,2.000609636E-1,-4.656200409E-1
1.819038496E1,-5.251515508E-1,1.454964876E-1,-7.391500473E-1
1.820132027E1,-4.519528747E-1,3.847885132E-2,-9.584150314E-1
1.821225564E1,-3.260192573E-1,-7.970798016E-2,-1.117431641E0
1.822319100E1,-2.382534146E-1,-9.310567379E-2,-1.143321037E0
1.823412631E1,-1.504761577E-1,-5.564570427E-2,-9.669084549E-1
1.824506168E1,-8.647459745E-2,-3.751540184E-2,-6.131191254E-1
1.825599699E1,-1.570089459E-1,-6.556987762E-2,-1.310291290E-1
1.826693236E1,-2.901181877E-1,-6.864643097E-2,3.541917801E-1
1.827786767E1,-3.151490986E-1,-4.958307743E-2,7.145709991E-1
1.828880303E1,-2.794971466E-1,5.653572083E-2,9.154815674E-1
1.829973840E1,-2.614592314E-1,1.454823017E-1,1.010610580E0
1.831067371E1,-1.614547372E-1,9.974551201E-2,9.999132156E-1
1.832160907E1,-5.952569842E-2,-3.078353405E-2,8.900680542E-1
1.833254444E1,-7.394850254E-3,-9.316539764E-2,6.371860504E-1
1.834347975E1,3.963899612E-2,-9.678542614E-2,2.221479416E-1
1.835441512E1,4.371565580E-2,-6.991040707E-2,-2.140321732E-1
1.836535043E1,-7.313168049E-2,-6.256687641E-2,-5.825767517E-1
1.837628579E1,-2.549647391E-1,-7.785022259E-2,-7.987422943E-1
1.838722111E1,-3.191182911E-1,-8.593165874E-2,-8.019790649E-1
1.839815647E1,-1.990521848E-1,-7.813215256E-2,-6.781845093E-1
1.840909183E1,-2.406221628E-2,-7.283842564E-2,-5.088901520E-1
1.842002715E1,1.087721586E-1,-3.669118881E-2,-2.906837463E-1
1.843096251E1,2.471494675E-1,2.636194229E-2,-3.253936768E-2
1.844189788E1,3.772169352E-1,-2.796530724E-3,1.917505264E-1
1.845283319E1,3.988766670E-1,-7.800233364E-2,4.094161987E-1
1.846376855E1,3.930996060E-1,-1.158094406E-1,5.042066574E-1
1.847470387E1,3.581098318E-1,-1.130434275E-1,4.011449814E-1
1.848563923E1,2.924383283E-1,-7.852363586E-2,1.833505630E-1
1.849657454E1,2.234150171E-1,-5.577802658E-2,-1.582441330E-1
1.850750991E1,2.020843029E-1,-6.407856941E-2,-5.160484314E-1
1.851844527E1,1.845049858E-1,-5.230784416E-2,-8.256521225E-1
1.852938058E1,2.198126316E-1,-2.652359009E-2,-9.878206253E-1
1.854031595E1,2.968440652E-1,-5.700373650E-2,-1.000582695E0
1.855125126E1,3.333988190E-1,-1.184210777E-1,-8.176507950E-1
1.856218663E1,3.194935322E-1,-1.047763824E-1,-4.254388809E-1
1.857312199E1,2.056573033E-1,-5.446290970E-2,1.799583435E-2
1.858405730E1,1.626880169E-1,-6.593799591E-2,4.247293472E-1
1.859499267E1,1.066997647E-1,-2.949643135E-2,6.496095657E-1
1.860592798E1,1.123694777E-1,6.018078327E-2,6.732578278E-1
1.861686335E1,1.408065557E-1,1.337991953E-1,4.890899658E-1
1.862779871E1,1.198690832E-1,1.603343487E-1,2.599124908E-1
1.863873402E1,5.114075541E-2,1.281137466E-1,4.210662842E-2
1.864966939E1,1.307931542E-2,7.987725735E-2,1.829910278E-2
1.866060470E1,5.249086022E-2,1.732468605E-3,1.228609085E-1
1.867154006E1,-3.947031498E-2,9.370660782E-2,3.013458252E-1
1.868247538E1,-7.471358776E-2,1.748391390E-1,6.172971725E-1
1.869341069E1,-3.017535806E-2,1.428463459E-1,9.336032867E-1
1.870434605E1,-1.497600377E-1,1.094433069E-1,1.222336769E0
1.871528142E1,-3.178842068E-1,1.557217836E-1,1.390756607E0
1.872621678E1,-3.472585082E-1,1.809455156E-1,1.298225403E0
1.873715210E1,-2.531767488E-1,2.286117077E-1,9.845323563E-1
1.874808746E1,-1.737128794E-1,2.873855829E-1,6.145305634E-1
1.875902277E1,-2.080025077E-1,2.905598879E-1,2.613601685E-1
1.876995814E1,-1.998132467E-1,2.402523756E-1,2.231597900E-4
1.878089350E1,-1.698497832E-1,1.633834839E-1,-6.447315216E-2
1.879182881E1,-2.380037308E-1,1.845842600E-1,1.171302795E-2
1.880276418E1,-2.842625976E-1,2.721395493E-1,1.481046677E-1
1.881369949E1,-2.680715621E-1,3.201934099E-1,2.386283875E-1
1.882463486E1,-2.843164206E-1,2.984274626E-1,3.146858215E-1
1.883557017E1,-3.450284600E-1,2.373124361E-1,3.327102661E-1
1.884650558E1,-3.332031071E-1,1.648502350E-1,2.303237915E-1
1.885744090E1,-2.512154579E-1,1.528731585E-1,-5.108833313E-2
1.886837621E1,-1.694170833E-1,1.688205004E-1,-3.823289871E-1
1.887931157E1,-2.191629708E-1,8.227384090E-2,-6.478080750E-1
1.889024694E1,-3.205853105E-1,1.993298531E-3,-6.523952484E-1
1.890118225E1,-4.365512133E-1,9.309053421E-4,-5.565385818E-1
1.891211762E1,-4.078640938E-1,5.919051170E-2,-5.089025497E-1
1.892305293E1,-2.937009335E-1,1.509710550E-1,-4.574413300E-1
1.893398829E1,-1.757471859E-1,1.275352240E-1,-3.465414047E-1
1.894492360E1,-1.309018731E-1,-2.244317532E-2,-1.852970123E-1
1.895585897E1,-1.278605461E-1,-1.291728020E-1,-8.050727844E-2
1.897132860E1,-3.042817116E-5,-1.070080996E-1,-1.983346939E-1
1.898226392E1,2.917774022E-1,-6.786108017E-3,-4.664106369E-1
1.899319923E1,2.869617343E-1,-7.120847702E-2,-3.895139694E-1
1.900413465E1,1.986988783E-1,-2.039669752E-1,5.722045898E-3
1.901506996E1,-3.428074718E-2,-3.308140039E-1,6.173734665E-1
1.902600527E1,-3.874064684E-1,-2.942062616E-1,1.154203415E0
1.903694058E1,-6.696871519E-1,-7.296681404E-2,1.202236176E0
1.904787600E1,-5.409084558E-1,1.620737314E-1,6.776256561E-1
1.905881131E1,-1.376948953E-1,1.952464581E-1,1.765499115E-1
1.906974663E1,5.534940958E-2,-4.465830326E-2,-6.429100037E-2
1.908068204E1,-1.521241665E-2,-3.986798525E-1,-5.825138092E-2
1.909161736E1,-2.203807682E-1,-5.253505707E-1,1.097927094E-1
1.910255267E1,-2.434489429E-1,-4.312891960E-1,2.396421432E-1
1.911348798E1,-1.365280747E-1,-2.279797792E-1,3.157958984E-1
1.912442340E1,-9.413492680E-2,-1.013537645E-1,4.705200195E-1
1.913535871E1,-2.871814966E-1,-9.286320210E-2,6.277856827E-1
1.914629402E1,-5.164613724E-1,-2.120004892E-1,7.398433685E-1
1.915722944E1,-5.082844496E-1,-3.236067295E-1,7.176885605E-1
1.916816475E1,-2.647399902E-1,-2.972215414E-1,5.197534561E-1
1.917910006E1,6.982031465E-2,-2.400006056E-1,2.016773224E-1
1.919003538E1,2.581913173E-1,-2.071815729E-1,-2.621364594E-2
1.920097079E1,2.881317735E-1,-2.971333265E-1,-3.937816620E-2
1.921190610E1,1.273249686E-1,-4.184979200E-1,4.721641541E-2
1.922284142E1,-1.115631461E-1,-4.208127260E-1,1.359376907E-1
1.923377673E1,-1.922499239E-1,-2.633091211E-1,1.563262939E-1
1.924471215E1,-1.692395955E-1,-1.301403046E-1,2.944278717E-2
1.925564746E1,-2.084696293E-1,-4.505228996E-2,-1.068897247E-1
1.926658277E1,-1.671578139E-1,-9.344410896E-2,-2.063283920E-1
1.927751819E1,-9.661182761E-2,-1.941155195E-1,-2.557973862E-1
1.930360282E1,1.200124621E-1,-6.890738010E-2,-2.256202698E-1
1.931453819E1,2.022612691E-1,-2.053034306E-2,-3.406867981E-1
1.932547355E1,2.268784046E-1,-3.620266914E-2,-4.566211700E-1
1.933640887E1,2.298245430E-1,-5.179381371E-2,-5.575494766E-1
1.934734423E1,2.104918957E-1,-4.192519188E-2,-5.599641800E-1
1.935827954E1,1.014597118E-1,2.575504780E-2,-5.737104416E-1
1.936921491E1,9.018060565E-2,7.570266724E-2,-6.126585007E-1
1.938015022E1,1.744384468E-1,6.171059608E-2,-6.510162354E-1
1.939108558E1,2.783722281E-1,7.205116749E-2,-6.806306839E-1
1.940202095E1,3.583976030E-1,1.389073133E-1,-6.125764847E-1
1.941295626E1,4.498625994E-1,1.426954269E-1,-3.836593628E-1
1.942389163E1,5.086328983E-1,1.042007208E-1,-9.967803955E-2
1.943482694E1,4.712247252E-1,7.321107388E-2,1.205615997E-1
1.944576236E1,2.785107493E-1,5.724811554E-2,1.836900711E-1
1.945669762E1,-3.899937868E-2,1.656090021E-1,2.075490952E-1
1.946763298E1,-1.465819776E-1,1.827763319E-1,5.166149139E-2
1.947856829E1,-6.525260210E-2,6.317579746E-2,-2.831306458E-1
1.948950366E1,-1.329481602E-3,-1.761364937E-2,-6.686344147E-1
1.950043902E1,-1.090165973E-2,-4.105687141E-3,-9.985103607E-1
1.951137433E1,-1.632065028E-1,2.078711987E-2,-1.005098343E0
1.952230970E1,-3.345279992E-1,1.839876175E-2,-6.083574295E-1
1.953324501E1,-4.879686236E-1,-1.111268997E-3,4.065132141E-2
1.954418038E1,-4.305748940E-1,-3.921854496E-2,6.507558823E-1
1.955511574E1,-4.322596192E-1,5.729150772E-2,9.743547440E-1
1.956605105E1,-5.349440575E-1,1.905683279E-1,1.143688202E0
1.957698642E1,-5.515562892E-1,1.576913595E-1,1.280705452E0
1.958792173E1,-6.628112793E-1,1.066634655E-1,1.393174171E0
1.959885710E1,-8.106096387E-1,8.472335339E-2,1.335353851E0
1.960979241E1,-7.202112675E-1,3.677678108E-2,1.120656013E0
1.962072777E1,-4.358453751E-1,-5.001699924E-2,9.014959335E-1
1.963166308E1,-2.825568616E-1,-4.306685925E-2,9.175405502E-1
1.964259845E1,-3.946402371E-1,-4.245126247E-2,1.182092667E0
1.965353376E1,-4.887585044E-1,-1.548442841E-1,1.548052788E0
1.966446913E1,-3.758184612E-1,-3.573490381E-1,1.912364960E0
1.967540449E1,-8.691322803E-2,-3.684948683E-1,2.172388077E0
1.968633980E1,9.618407488E-2,-1.704109907E-1,2.115115166E0
1.969727517E1,-5.903625488E-2,-1.043931246E-1,1.903306007E0
1.970821048E1,-3.538655937E-1,-2.639057636E-1,1.641653061E0
1.971914584E1,-5.863466263E-1,-5.051517487E-1,1.299177170E0
1.973008116E1,-5.941308737E-1,-5.909265280E-1,9.865999222E-1
1.974101652E1,-4.136331379E-1,-4.878121614E-1,6.807098389E-1
1.975195189E1,-2.714662552E-1,-4.198080301E-1,3.792963028E-1
1.976288720E1,-2.009280473E-1,-5.081845522E-1,1.260986328E-1
1.977382256E1,-1.866635680E-1,-6.250984669E-1,7.675170898E-3
1.978475788E1,-2.047753036E-1,-6.792523861E-1,-8.048915863E-2
1.979569324E1,-1.316770315E-1,-7.443246841E-1,-1.536378860E-1
1.980662860E1,-6.895720959E-2,-7.628499269E-1,-1.981525421E-1
1.981756392E1,3.147056699E-2,-7.232708931E-1,-1.776561737E-1
1.982849928E1,8.082118630E-2,-6.517598629E-1,-2.288436890E-1
1.983943460E1,1.038131118E-1,-6.555246115E-1,-2.493734360E-1
1.985036996E1,1.092911661E-1,-7.263067961E-1,-2.181749344E-1
1.986130527E1,8.681029081E-2,-7.214449644E-1,-2.067365646E-1
1.987224064E1,9.732785821E-2,-6.480119228E-1,-2.598190308E-1
1.988317595E1,4.389098287E-2,-5.931086540E-1,-3.982648849E-1
1.989411131E1,1.394709945E-2,-5.723811388E-1,-5.416908264E-1
1.990504663E1,-4.130136967E-2,-5.628355742E-1,-6.557636261E-1
1.991598199E1,-1.282284260E-1,-5.844768286E-1,-7.665052414E-1
1.992691736E1,-1.262848377E-1,-6.058801413E-1,-8.837432861E-1
1.993785267E1,-6.558758020E-2,-6.031202078E-1,-9.636850357E-1
1.994878803E1,-7.696640491E-2,-5.856722593E-1,-1.074303627E0
1.995972334E1,-1.294619739E-1,-5.977265835E-1,-1.192788124E0
1.997065871E1,-1.468276381E-1,-5.938181877E-1,-1.276439667E0
1.998159402E1,-1.441310048E-1,-5.816437006E-1,-1.344849110E0
1.999252939E1,-1.383247674E-1,-5.677831173E-1,-1.299941063E0
2.000346470E1,-1.394631267E-1,-5.605003834E-1,-1.133339882E0
2.001440006E1,-1.381458044E-1,-5.253376961E-1,-9.118947983E-1
2.002533543E1,-1.084048152E-1,-4.541474581E-1,-6.622219086E-1
2.003627074E1,-1.231599450E-1,-4.214723110E-1,-4.538431168E-1
2.004720605E1,-1.249935627E-1,-4.111099243E-1,-2.282781601E-1
2.005814142E1,-1.597343087E-1,-3.792840242E-1,-1.498413086E-2
2.006907678E1,-2.597144842E-1,-2.809063196E-1,1.652622223E-1
2.008001210E1,-3.269404173E-1,-2.050977945E-1,2.936668396E-1
2.009094746E1,-3.873566985E-1,-1.564395428E-1,3.905801773E-1
2.010188282E1,-5.490539670E-1,-1.379311085E-1,4.657049179E-1
2.011281814E1,-6.720101833E-1,-1.723957062E-1,5.430078506E-1
2.012375345E1,-6.345475316E-1,-1.271075010E-1,6.664676666E-1
2.013468881E1,-5.590528250E-1,-1.250176430E-1,7.297801971E-1
2.014562418E1,-6.112444401E-1,-1.662194729E-1,7.882223129E-1
2.015655949E1,-6.587326527E-1,-1.941688061E-1,8.503980637E-1
2.016749486E1,-7.420301437E-1,-2.652400732E-1,8.895835876E-1
2.017843017E1,-7.967220545E-1,-3.116810322E-1,9.134912491E-1
2.018936553E1,-8.183816075E-1,-3.537660837E-1,9.489316940E-1
2.020030084E1,-8.663715124E-1,-4.004718065E-1,9.816322327E-1
2.021123621E1,-9.029087424E-1,-4.281585217E-1,1.013574600E0
2.022217152E1,-8.643231392E-1,-4.723213911E-1,9.922866821E-1
2.023310689E1,-8.012038469E-1,-5.014822483E-1,9.616327286E-1
2.024404225E1,-6.882644892E-1,-5.188546181E-1,9.652194977E-1
2.025497756E1,-6.331845522E-1,-4.928882122E-1,1.034214020E0
2.026591293E1,-6.003004909E-1,-4.903774261E-1,1.090052605E0
2.027684824E1,-5.532371998E-1,-5.384051800E-1,1.239119530E0
2.028778360E1,-3.798355758E-1,-4.770209789E-1,1.465894699E0
2.029871892E1,-2.884122133E-1,-3.667470217E-1,1.557956696E0
2.030965428E1,-2.832500637E-1,-3.394210339E-1,1.445234299E0
2.032058960E1,-2.967424989E-1,-3.654575348E-1,1.167057037E0
2.033152496E1,-3.023939133E-1,-3.700277805E-1,8.091602325E-1
2.034246027E1,-3.008620143E-1,-3.950738907E-1,4.626541138E-1
2.035339564E1,-2.867496610E-1,-4.305601120E-1,1.325931549E-1
2.036433100E1,-2.541331351E-1,-4.392111301E-1,-4.495620728E-2
2.037526631E1,-2.449274957E-1,-4.135969877E-1,-1.019144058E-1
2.038620168E1,-2.492622882E-1,-4.456392527E-1,-4.581260681E-2
2.039713699E1,-2.369326800E-1,-5.018396378E-1,9.598636627E-2
2.040807236E1,-1.913256943E-1,-5.439965725E-1,2.541894913E-1
2.041900767E1,-1.697451174E-1,-5.506880283E-1,3.498535156E-1
2.042994303E1,-1.452552676E-1,-5.570805073E-1,4.052457809E-1
2.044087834E1,-1.386432350E-1,-5.723768473E-1,3.525714874E-1
2.045181371E1,-1.598253548E-1,-6.339808702E-1,1.947526932E-1
2.046274907E1,-1.720175147E-1,-6.997299194E-1,-3.952312469E-2
2.047368439E1,-2.473436594E-1,-7.124648094E-1,-2.769393921E-1
2.048461970E1,-2.802284360E-1,-6.819939613E-1,-5.312061310E-1
2.049555506E1,-2.129186988E-1,-6.903978586E-1,-7.329626083E-1
2.050649043E1,-1.880807281E-1,-7.743712664E-1,-8.578271866E-1
2.051742574E1,-1.686832607E-1,-8.468611240E-1,-8.649873734E-1
2.052836111E1,-1.726113558E-1,-8.371800184E-1,-7.938280106E-1
2.053929642E1,-2.013596892E-1,-8.468188047E-1,-7.168674469E-1
2.055023178E1,-1.760537624E-1,-8.815101385E-1,-6.355781555E-1
2.056116710E1,-2.664586902E-1,-9.101343155E-1,-5.476007462E-1
2.057210246E1,-4.482189417E-1,-9.099993706E-1,-5.540065765E-1
2.058303777E1,-5.833749175E-1,-9.080314636E-1,-6.394729614E-1
2.059397314E1,-5.495806336E-1,-9.061512947E-1,-7.402076721E-1
2.060490845E1,-5.372953415E-1,-8.478806019E-1,-8.174791336E-1
2.061584381E1,-4.947874546E-1,-8.153866529E-1,-8.269166946E-1
2.062677918E1,-4.274960160E-1,-7.755924463E-1,-7.365665436E-1
2.063771449E1,-3.875985742E-1,-6.978950500E-1,-5.476446152E-1
2.064864986E1,-3.567475080E-1,-5.881496668E-1,-2.543802261E-1
2.065958517E1,-3.896412551E-1,-5.274741650E-1,8.798503876E-2
2.067052053E1,-3.874045610E-1,-5.258268118E-1,4.388036728E-1
2.068145585E1,-3.480415344E-1,-4.746712446E-1,7.587671280E-1
2.069239121E1,-4.027260840E-1,-4.094250202E-1,9.951238632E-1
2.070332652E1,-4.110524654E-1,-3.068407774E-1,1.116921425E0
2.071426189E1,-3.745067716E-1,-2.467566729E-1,1.202652931E0
2.072519720E1,-4.079943895E-1,-2.215830088E-1,1.171967506E0
2.073613256E1,-3.567397892E-1,-2.113511562E-1,1.110781670E0
2.074706793E1,-3.819841743E-1,-2.098460197E-1,9.758434296E-1
2.075800324E1,-3.765241504E-1,-2.303768396E-1,8.099107742E-1
2.076893861E1,-2.635206878E-1,-3.256863356E-1,6.594095230E-1
2.077987392E1,-2.153289318E-1,-3.888164759E-1,5.965547562E-1
2.079080928E1,-2.157312781E-1,-4.502574205E-1,5.848264694E-1
2.080174460E1,-1.381348372E-1,-4.535355568E-1,6.310873032E-1
2.081267996E1,-3.071248531E-2,-4.028455019E-1,7.260112762E-1
2.082361527E1,-5.318805575E-2,-3.726923466E-1,7.867059708E-1
2.083455064E1,-1.659873128E-1,-3.704657555E-1,7.912034988E-1
2.084548595E1,-2.626454830E-1,-3.722951412E-1,7.506666183E-1
2.085642131E1,-3.110524416E-1,-4.062961340E-1,7.068920135E-1
2.086735663E1,-4.287349284E-1,-4.706860781E-1,7.383098602E-1
2.087829199E1,-6.144759655E-1,-5.623219013E-1,7.831401825E-1
2.088922736E1,-7.794705629E-1,-6.311873198E-1,7.484321594E-1
2.090016267E1,-8.354450464E-1,-5.872478485E-1,6.481676102E-1
2.091109803E1,-7.952375412E-1,-5.095829964E-1,4.270982742E-1
2.092203335E1,-7.954287529E-1,-4.807146788E-1,1.156492233E-1
2.093296871E1,-8.326000571E-1,-4.951628447E-1,-1.078186035E-1
2.094390402E1,-8.428472877E-1,-5.106879473E-1,-2.659368515E-1
2.095483939E1,-8.191967607E-1,-5.481650829E-1,-3.774175644E-1
2.096577470E1,-7.392920256E-1,-6.139619350E-1,-4.646282196E-1
2.097671006E1,-6.320506334E-1,-6.581341028E-1,-4.637603760E-1
2.098764538E1,-4.497485459E-1,-6.733207703E-1,-4.122343063E-1
2.099858074E1,-2.922896743E-1,-6.390874386E-1,-2.650213242E-1
2.100951605E1,-1.936428249E-1,-6.216117144E-1,-1.365976334E-1
2.102045142E1,-1.253809035E-1,-6.532398462E-1,-8.197784424E-2
2.103138673E1,-1.027923226E-1,-6.581671238E-1,-1.084594727E-1
2.104232210E1,-1.091338992E-1,-6.230891943E-1,-1.796379089E-1
2.105325741E1,-1.266671717E-1,-5.681499243E-1,-2.985572815E-1
2.106419277E1,-1.592068076E-1,-5.193769932E-1,-3.947668076E-1
2.107512808E1,-2.069874704E-1,-4.789991379E-1,-4.713087082E-1
2.108606345E1,-2.583208680E-1,-4.113008976E-1,-5.061569214E-1
2.109699881E1,-3.150997162E-1,-3.561644554E-1,-5.040426254E-1
2.110793413E1,-3.708545566E-1,-3.402791023E-1,-5.108757019E-1
2.111886949E1,-3.284694552E-1,-3.462355137E-1,-4.435825348E-1
2.112980480E1,-3.246466517E-1,-3.449336290E-1,-2.948274612E-1
2.114074017E1,-3.720566630E-1,-3.036082983E-1,-8.402442932E-2
2.115167548E1,-4.310113192E-1,-2.525964975E-1,1.662702560E-1
2.116261084E1,-4.463338852E-1,-2.387945652E-1,4.431495667E-1
2.117354616E1,-4.869001806E-1,-2.199337482E-1,7.126874924E-1
2.118448152E1,-5.461266041E-1,-1.895382404E-1,9.086284637E-1
2.119541683E1,-6.019379497E-1,-1.245559454E-1,1.031706810E0
2.120635220E1,-6.090731621E-1,-1.671094894E-1,1.083569527E0
2.121728751E1,-5.716838837E-1,-1.765568256E-1,1.061874390E0
2.122822288E1,-5.631554723E-1,-1.829358339E-1,9.283590317E-1
2.123915814E1,-4.796674848E-1,-1.805195808E-1,7.223443985E-1
2.125009355E1,-3.414025605E-1,-2.444516420E-1,3.627290726E-1
2.126102886E1,-1.903946549E-1,-3.511128426E-1,-6.486892700E-2
2.127196423E1,-5.851653218E-2,-4.637882710E-1,-4.377679825E-1
2.128289954E1,-2.308312058E-2,-5.155823231E-1,-7.068920135E-1
2.129383491E1,-3.772661090E-2,-5.124746561E-1,-8.369865417E-1
2.130477022E1,4.287660122E-3,-5.578725338E-1,-8.718509674E-1
2.131570558E1,5.413043499E-2,-6.683700085E-1,-8.352546692E-1
2.132664095E1,-5.995701253E-2,-7.409536839E-1,-7.298460007E-1
2.133757626E1,-1.942317486E-1,-6.907426119E-1,-5.005502701E-1
2.134851157E1,-1.883417070E-1,-6.178611517E-1,-2.018480301E-1
2.135944694E1,-1.182369143E-1,-5.697706938E-1,1.180124283E-1
2.137038225E1,-4.049220681E-2,-5.247482061E-1,4.120016098E-1
2.138131762E1,-1.131129265E-1,-3.327522278E-1,6.215248108E-1
2.139225298E1,-2.026157975E-1,-1.224323511E-1,7.378015518E-1
2.140318829E1,-2.014941126E-1,2.576243877E-2,7.530136108E-1
2.141412366E1,-1.509853601E-1,3.728532791E-2,7.402935028E-1
2.142505897E1,-9.983552247E-2,4.704558849E-2,7.749223709E-1
2.143599433E1,-1.555819660E-1,1.778088808E-1,9.023704529E-1
2.144692965E1,-2.281582952E-1,2.972658873E-1,1.063363075E0
2.145786496E1,-3.193852305E-1,2.444497347E-1,1.098737717E0
2.146880032E1,-3.154406548E-1,1.241875887E-1,1.049318314E0
2.147973569E1,-1.804517657E-1,-1.256365776E-1,9.384622574E-1
2.149067100E1,-3.067727685E-1,-5.584537983E-2,8.095235825E-1
2.150160636E1,-3.583684564E-1,-1.760990620E-1,6.738281250E-1
2.151254168E1,-4.341675639E-1,-2.493721247E-1,4.038829803E-1
2.152347704E1,-3.585547209E-3,-4.978736639E-1,2.857465744E-1
2.153441230E1,1.945092082E-1,-5.701680183E-1,-9.561729431E-2
2.154534772E1,3.995588422E-2,-4.782241583E-1,-4.498176575E-1
2.155628303E1,-1.698245704E-1,-4.564882517E-1,-6.156044006E-1
2.156721840E1,-2.551767826E-1,-4.849734306E-1,-6.676712036E-1
2.157815371E1,-1.908376515E-1,-4.917889833E-1,-5.955324173E-1
2.158908907E1,-1.643484831E-2,-4.429385662E-1,-5.596628189E-1
2.160002439E1,6.140044332E-2,-3.231264353E-1,-4.318809509E-1
2.161095975E1,1.243053377E-2,-2.577179670E-1,-2.875833511E-1
2.162189506E1,-1.222902089E-1,-1.843581200E-1,-1.398410797E-1
2.163283043E1,-2.468982935E-1,-1.256877184E-1,3.961849213E-2
2.164376579E1,-1.798012406E-1,-1.318764687E-1,1.525897980E-1
2.165470110E1,-2.235394716E-2,-9.893476963E-2,1.238260269E-1
2.166563642E1,3.325350583E-2,-6.429028511E-2,5.459022522E-2
2.167657178E1,4.052171111E-2,-9.290719032E-2,8.537292480E-3
2.168750715E1,7.909753919E-2,-1.179150343E-1,-3.374576569E-2
