Time_interval,Time,Acceleration_x,Acceleration_y,Acceleration_z
0,0.24557029184,-2.61190950878,1.880375742322,8.43680547694
1,0.745545221,-0.8620861541702,-0.59289360287,9.51630349146
2,1.245545221,-0.19142580372220003,1.1468799008041999,9.165850754220001
3,1.745345221,0.4461178523276,1.756810381314,9.76735849386
4,2.245545221,-0.44740997767339996,1.8501783300599999,9.45054878182
5,2.745545221,0.10293922284899999,1.4073147005359998,9.74390876786
6,3.245545221,-0.7215317352806,1.674257999636,9.2028915215
7,3.745545221,-0.9001798830856,2.2120688271,9.19322456354
8,4.2455452209999995,0.34293934111790003,2.17301794754,9.59756374418
9,4.7455452209999995,-0.4217589202264,2.1080288959,9.61134641668
10,5.2455452209999995,-0.07728817298764001,2.10123327252,9.45758362716
11,5.7455452209999995,-0.5588676614804,2.54074693448,9.16795635232
12,6.2455452209999995,-1.308251862526,2.70441600802,9.162309331400001
13,6.745345221,-1.3755380079,2.747295382,9.2785526275
14,7.2455452209999995,-3.94327602854,1.640375615384,8.8269312189
15,7.7455452209999995,-2.191873395504,1.6210416411128798,9.00596234334
16,8.245545221,-3.40187592986,0.25899912033059996,9.61546210318
17,8.745545221,-0.3584448317326,1.917990915522,9.15307312012
18,9.245345221000001,-0.6976992234066001,2.070987998276,9.07334412582
19,9.745545221,-2.4040210509,-0.26081766673400003,9.55344018932
20,10.245545219999999,-1.4279408383980001,0.007034893838999999,9.7846825118
21,10.745545219999999,-0.925735221538,1.5407384911700002,9.39292952584
22,11.245545219999999,1.0387243178406,2.3874627256400003,9.56813201934
23,11.745545219999999,0.15256636789911998,2.53419061188,9.04290752406
24,12.24514522,-0.07575675889019999,1.3961641464402001,9.72591480278
25,12.745545219999999,-0.029383865734800008,0.84059859000796,9.557938737759999
26,13.245545219999999,-0.68291158172,0.260530528366,10.1616956613
27,13.745545219999999,-0.043597229656800005,0.9950792241381999,9.21289367688
28,14.245545219999999,-0.6405586285536,0.5156054201574,9.78731456772
29,14.745545219999999,-0.33408590054680004,0.602704164226,9.69624377252
30,15.245545219999999,-1.3719487879690002,0.20506490550652,9.82966752114
31,15.745545219999999,0.318915398308,0.4575076932508,9.52558764502
32,16.24554522,-0.98904931681,0.39869210495220003,9.44284391448
33,16.74534522,-0.3529413422214,0.7971927914139999,9.57085980404
34,17.24554522,-0.7165068009372,0.8048019790032,9.29046894142
35,17.74554522,-0.8381100600216,0.2980021369614,9.76544419348
36,18.24554522,-0.3584448373227,1.00924473463308,9.59665444416
37,18.74554522,-1.1714302541452,0.5773402465828,9.6589635558
38,19.24554522,-0.619358212274,0.788578621947,9.61885981594
39,19.750153063137255,-1.253135284980392,0.43488378267705885,9.411112242607842
40,20.25054522,-0.14962466509244898,0.6840054484691428,9.667443002346939
41,20.74554522,-1.5028361737879998,0.5681996624619999,9.4598807239
42,21.24554522,-0.40979479751565995,1.111274699894,9.08281978574
43,21.745145219999998,-0.9000363060244,0.7938906943376,9.77937043164
44,22.24554522,-0.6483113624060001,0.2415315135131,9.91781914754
45,22.74534522,-1.319450269676,0.4895714981082,9.40422370902
46,23.24554522,-1.0202517271078,0.19147366374400002,9.7775040249
47,23.74554522,-0.5670032584354,0.7480442182868,9.20700723624
48,24.24554522,-1.1071111838274,0.0842752150191,10.0148241522
49,24.74554522,-0.6144290003874,0.48363731908286,9.49026955584
50,25.245145219999998,-2.057731759478,0.3627519156046,9.03491547566
51,25.74554522,-1.1263016160971,0.42147177590324,9.68796461088
52,26.24554522,-2.01872874504,0.545419986817,9.29870022806
53,26.745145219999998,-1.2418988641820001,-0.06742974540326,9.2647341442
54,27.24554522,-1.5879728152824,0.7963792360772,9.8413923832
55,27.74554522,-1.5502619450194002,0.6420900335276,9.2175835132
56,28.24554522,-1.160806123616,0.8154739570056,9.63259468094
57,28.74534522,-1.67133876679,0.6887979289170001,9.84105739542
58,29.250349141568627,-0.8172662356965295,1.160378222345098,9.175114229509804
59,29.75054522,-2.0145124878163267,0.9027289772752041,9.336256815857142
60,30.24554522,-0.8834779685899999,0.8386364859159999,9.65518293352
61,30.74534522,-1.612618883888,1.426313713278,9.54425167024
62,31.24534522,-1.8209858706020001,1.4486626779740002,9.049894466440001
63,31.74554522,-1.607402544546,0.50756554051268,10.0686148455
64,32.24554522,-1.3732887732899999,0.9080283384006,9.22059842132
65,32.74554522,-1.88597495086,1.051454130752,9.32047494884
66,33.24554522,-0.6038048631121999,1.1972248840320001,9.92260480878
67,33.74554522,-2.391769794258,1.07935443793946,8.9827518945
68,34.24554522,-2.92096646546,0.6332365933688,9.38742601386
69,34.74534522,-2.360471674112,1.0065647672718,9.110959405900001
70,35.24514522,-1.745803394358,1.0784930336579999,9.49816591232
71,35.74534522,-3.09348897936,0.6797052013920001,9.431884784840001
72,36.24554522,-2.3641566372,0.6376393729259999,9.156279296940001
73,36.74534522,-2.343578363668,0.281060945463,9.68475824364
74,37.24534522,-1.427940834706,0.6245267064642,9.31631143558
75,37.74554522,-2.701018186872,1.1891371434666,10.45094013298
76,38.24554522,-2.4905933760920003,2.3366391634620003,9.21868436896
77,38.74534522,-2.24949258564,1.2063654732340001,8.97844491008
78,39.24554522,-1.512742484742,1.3078211582816,10.06483422238
79,39.74554522,-2.0058075094139998,1.0263294890048,9.23217974676
80,40.24534522,-0.439657227416,1.135059344782,9.58296759664
81,40.74534522,-1.882768571336,1.3222259306839999,9.35536231076
82,41.245545220000004,-1.195454200496,1.090265710386,9.4685906125
83,41.745545220000004,-1.95206471906,1.121611696514,10.261859188379999
84,42.245545220000004,-2.400001123074,1.6039090076392,9.155705165439999
85,42.745545220000004,-2.66890653366,1.0066126415468,9.19174105648
86,43.245545220000004,-2.894597555472,1.212969643416,9.5000323302
87,43.745545220000004,-1.794808396188,0.86845105054,9.2994180202
88,44.245545220000004,-1.767625932562,0.8990791835405,9.618381367440001
89,44.745545220000004,-1.964794506456,0.5637490142371999,9.64044311492
90,45.245545220000004,-0.801643438934,1.03173726917,9.2661578176
91,45.745545220000004,-2.39114764692,0.903864828235,9.60340230018
92,46.245545220000004,0.5316851921866,0.4775116831796,9.25974509276
93,46.745545220000004,-0.4189832444702,2.22451150175,9.331960458800001
94,47.245545220000004,-1.3093046965033,1.030349431928,9.694329547339999
95,47.745545220000004,-1.150421273076,0.39275790918959996,9.3152107142
96,48.245545220000004,-1.65521112638488,0.822556711288,9.73041325566
97,48.745545220000004,-0.9607182935612001,0.5871986766298,9.47797054294
98,49.245545220000004,-1.0604032921034001,0.667645370978,9.90791290314
99,49.745545220000004,-1.1631032258579999,0.9178389060880001,9.22284778562
100,50.245545220000004,-1.15305337615,0.9926864047387,9.82564758342
101,50.745545220000004,-1.137452173228,0.6890372086193599,9.4170491887
102,51.245545220000004,-0.52752168014406,1.074855933804,9.409870786239999
103,51.745545220000004,-0.3705046575538,1.776192248436,9.68413606614
104,52.245545220000004,0.28551159639532,3.4644243335800002,8.64866599108
105,52.745545220000004,-0.09705288822,2.37066511392,9.3928337859
106,53.245545220000004,-0.26560331692968,1.1373085987326,9.971944799120001
107,53.74534522,-0.567194678785,0.8127461373366001,9.4720362465
108,54.245545220000004,-0.737420091075,0.7541698431552,10.0599529072
109,54.745545220000004,-0.4916771951268,1.274991629744,9.10990654016
110,55.245545220000004,-0.6642475622178,1.204116214566,9.61689775474
111,55.745545220000004,-0.788243635888,1.037145046958,9.74917312638
112,56.245545220000004,-0.7132047193642,1.255179045804,9.1178027533
113,56.745545220000004,-1.039155011792,0.8958727935417999,9.682604637199999
114,57.24534522,-0.8427042858694,0.803222695006,9.6063215063
115,57.745545220000004,-1.0230273930612,0.962680409522,9.8211491964
116,58.24534522,-0.972873833786,1.17128669439,9.7042357541
117,58.74534522,-0.955693365342,0.8377272026814001,9.060231608919999
118,59.245545220000004,-0.820881731538,0.8035098505886,9.70591079678
119,59.745545220000004,-0.662046167262,0.7743174155622,9.54602232982
120,60.24534522,-0.741440020194,0.25368705498440003,9.90657287622
121,60.74534522,-1.013934659012,0.43769512107520003,9.58435543034
122,61.245545220000004,-0.7460821032982,0.8428957094194,9.68528459528
123,61.745545220000004,-0.6757809707779999,-0.0298624260553,9.85450512886
124,62.245545220000004,-0.7725945744500601,0.6274459535,9.323824939460001
125,62.74534522,-1.39515915642,0.15318850649093999,9.62249700528
126,63.24534522,-0.5915057605464,0.9237731142998,10.06057504662
127,63.745545220000004,0.26129623440780003,1.221583797828,9.25759152482
128,64.24554522,0.5275695318714,2.88569625854,9.31707710282
129,64.74554522,1.29772343394,3.26907430648,8.97676982876
130,65.24554522,0.9149675262,3.48490687376,9.006105785339999
131,65.74514522,0.60662839233,3.1122008324,8.94092544556
132,66.24534522,0.2867080099916,2.08831204168,9.60632148778
133,66.74554522,0.1117448186028,1.41640743246,9.560762215019999
134,67.24554522,-0.2780459930231,1.2721202398,9.71485996214
135,67.74554522,-0.8928099834425,1.601468334186,9.39627943942
136,68.24534522,-0.19917855645446,1.135633626532,9.62589469942
137,68.74554522,0.020338990906399998,0.8471549244558,9.62503330152
138,69.24554522,-0.2143490527198,0.56054263531,9.88058685312
139,69.74554522,-0.532690175178,0.8208338892279999,9.54879798884
140,70.24554522,-0.799777036338,1.172578808062,9.5595178986
141,70.74554522,-0.16113267546204,0.947988474332,9.49663444518
142,71.24534522,-0.13179667114748,0.860411167156,9.74649305356
143,71.74554522,-0.44784067989383997,0.906688356388,9.60301933306
144,72.24554522,-0.3943850290998,1.13826573668,9.37728054062
145,72.74554522,-0.578536653818,0.714401125016,9.56009216328
146,73.24534522,-0.8012605893600001,0.1400758373579,9.78587879174
147,73.74534522,-0.818728199006,-0.03101098126678,9.70528865812
148,74.24554522,-0.855434094662,0.30417561333888,9.6502537536
149,74.74554522,-0.646397108426,0.667310383316,9.57330057148
150,75.24554522,-0.340355093178,0.524267440432,9.56004430782
151,75.74554522,-0.466504704946,0.5893043583540001,9.72199049004
152,76.24554522,-0.754265554532,0.70602624355,9.56722278594
153,76.74534522,-0.56212190036864,0.452291338438,9.7256755066
154,77.24554522,0.24258435821844,0.11408978400106001,9.62890979764
155,77.74554522,-0.030723844084,0.15242280341699999,9.6440801809
156,78.24554522,-0.754409132014,0.679896626178,9.75683008212
157,78.74534522,-0.761491873866,0.826480941172,9.6311112023
158,79.24554522,-3.0038538765688,2.0992711799559998,8.975956268400001
159,79.74554522,2.010593160978,3.85919224268,8.08022713646
160,80.24554522,2.40234605316,3.1952318334379997,9.04252470046
161,80.75034914156863,2.8951746271176466,2.977609732509804,8.824120054019607
162,81.25054521999999,3.000111263693878,3.045086558918367,8.725061475040818
163,81.74554522,2.7982625150400002,3.15962656504,8.737009048380001
164,82.24554522,2.5929583430600003,3.14172828198,8.75624719618
165,82.74554522,3.81980636126,2.7792156410400004,8.438624105479999
166,83.24534522,4.08875963682,2.9118258523600002,8.29309267038
167,83.74554522,4.4608913756,3.0326155566199997,8.0129887391
168,84.24554522,4.29502094752,3.06783792494,8.1227714538
169,84.74554522,4.64762727736,2.4382862759,8.1900097847
170,85.24554522,4.4298804379,2.2315942574,8.34578259472
171,85.74554522,4.48960524552,2.3749721765,8.28787635792
172,86.24514522,4.52688543326,2.48126136304,8.25686527248
173,86.74514522,4.80273004534,2.60176391596,8.00437458042
174,87.24474522,4.73252468112,2.8760292291000003,8.01011741638
175,87.74554522,4.917776928,2.9055088044,7.90162673952
176,88.24554522,4.8848517322200005,2.94953676706,7.8552538586
177,88.74554522,5.0396673394,2.91407512668,7.8229029178
178,89.24554522,5.09140013702,2.9652815294800003,7.773419389760001
179,89.74554522,5.133418130799999,3.1060273361600004,7.62209721552
180,90.24554522,5.16457271578,3.13201342578,7.61702443112
181,90.74534522,5.157442054680001,3.14421679976,7.63109428398
182,91.24554522,5.13174314502,3.2166714811,7.59591980942
183,91.74554522,5.2627263069,3.18546909326,7.5047053909
184,92.24554522,5.0997271538,3.20375025268,7.67861572268
185,92.74554522,5.1556235599399995,3.1724999666,7.605921764360001
186,93.24554522,5.2018049908,3.2214571475600002,7.56486095414
187,93.74534522,5.096520824500001,3.27969844818,7.605347480839999
188,94.24554522,5.25693557734,3.18690475928,7.517530889460001
189,94.74554522,5.12777111052,3.22380207546,7.63822486874
190,95.24554522,5.1829017543199996,3.2212656975,7.557730331499999
191,95.74554522,5.16897549628,3.26242224202,7.568497991619999
192,96.24554522,5.15945205678,3.2525638197199997,7.57132153518
193,96.74554522,5.1700283432,3.2504102897,7.546340456
194,97.24554522,5.17189473152,3.2639536618,7.55595964432
195,97.74554522,5.22712106704,3.3682328796600003,7.47795356748
196,98.24554522,5.24425367358,3.3856526232200004,7.4548389339000005
197,98.74554522,5.275216808300001,3.39077325816,7.44990973474
198,99.24554522,5.239420185059999,3.30109029296,7.50571038246
199,99.74554522,5.24099944126,3.3186057377600005,7.476039323799999
200,100.2455452,5.38011817926,3.5122329521199998,7.298396234519999
201,100.7455452,5.3191011715,3.5475988483000003,7.315337314580001
202,101.2455452,5.07474617004,3.3867054748200003,7.61467948918
203,101.7455452,5.32785887716,3.2466774796999998,7.4480912112199995
204,102.2455452,5.5052627658799995,3.3869447470400003,7.2748508167
205,102.7455452,5.53785301212,3.52979625704,7.2022525786200005
206,103.2455452,5.48827369684,3.69073751448,7.138794937059999
207,103.7455452,5.45826770784,3.7358661223,7.14123563762
208,104.2455452,5.4996635627399995,3.68901467804,7.1361149502800005
209,104.7455452,5.60891982086,3.61014725208,7.08830636026
210,105.24534519999999,5.612748298640001,3.61225293632,7.09443198212
211,105.7455452,5.48827373502,3.69269963268,7.1511419296200005
212,106.2455452,5.43936441414,3.69179038532,7.2058418178600006
213,106.7455452,5.65787706376,3.6136886118600002,7.059448928839999
214,107.2455452,5.7444014358599995,3.6667614269400004,6.95186764724
215,107.7455452,5.73210230826,3.7855890035599997,6.90559043876
216,108.2455452,5.7528720283200006,3.8341633033199995,6.81753455166
217,108.7455452,5.36930256848,3.6708292103000004,7.1956962872
218,109.2455452,6.343420696219999,3.69920808794,6.53326722138
219,109.7455452,6.50886043548,3.4872039938199997,6.5573390104
220,110.2455452,6.83289646154,4.36513061532,6.2573747874
221,110.7455452,6.58471292014,3.5224742125799997,6.02359597672
222,111.2455452,7.068302345319999,2.6744100291299997,5.08948591234
223,111.7455452,6.04269079216,3.8896289252200003,7.37735934258
224,112.24534519999999,5.671898946620001,3.00887876268,7.718527946399999
225,112.7455452,6.332987957059999,3.47830272196,6.22947446818
226,113.2455452,6.2781923437,3.616416437596,5.6758231255650005
227,113.7455452,6.27508173226,3.8754155445319998,6.63151654256
228,114.2455452,6.2127726460199995,2.931829867412,8.32046653798
229,114.7455452,5.4282617139800005,3.47490493312,7.08495646466
230,115.2455452,5.36226767185,3.6214413929,7.219528713260001
231,115.7455452,5.183906669540001,4.2439102363400005,7.58811915398
232,116.2455452,4.52291332254,3.8445002986000003,7.551509008519999
233,116.7455452,4.17207769868,3.5678421258600004,7.7445141079
234,117.2455452,5.250522856700001,3.2945339441200003,7.09950479504
235,117.7455452,4.34187245602,2.7965875740861996,8.1690008456
236,118.2455452,5.1321260261,3.8273198223200002,7.780645656419999
237,118.7455452,4.96864840974,3.815116398302,7.182392221492
238,119.2455452,5.4728161001,4.64667014594,5.68295372018
239,119.7455452,5.388158059119999,4.573354072036,6.562507492268001
240,120.2455452,4.78234319678,3.44939742562,7.91617510808
241,120.7455452,4.16341571096,3.530274829914,7.85166461474
242,121.24534519999999,4.23744959824,3.55726588008,7.749204006239999
243,121.7455452,4.3913080979,3.8958981085,7.49575621598
244,122.24534519999999,4.60479572768,3.41661574364,7.791748332979999
245,122.74534519999999,4.95481786252,4.5544507646,6.53470290634
246,123.2455452,4.6386302853400005,4.098522353294,6.92425445312
247,123.7455452,3.90719223498,4.20380655288,7.52183799748
248,124.24534519999999,3.35856586928,3.63388401034,8.22805564846
249,124.74534519999999,3.0487910746799995,3.443176109806,8.713415794380001
250,125.2455452,2.5887948069594002,3.12162856822,8.83832114178
251,125.7455452,1.1845429273527999,0.4904329278776,9.73907528896
252,126.24534519999999,-1.0210652762399999,-1.4434941816778,8.99002603554
253,126.7455452,-1.252211946548,-1.559976798266,9.54669231428
254,127.2455452,-2.91077303404,-1.141089259402,9.387282448
255,127.74534519999999,-0.40553558329940004,-0.578632374239,9.302337360200001
256,128.2455452,-1.65889610056,-0.500004222442,10.04181529934
257,128.7455452,-0.3552863001614,-0.07791030376000001,9.234811754319999
258,129.2455452,-1.15439334808624,-0.1465843185371,9.92901758178
259,129.7455452,-0.24440290743200002,-0.08173882433692001,9.32487773914
260,130.2455452,-1.59888409526,-0.26512475118199996,9.6175199318
261,130.7455452,-0.498520666085,-0.32303105491252,9.72452695852
262,131.2455452,-1.279585845406,-0.3924707699524,9.70217800142
263,131.7455452,-0.24330220796560004,0.04268795542216001,9.5941181563
264,132.2455452,-1.0256116499005998,-0.0096191468442,9.535302467080001
265,132.7455452,-0.6810930390275,-0.10858629674715999,9.73850105284
266,133.2455452,-1.4433506250919999,-0.24957140193004002,9.44686385138
267,133.7455452,-0.63261445223214,-0.129116713629,9.56990278238
268,134.2455452,-1.323374491982,-0.209563403201,9.755155067319999
269,134.7453452,-0.4951707113586,0.06948756955259999,9.57918687876
270,135.2455452,-1.076052341462,-0.018855440940600005,9.69385093728
271,135.7455452,-0.2755095953924,0.3824687702264,9.493858833880001
272,136.2455452,-1.048104187256,0.694349270511,10.1270954614
273,136.7455452,0.10758130180343999,1.0745687961980002,9.38752178194
274,137.2453452,-0.8064769396197999,0.9252566582180001,9.71471632068
275,137.7455452,0.11495120126507999,0.61505113408512,9.71457281126
276,138.2455452,-0.90396054273,0.42367317675776,9.43427752506
277,138.7455452,0.0106719884449,0.43176091675340006,9.70337439542
278,139.2455452,-1.1100782799859998,0.44061436025379996,9.61665849696
279,139.7455452,-0.5120161925176,0.6340979989426,9.70897352188
280,140.2455452,-1.239386416662,0.6350072732544,9.72189483636
281,140.7455452,-0.3154218816564,0.7892486153458,9.76731061938
282,141.2453452,-1.3265330267,0.63711296240716,9.21557353032
283,141.7455452,-0.894772105224,0.2813959398106,9.848092298540001
284,142.2453452,-1.5634224588180001,-0.1449093385872,9.85172937424
285,142.7455452,-0.5746124210459,0.5235974480162,9.29444105154
286,143.2453452,-1.375298736046,0.2415315149177,10.07679837218
287,143.7455452,-0.5421657541743999,0.7802516150312,9.323059158260001
288,144.2455452,-1.694453412372,0.2262174538836,9.71012215604
289,144.7455452,-0.6410371910348001,0.5206782123718,9.61852478898
290,145.2455452,-1.477376556332,0.25785056863944,9.86211430528
291,145.7455452,-0.7678567841570999,0.44008794770759996,9.59072031036
292,146.2455452,-0.5233581698378,0.969188880932,9.4849576184
293,146.7455452,-0.14735001608759998,0.4342015991994,9.78228965706
294,147.2455452,-1.06490179041224,0.4264967077178,9.53688180934
295,147.7455452,-0.09662218067206,0.5987320813734001,9.4152305889
296,148.2455452,-1.615250992548,0.2632104913444,9.51620784808
297,148.7455452,-0.44918066211979996,-0.1551506196648,9.66819991138
298,149.2455452,-1.3606068096618,-0.03938586149364,9.8282797237
299,149.7455452,-0.5702096386066,0.6979385098180001,9.551860828799999
300,150.2455452,-1.0893085789176,0.4035734656916,10.06555200568
301,150.7455452,-1.17315309287,1.7110596084860001,9.2019344806
302,151.2455452,-0.6979863688000001,2.5045195985,8.99213172912
303,151.7455452,-1.0387243068912,1.0485827338698,9.76448703776
304,152.2455452,-0.7868557980072001,-0.01584048584728,9.81928270322
305,152.7453452,-1.182389380457,0.3149911693368,9.43614398946
306,153.2455452,-0.757424082095,0.49048078522419997,9.63551395446
307,153.7455452,-1.674592996826,0.2090848404414,9.639581699919999
308,154.2455452,-0.3707439480278001,-0.0966700348062,9.6710233021
309,154.7455452,-1.565432431732,0.014021940557600001,9.90781719208
310,155.2453452,-0.3020220776422,0.19401006639639998,9.63446106916
311,155.7455452,-1.5491612273179998,0.23899512773019999,9.531043310600001
312,156.2455452,-0.10246066414659999,0.6983692057912001,9.4503094197
313,156.7455452,-1.4185131188428,0.4691368071182,9.53602037452
314,157.2455452,-0.9433942457218,0.390700085069,9.571481972359999
315,157.7455452,-1.3375399916364001,1.2006705537406,8.9750948427
316,158.2455452,-1.097444175143,0.6841079940456,9.80310719468
317,158.7453452,-1.01977316102264,0.23205593595206,10.01066065824
318,159.2455452,-0.6923871667010001,0.57375101999,9.39465241438
319,159.7451452,-0.7657989491799999,0.41424545802472,9.63848106398
320,160.2453452,-1.148459156934,0.4766502693758,9.36613000884
321,160.7453452,-0.8796973092313999,0.5972485366358,9.76190279966
322,161.2455452,-1.532220051928,0.62682382234484,9.78788883222
323,161.7455452,-0.6770730944938,0.6584090798808,9.56348991382
324,162.2455452,-1.717328817796,0.4099862292766,9.55755587574
325,162.7455452,-0.04599005283408,0.6064369730387,9.6182377717
326,163.2455452,-1.5947684162620002,1.1632468024995999,9.78214615872
327,163.7455452,-0.2502413882608,2.38468704702,9.18432329176
328,164.2455452,-0.1194497060574,2.6823063039800004,9.0777469728
329,164.7455452,-0.6131368705976,1.95555822411,9.2983173558
330,165.2455452,-1.1664531762716,1.327729430798,9.4322676471
331,165.7455452,-1.1799487012466,1.666409543736,9.60727863276
332,166.2455452,-0.4678446688049,1.2832708003292002,9.00691950796
333,166.7455452,-1.230580827016,0.21884756641426,10.3558492373
334,167.2455452,-1.2393385741856,0.2391865567954,9.490317517
335,167.7455452,-1.1735838003146,0.5334080202596,9.6608778572
336,168.2455452,-0.82638523508826,0.269671112042,9.849145107
337,168.7455452,-0.9618668465692,0.6471149598096,9.121822767160001
338,169.2455452,-0.36112478929648,0.558436947721,9.44064244278
339,169.7455452,-0.9169774939890399,1.0071869068416,9.3498586944
340,170.2455452,-0.74010005614164,0.5749474216802399,9.98917310718
341,170.7455452,-1.262548945022,0.5853322759164,9.53793460846
342,171.2455452,-0.7965227912503999,0.1450529052048,9.83675027888
343,171.7455452,-1.3972648505999998,0.6130890168390001,9.30745799064
344,172.2455452,-0.5115854850242001,0.28532017021,9.836798162600001
345,172.7453452,-1.551219065734,0.5013441944424,9.29592458734
346,173.2455452,-0.9444949555693999,0.3116890735142,9.48088970186
347,173.7455452,-2.36171593186,-0.06159125532466,9.605268583460001
348,174.2453452,-1.713237083916,-0.2242553424004,9.152104014599999
349,174.7455452,-2.1032552361,0.1721635850094,9.97592884184
350,175.2455452,-0.29264220535,-0.02656032474639999,9.0374997238
351,175.7455452,-1.195980606038,0.0005742783875400037,10.0318133169
352,176.2455452,0.11298908560099999,0.13562518518384,9.7070115382
353,176.7453452,-0.7639325627764001,0.7251688246457999,9.61302144042
354,177.2455452,-0.325711015781,0.2784288361478,9.80511717758
355,177.7453452,-1.014413234916,0.2350708931638,9.19279397048
356,178.2455452,-0.1095434172594,0.035030922016800005,10.174090528499999
357,178.7455452,-1.678720620358,0.48601816909788,8.84472192802
358,179.2455452,-0.4256352922298,0.37366317837220003,9.92791689882
359,179.7455452,-0.8257152354822,0.43348374993100003,9.72658478706
360,180.2455452,-0.4298227332812,0.34785659167280003,9.63958186178
361,180.7455452,-1.6065650532916,0.04792823613925999,9.60931256302
362,181.2453452,0.1615633842938,-0.33078380355919995,9.73515108116
363,181.7455452,-1.067486036392,-0.17319250332156,9.80066653226
364,182.2455452,-0.43257447488364,-0.1223210957833,9.80200655912
365,182.7455452,-1.4667045557322,0.2005185392025,9.34430741304
366,183.2455452,0.463489745021,0.2001835432022,9.55650291464
367,183.7455452,-0.14088939953126,0.11834900856580001,9.6857631398
368,184.2455452,0.7991549033059999,-0.0421615353088,9.93064468422
369,184.7455452,-0.47267818758220004,1.413201048208,9.36282788326
370,185.2455452,0.40199420433680005,3.0487431908000002,8.95944578174
371,185.7455452,-0.9660782067158,2.65536315204,9.09157744404
372,186.2455452,0.1173440201634,1.49436558726,9.79195669166
373,186.7455452,-1.5391592410659998,0.45755554888786,9.70079012904
374,187.2455452,-0.4798566541438,0.45162134812588,9.4828518587
375,187.7455452,-1.473356631458,0.5689653715208,9.81114715556
376,188.2455452,-0.34547573266779996,0.88855077256258,9.1300540923
377,188.7455452,-1.0996934264940001,0.3953421527746,9.9418431094
378,189.2455452,-0.5953821290938,0.5689175086443999,9.46141216316
379,189.7455452,-1.442537063362,0.234400910244,9.56396862006
380,190.2455452,0.0245025043444,0.1894158420668,9.5556893345
381,190.7455452,-1.46967167733,-0.429080961025,10.107617788359999
382,191.2455452,0.2529692100327,0.07073183643459999,9.270417004019999
383,191.7455452,-1.855298980404,-0.0077048878212000104,9.623597736299999
384,192.2453452,-0.7635975617748,0.00028713924440000425,9.7127063275
385,192.7455452,-1.267956720512,-0.1095434241202,9.6710234545
386,193.2455452,-0.8893164599451999,-0.0946122061508,9.4278169823
387,193.7455452,-2.3618116641,-0.1524706580392,9.18973113096
388,194.2455452,-0.5089055277788,-0.11930612998600001,10.34206653638
389,194.7455452,-1.4600046472561998,-0.1727139315538,9.48404830006
390,195.2451452,-0.32398817823480003,-0.25440490026359996,9.485292529959999
391,195.7455452,-1.2794901168200001,-0.31877182739928,9.3760362624
392,196.2455452,-0.6600840581729601,-0.02895315130640002,9.51888773956
393,196.7455452,-1.2707802516372,0.42027536813559996,9.409775113759999
394,197.2455452,-1.7186209396122,-0.4362594219686,9.95466855044
395,197.7455452,-1.638987804615,-0.4338187474958,9.59172528242
396,198.2455452,-1.1210852654192,0.051206400166200004,9.1907360935
397,198.7455452,-1.1589875753614,-0.2306202466502,9.87962971662
398,199.2455452,-1.626018682182,0.1584048634124,9.08195828404
399,199.7455452,-1.01225970191512,0.02780460112279999,9.74309529332
400,200.2455452,-2.229680003584,0.21659830429059998,9.8860903071
401,200.7455452,-0.34293934683579996,0.1767817290382,9.33487976026
402,201.2455452,-1.3975041281184,0.5036891676214,9.618189840280001
403,201.7455452,-0.1529970791674,0.763262567294,9.54252873388
404,202.2453452,-1.23685002664,1.0829436678504,9.76702343
405,202.7455452,0.003972087610879998,0.19841285391714,9.68351394686
406,203.2455452,-1.3855878794268,-0.022157536252400002,9.8471352195
407,203.7455452,-0.008709875981599991,-0.06508478222599999,9.4155177599
408,204.2455452,-1.27977726040292,0.12246466116640001,9.483952522140001
409,204.7455452,-0.53627941034572,-0.03287738962899999,10.38092599864
410,205.2455452,-2.143011952656,0.018855444418199994,9.5135756399
411,205.7455452,-1.4648860369776,0.22597817112739998,9.21365925744
412,206.2455452,-1.78112146017392,0.2410050992074,9.41125855454
413,206.7455452,-1.892435561988,0.0704925541524,9.27448491062
414,207.2455452,-1.0630353811482,-0.7375636509125999,9.7312747193
415,207.7455452,-1.5778272482462001,-0.21913469934840002,9.453133039499999
416,208.2455452,-1.095625630766,-0.23042881801749998,9.57018989636
417,208.7455452,-1.780260044296,0.03062812860159999,9.67724474938
418,209.2453452,-0.7233024254266001,-0.15318851024719998,9.4181977368
419,209.7455452,-1.2649417661458,-0.39361932549819995,9.7683634277
420,210.2455452,-0.5051727127186001,-0.1304566852746,9.69193669282
421,210.7455452,-1.730297911044,0.0332123752763,9.51525068284
422,211.2455452,-0.7406264622158,0.2009013876198,9.6287183098
423,211.7453452,-1.012163984412,0.46779682963599994,9.7385489086
424,212.2455452,-0.49349573143244,0.37107892663834,9.73850109088
425,212.7455452,-1.06710318876488,-0.1470628799316,9.4698348903
426,213.2455452,-1.323518059792,-0.32331819653226,9.3578508373
427,213.7451452,-0.7191389129006,0.1531885135694,9.81325275454
428,214.2455452,-1.0667681839132,0.48134020545120004,9.47868832574
429,214.7453452,-0.42754955039492,-0.10250852290608,9.87934262266
430,215.2455452,-0.6920043085973999,0.22200607415999996,9.60273223898
431,215.7455452,-0.1845823356274,0.0969571744439,9.60340221388
432,216.2455452,-1.0609297162382,-0.11437692543584001,9.53941820208
433,216.7455452,0.23942582773639998,-0.3167140103602,9.69054884906
434,217.2453452,-1.9235901329326,-0.688558636014,9.986493063100001
435,217.7455452,0.005599205701399992,-0.3994578085786,9.49328456874
436,218.2455452,-1.706178258062,-0.38538801343474,9.90705144838
437,218.7455452,-0.5727460300388,-0.5086662374088,9.7320403859
438,219.2455452,-2.105923234246,-0.2706282405016,9.2376354982
439,219.7453452,-0.67204816992,-0.38443089133153996,9.75467647428
440,220.2455452,-1.9171295064860001,-0.5989713621216,9.36809210718
441,220.7455452,-0.3057548801358,-0.4961278492786,9.63795464492
442,221.2455452,-1.8944455444139998,-0.50813981192868,9.52195065496
443,221.7455452,-1.0135996784985999,-0.49416573132072,9.49912306282
444,222.2455452,-1.290963710528,0.7946803171119999,9.2897390934
445,222.7453452,-0.163429787441,-0.12031112480640001,9.32272415144
446,223.2455452,-1.470150240342,-0.39299719067079997,9.67303332318
447,223.7455452,-1.1623853831798001,0.229280263552,9.49189668656
448,224.2455452,-2.066824490045,-0.3242753247478,9.88652097656
449,224.7455452,-0.189463700561,0.03842872568760001,9.1910232065
450,225.2455452,-1.2858550338230001,-0.20831914175056,9.4849097062
451,225.7455452,-0.62864235919246,-0.15227923602092,9.4475337124
452,226.2455452,-1.642242036301,-0.1673540164688,10.13451321636
453,226.7455452,-0.261152668888,0.18089739173240002,9.731944742540001
454,227.2453452,-1.322034514572,0.21305693055681998,9.27601624478
455,227.7455452,-0.6766902333379999,-0.01373480244472,9.39091957088
456,228.2455452,-1.6783257902080002,-0.21750758520559998,9.766975565000001
457,228.7453452,-0.42793239864031996,-0.1615155288516,9.30980286554
458,229.2455452,-1.762601020292,0.07398607636460001,9.637667417600001
459,229.7455452,-0.34380075665112003,-0.11758330564524001,9.6514979077
460,230.2455452,-1.374868037464,-0.10571490644026,9.39642312044
461,230.7455452,-1.037336473478,-0.24583858483087997,9.67413414942
462,231.2455452,-1.6360685568720001,-0.2595734017896,9.20686368924
463,231.7455452,-0.6838687138224,-0.6055755458374,10.25750422496
464,232.2453452,-1.276714453699,0.32374889624219994,9.5643035887
465,232.7455452,-0.8735238409162,0.10523633848200001,9.75281009684
466,233.2455452,-1.92493009812,-0.10949556776759999,9.70667650182
467,233.7455452,-0.77867234148152,-0.09876375485160001,9.85426576566
468,234.2453452,-0.97500344601124,0.0476052070404,9.70368545404
469,234.7455452,-0.5033541779936,0.09341579428436,9.33636322002
470,235.2455452,-1.3146646239789999,0.0014835525554000029,9.986732463460001
471,235.7455452,-0.365814727542,0.24794428202200003,8.90991438856
472,236.2455452,-2.129995018216,-0.2694318369968,10.31847342494
473,236.7455452,-0.4396093776872,-0.002249259308800007,9.218205623400001
474,237.2455452,-1.164730352714,-0.010863420333659994,9.97524703044
475,237.7455452,-0.5189553749815,0.0644626408956,9.757787180000001
476,238.2455452,-2.0510318683579998,0.2570848658462,9.62436335488
477,238.7455452,-0.10992627226099999,-0.05580062508719999,9.67863255498
478,239.2455452,-0.747852787702,0.2291845542658,9.69050101254
479,239.7453452,-0.8042276909883399,0.21698115043478,10.1251811987
480,240.2455452,-1.864056687434,0.2078405734978,9.53937038482
481,240.7455452,-0.21540189733568,0.3044627506484,9.30071021074
482,241.2455452,-2.4356541712579998,0.7042076962999999,9.57875622742
483,241.7455452,-0.2203789579395,-0.4837330212262,10.116997746980001
484,242.2455452,-0.721196748494,0.021535401807200004,9.60876220688
485,242.7455452,-0.5211567676244,0.3367180007278,9.113352193519999
486,243.2453452,-1.3205988072072001,0.17247465700679998,9.65805435156
487,243.7455452,-0.8496434616604001,0.1621855175072,9.72347404514
488,244.2455452,-1.4722559026992,0.009332002712399985,9.533148947299999
489,244.7455452,-0.6994220577183999,0.06317051570766,9.74180314068
490,245.2455452,-1.31490390118,0.015601195676,9.7343854143
491,245.7455452,-0.50507701066,0.04244867575299999,9.30621372252
492,246.2453452,-1.308060419794,-0.17386249135064,9.76214206746
493,246.7453452,-1.2299586996042,-0.11629118096740002,9.49299735062
494,247.2453452,-0.8698867452562,-0.0240717944548,9.6291969306
495,247.7455452,-0.6722874531002,0.33681372245060004,9.80956785192
496,248.2455452,-0.92114100592,0.5369972592072,9.31899131822
497,248.7455452,-1.6511433346169202,0.32891739850164003,9.66532850274
498,249.2455452,-1.3529497713219998,0.24464218231962,9.50237728092
499,249.7455452,-1.6369299691860002,0.2157847475042,9.69160177214
500,250.2455452,-1.2034940744292,0.47191247946285997,9.34373315824
501,250.7453452,-0.9627761258572001,0.464399012919,9.90446715348
502,251.2455452,-1.267047441048,0.3445664598808,9.76080205932
503,251.7455452,-1.5286786618197998,0.5099583616402,9.39800238672
504,252.2455452,-1.442393491274,0.5735595905922,9.7063894366
505,252.7453452,-1.4821622192978001,0.4696153709582,9.44552376768
506,253.2455452,-1.2242159200418,0.3335594710982,9.30702721592
507,253.7455452,-1.8800886079419998,0.24579074412904,9.807653608419999
508,254.2455452,-1.32940441877,0.32327034255796,9.26936415688
509,254.7453452,-2.35539888854,0.022301109575199998,9.61402645128
510,255.2455452,-1.1942577842714,-0.03455235834239999,9.395322437319999
511,255.7455452,-1.821943018432,-0.1248096265094,9.562724256220001
512,256.24554520000004,-1.152048383356,0.20673987415759998,9.563202819299999
513,256.74554520000004,-1.7542261290799999,-0.10648060731159999,9.6896874042
514,257.24554520000004,-0.8190153371176,0.203533497592,9.29133043316
515,257.74554520000004,-1.745899115804,-0.026129616841899996,9.45351582584
516,258.24554520000004,-0.706791947973,0.11279765480260001,9.481511849999999
517,258.74534520000003,-1.88061504856,-0.3176232744698,9.48825960118
518,259.2451452,-0.8111668750176,-0.0826480937068,9.63967751496
519,259.74554520000004,-1.6609060478696,-0.08403593494999999,9.79291385658
520,260.24534520000003,-0.8389236108197999,0.1487378560579,9.402979479
521,260.74554520000004,-1.698999793208,0.4585605337468,9.31516276372
522,261.24554520000004,-1.1417114030608,-0.10317851129399999,10.06043143362
523,261.74554520000004,-1.930672895344,-0.19807785305804,9.4219785217
524,262.24534520000003,-0.9620582698726,-0.30412775671,8.66723427794
525,262.74554520000004,-1.4489498188313998,-0.766229659072,10.4215083452
526,263.24534520000003,-1.240056401806,-0.8464370828399601,9.1552265268
527,263.74554520000004,-1.3470155742099998,-0.6000720618294,9.319661350599999
528,264.24534520000003,-1.0862936197764999,-0.288813681866,9.28041901148
529,264.74554520000004,-1.721492307846,-0.496462834843,9.70883005156
530,265.24554520000004,-0.8246145368668,-0.1588355676672,9.76032351424
531,265.74554520000004,-1.486229988867,-0.0542692197212,9.22260849
532,266.24554520000004,-1.2268958914638,-0.36897324395312,9.51726066538
533,266.74554520000004,-1.3412728010992,-0.29948568449988,9.4875417518
534,267.24554520000004,-1.183872928838,-0.10351350551440001,9.76472633364
535,267.74554520000004,-1.406070432638,-0.134620206432,9.78712301274
536,268.24554520000004,-1.3225130725240002,0.02230110649048002,9.3437809754
537,268.74554520000004,-1.874585128974,-0.023832514024059993,9.64484594336
538,269.24554520000004,-0.9371250628934,-0.13481162424276,9.7021301845
539,269.74554520000004,-1.30461477336864,-0.08843871621399998,9.29606812554
540,270.24554520000004,-0.9292287556328,-0.3424607705128,9.58162757868
541,270.74554520000004,-1.1451570615522,0.17706888059199996,9.332151832540001
542,271.24534520000003,-1.3503176865484,-0.14658431135560002,9.499936590559999
543,271.74554520000004,-1.316770298971,-0.4531527487497,9.630536851859999
544,272.24554520000004,-0.9134361201158999,-0.22435104833480002,9.74472229948
545,272.74554520000004,-1.6486547981958,0.12863814561344,9.6514500432
546,273.24554520000004,-1.27920299288,0.11825329520374,9.40695153268
547,273.7451452,-1.737380656002,-0.24100510017840002,9.99237951318
548,274.24554520000004,-1.024893798586,0.061782683339039995,9.34670025834
549,274.74554520000004,-1.3608460910258,0.08121240161920001,9.3557929515
550,275.24554520000004,-1.4522997513523601,0.012394824729540002,9.7062457465
551,275.74554520000004,-1.3674502817883998,-0.1359601815418,9.70050302474
552,276.24554520000004,-2.00901388168,-0.12911671547939998,9.72768542332
553,276.74554520000004,-1.727139378684,0.14476576797648,9.19705314604
554,277.24534520000003,-2.029783598512,0.2180818541684,9.813779134599999
555,277.74534520000003,-1.416551005966,-0.012059826506999988,9.23725246502
556,278.24554520000004,-1.3233266402558,-0.3270509974704,9.36431143758
557,278.74554520000004,-0.8805587360330001,-0.009571291015300007,9.57889974644
558,279.24554520000004,-0.33260234521340004,-1.030540861869,9.76539628948
559,279.74534520000003,-0.37806598049794,-0.6713303209624,9.49778308902
560,280.24554520000004,-1.7018233240360001,-0.2812045118492,9.5134800053
561,280.74534520000003,-1.0300622977218001,0.045750774922600004,9.42293556232
562,281.24554520000004,-1.38826784046232,-0.4450171557406,9.6834182452
563,281.74554520000004,-0.06608975856974,0.06230910387926,9.46662849432
564,282.24534520000003,-1.1417113980140001,-0.382516627934,9.63761960978
565,282.74554520000004,-0.68118874983974,-0.2399044008134,10.02109337884
566,283.24554520000004,-1.804044702646,-0.2784766980654,9.86905340206
567,283.74554520000004,-0.8834301297454,0.1372523089528,9.50840727836
568,284.24554520000004,-0.68865435506916,1.08892572999,9.529320459120001
569,284.74554520000004,0.032350957613600004,2.6496203541,9.48428752896
570,285.24554520000004,-1.0142217981119999,2.70661738396,9.27113494906
571,285.74554520000004,-0.7197131937046001,2.9007231998200003,9.04228535672
572,286.24554520000004,-0.6698467753838,2.4347448897,9.31300931924
573,286.74534520000003,-2.216040891438,1.837304939002,9.52252485274
574,287.24554520000004,-3.820763472386,1.4812050736,8.469778656959999
575,287.74554520000004,-2.02920931812,0.42309890100646,9.72385692626
576,288.24554520000004,-1.918421640452,0.27278178062932,9.38292753182
577,288.74554520000004,-1.390517094088,0.586863681084,9.682317524
578,289.24534520000003,-0.63960149125548,1.9369899367919998,9.18657255198
579,289.74534520000003,-0.8351429611151999,1.521308780976,9.6365667148
580,290.24554520000004,-0.33231520522804,1.57390301702,9.44246103312
581,290.74554520000004,-0.4996213697234,1.5029797541760002,9.67351198218
582,291.24554520000004,-0.649651344402,2.1195144199800002,9.336650390500001
583,291.74554520000004,-1.042409255922,2.2249422097,9.30865444182
584,292.24554520000004,-3.6911203622,2.08630205638,8.988638286499999
585,292.74554520000004,-2.7410261917,1.35026982398,8.824442768019999
586,293.24554520000004,-3.1892018843199996,-0.04718646139862,9.6522157187
587,293.7451452,-1.8063896822160002,-0.28991439216368,9.15077587166
588,294.24554520000004,-1.1241002293798,0.020865410974400006,9.87671047176
589,294.74554520000004,0.5244110120762,1.726708676175,9.04429528226
590,295.24534520000003,-1.0504491431140002,2.12530506366,9.10894945142
591,295.74554520000004,-0.3164268683278,1.0279566097439998,9.6333125116
592,296.24554520000004,-1.077535891538,0.2181297142842,9.81296573632
593,296.74554520000004,-0.1208853998934,-0.22760529078009997,9.792913751579999
594,297.24534520000003,-1.568973802386,-0.04766502578126,9.79793880448
595,297.74554520000004,-0.53412587224,-0.0893958546316,9.5313783643
596,298.24534520000003,-1.989632025954,0.15452848943900002,9.50333442674
597,298.74554520000004,-0.8415676885802,0.13575679108799998,9.20086963648
598,299.2451452,-1.806114475738,-0.12105289433814001,9.9078770061
599,299.74534520000003,-0.7109076113704,-0.1371565867518,9.45078811622
600,300.24554520000004,-2.156220347274,-0.13921442259516,9.6154621599
601,300.74554520000004,-1.289300695034,-0.15074783026280003,9.6484830858
602,301.24554520000004,-2.1088424657584,-0.007369899956199999,9.08147981616
603,301.74554520000004,-1.10002844753024,-0.3921836270068,10.0634942246
604,302.24554520000004,-1.4192309749,-0.24272792968919998,9.47892762184
605,302.74534520000003,-0.6620940233102001,-0.5671946798295,9.802341480459999
606,303.24554520000004,-1.4883357054864998,-0.4022813480144,9.26175510456
607,303.74534520000003,-1.1582697249463,-0.787286508552,9.675713329179999
608,304.24534520000003,-1.99417840319612,-0.8081519239222,9.41604430212
609,304.74554520000004,-1.3818072212052,-0.7110990381160001,9.73926670094
610,305.24554520000004,-2.1787128790906,-0.1695075617076,9.30334227568
611,305.74554520000004,-0.4088855318902,-0.5244110026466,9.76994273172
612,306.24554520000004,-1.77786722302,-0.75125058632622,9.36565133112
613,306.74554520000004,-0.7746045395596001,-1.0422178230686,9.57167340266
614,307.24554520000004,-2.206948155244,-0.836147947638,9.558130092399999
615,307.74554520000004,-0.7702017357433999,-0.7371807998302,9.79315300082
616,308.24554520000004,-2.2398734241260003,-0.531924471088,9.5993345268
617,308.74554520000004,-0.8741938172488599,-0.42592242932404,9.42331848132
618,309.24554520000004,-1.8880806231560001,-0.4478885370626,9.51343211156
619,309.74554520000004,-0.427358121091,-0.3310709475566,9.39996448526
620,310.24554520000004,-2.0909441256220003,-0.27058038543216,9.71509921048
621,310.74554520000004,0.07724031454147999,-0.6481677993106401,9.50716294304
622,311.24554520000004,-1.775570128244,-0.04555934074048,10.00759786614
623,311.74554520000004,0.51809395560166,1.3079168648344,9.164893560000001
624,312.24554520000004,-2.153253245704,2.097931180036,9.53597246166
625,312.74554520000004,-0.8470113608319401,1.26896170682,9.28075400326
626,313.24554520000004,-1.5238930315199999,0.03694517997476,9.99735656736
627,313.74534520000003,-0.49363931112579995,0.1812802427164,9.34062252058
628,314.24554520000004,-1.5216437681383999,-0.08154739460974002,9.861492119020001
629,314.74554520000004,-0.40802411952394,-0.055848482432500006,9.491800985060001
630,315.24554520000004,-1.6196059383036001,-0.12361321829280002,9.94409236012
631,315.74554520000004,-0.568773946175,-0.4800959401186,9.4421738337
632,316.24554520000004,-1.075430209612,-0.19003797829514,9.54851096116
633,316.74554520000004,-0.7262216832266,-0.5443671557484,9.78889381418
634,317.24554520000004,-0.6734359944771999,0.1071505912025,9.29616381714
635,317.7451452,-1.648080534938,-0.6682675083744399,10.92615469852
636,318.24554520000004,-0.6338587210015,0.5293402259869999,9.00098522172
637,318.74554520000004,-2.410098813764,-0.033068809081799995,10.30363793414
638,319.24554520000004,-0.3424607756738,-0.114329062539,9.266971375819999
639,319.74554520000004,-2.141959114064,0.005934201070860008,8.651250152080001
640,320.24534520000003,-1.653057595244,-0.5698746397968,9.75802641886
641,320.74554520000004,-0.19046867922580002,-0.03641876549159999,9.81516701744
642,321.24554520000004,-1.4697673654299999,0.13064811639239998,9.51563358334
643,321.74554520000004,-1.5883077945216002,-0.12155538630686,9.68260460824
644,322.24534520000003,0.3618904893862,-0.05972485349852,9.48476618786
645,322.74534520000003,-1.719769480304,-0.35743984758768,10.126951970919999
646,323.24554520000004,-0.753691278954,0.048861440483800006,9.2190671638
647,323.74554520000004,-1.156738313692,-0.327625275439,9.21155363062
648,324.24554520000004,-0.7200003303635001,-0.21994826263259998,10.20926492658
649,324.74554520000004,0.9567462124778,0.09293723253320002,9.556359348500001
650,325.24554520000004,-0.971246707394,0.009188437282699993,9.40441505478
651,325.74554520000004,-0.42611385763545995,-0.5212046328236,9.61359569518
652,326.24534520000003,-0.112510517738,-0.31149765474728,9.602827959159999
653,326.74554520000004,-1.169324562071,-0.67204816739732,10.07497979152
654,327.24534520000003,-0.534030151118,-0.5627918877942,9.5348719023
655,327.7455452,-1.348164128102,-0.1298824129166,9.3854160884
656,328.2455452,-0.947366333468,-0.2719682186064,9.81598061608
657,328.7455452,-0.1203589770029,-0.243541486265,9.59665444424
658,329.24534520000003,-1.662724590302,-0.464159733363,9.966106309839999
659,329.7455452,-0.4097948069084,-0.389503666157,9.43269825964
660,330.2455452,-0.9557412150160001,-0.15716059138784,9.0866961862
661,330.75034912156866,-1.6957136403901962,-0.9819487339333333,10.17822306754902
662,331.25054520000003,-0.4394980331072653,-0.6496757664377143,9.538865372061224
663,331.7455452,-0.8943892432682,-0.4260659950696,9.224235658600001
664,332.2455452,-1.2844671893559998,-0.57887165522184,9.6409696576
665,332.7455452,-0.6097390684914,-0.466361140856,10.08081810006
666,333.2455452,-1.0010612814646,-0.5159882719481,9.25988863966
667,333.7455452,-1.4057832902179999,-0.6801837671616,9.32645694778
668,334.24534520000003,-0.461766913636,0.08317451515098,9.80454281786
669,334.7455452,-2.0733808232379998,-0.3643790315844,10.0139627837
670,335.24534520000003,-1.3365350070639999,-0.08676374495,8.87502704622
671,335.74534520000003,-0.6299823476099999,-0.11006984442748,9.523960542280001
672,336.2455452,-2.049644023298,-0.3800759500098,10.17074048992
673,336.7455452,-0.5860501199734,0.24957140153360002,8.84368103942
674,337.2455452,-1.24369350684512,-0.045176492679740006,9.57009420362
675,337.7455452,-1.12730661551204,-0.2994856877648,9.886521053720001
676,338.2455452,-0.6692724910762,-0.2618705112573,10.05578920422
677,338.7455452,-1.0818908197638002,-0.2983849842816,9.27759556772
678,339.24534520000003,-1.3554861711828,-0.6101219266462,9.0633422182
679,339.7455452,0.7313901641146,-0.158931276456,10.46122924792
680,340.2455452,-0.77493954282654,1.195167050233,9.026971207
681,340.7455452,-0.5912664737548,2.9536045456599997,9.01586854936
682,341.2455452,0.060538413977,2.7112594795600002,9.42800832766
683,341.74534520000003,-0.33087951830820006,2.63133919954,8.68604194628
684,342.2455452,-0.7830392436389999,1.164933735162,10.17821815558
685,342.7455452,-0.679286455238,0.7381379317554,9.60300755468
686,343.2455452,0.10021141195762001,0.228658129879,9.77965757362
687,343.7455452,-0.2612962331811,0.45209990937767996,9.530660429240001
688,344.2455452,-0.7937471204640001,0.5722196084219999,9.68107330336
689,344.7455452,-0.9222417080459999,0.44793639898000004,9.520227737559999
690,345.2455452,-4.09325813524,1.1062497682986001,8.64909667018
691,345.7455452,1.3575440200989999,3.474043498,8.90895729052
692,346.2455452,5.01779694082,3.59669956686,7.89435267456
693,346.7455452,5.05000431296,3.54788599252,6.752736920004001
694,347.2455452,5.52344821462,2.841476894351,6.68358435126
695,347.7455452,5.45659276486,3.166900804038,7.309355359938
696,348.24514519999997,6.601606302177999,4.4196391011,6.871899434296
697,348.7455452,5.355376381879999,3.434418332606,7.182344307959999
698,349.24534520000003,6.57026032446,4.23199399944,5.382989559159999
699,349.7455452,6.9704837895,3.846893096,6.090499353479999
700,350.2455452,6.26579750068,3.7295011949999997,6.15424412724
701,350.7455452,6.82887649544,3.7282569884999996,6.10590913304
702,351.2455452,6.92516368868,3.57717412464,5.98569368836
703,351.74534520000003,6.9930241871,3.53951110846,5.75067061416
704,352.2455452,7.28566637988,2.4555145925860002,5.67582318786
705,352.7455452,7.34165843002,2.40550460576,6.25546051982
706,353.2455452,7.26398740774,2.7898397875799996,5.90988906866
707,353.7455452,6.99824054716,3.56023295878,6.4632532024
708,354.2455452,7.63616705906,0.8052805348379999,4.74558943397
709,354.7455452,8.49586036694,4.464049916212,3.5719099271099997
710,355.2455452,7.6927334499799995,3.431259824026,4.416097778882
711,355.7455452,7.89899468922,3.548029587304,4.98908307316
712,356.2455452,7.87712435726,2.4104816381002,4.8476194119
713,356.7455452,5.7353566027,3.922649896112,7.22015084314
714,357.2455452,7.24503623734,3.146657493778,6.98747281084
715,357.7455452,7.43502637418,2.4011975403281998,5.620261803746001
716,358.2455452,7.14879694464,3.83847037629226,5.918168244339999
717,358.7455452,7.40837032302,3.85603372336,4.755112870058
718,359.2455452,8.256865146520001,3.284819037948,5.3260404043400005
719,359.74534520000003,7.989778337400001,3.16139728778,4.6387738507080005
720,360.2455452,7.45526970378,2.9383862164649996,5.47664462802
721,360.7455452,6.97445581424,4.19361309996,5.78651513572
722,361.2455452,8.17460003838,3.397568875522,4.4209313185892
723,361.7455452,8.83669393496,2.663211580564,4.2654456322976
724,362.2455452,7.34720977778,4.025301970814,4.5077428358462
725,362.7455452,8.106069593419999,3.58195978634,4.74841298576
726,363.2455452,7.7302050019,3.2624222731600003,4.95180290234
727,363.7455452,7.53992774018,3.73108050818,4.5901516485
728,364.24534520000003,7.79481118198,4.38020541188,4.372452683540001
729,364.7455452,8.02820714468,3.041851871046,4.54282165768
730,365.2455452,7.64659976012,4.27104481694,4.735539581764
731,365.7455452,5.01626556876,1.7859071112510798,8.01069157618
732,366.2455452,1.61845737341092,-0.5145525761778,9.65925066016
733,366.7455452,-0.876443084065,0.52058250218,9.2194021225
734,367.2455452,-1.096487041736,0.4490849526466,9.46251283668
735,367.7455452,-0.400319222921,0.7006663256900001,9.83789888422
736,368.2455452,-0.7237331360720001,0.791689300218,9.35186878252
737,368.7455452,-0.6015077519359999,0.512064047454,9.57397054662
738,369.2455452,-0.555804843914,0.4718646269354,9.4159485628
739,369.7455452,-0.5929893127854,-0.06522834420014,9.748790206879999
740,370.2455452,-0.4956971431658,0.1230389418689,9.663079338400001
741,370.7455452,-0.673914571416,0.7184689319642,9.30817579242
742,371.2455452,-0.5787280793456,0.5756174151239599,9.58971539492
743,371.7455452,-1.136734328594,-0.5101019330318001,10.14016012168
744,372.2455452,0.17635102739452002,-0.4111826424708,9.56731844926
745,372.7455452,-0.8483991968562,0.0013399791398400007,9.7349596406
746,373.2455452,0.8044669749966,-0.53919865471812,9.6811690137
747,373.74534520000003,-0.9923992603780001,-0.355429874407,9.2101178935
748,374.2455452,-0.7292844830246,0.22301107271349999,9.58713104256
749,374.7455452,-1.733647858422,-0.32298320047213996,9.73361958532
750,375.24534520000003,-0.3056113029137,-0.5663811200954,10.468503322659998
751,375.7455452,-0.652762015104,-0.35499916282073996,9.1640321161
752,376.2455452,-1.683494296978,-0.1897986919498,9.64805233922
753,376.7455452,-1.7189559193038,0.044362926831399994,9.9866367624
754,377.2455452,-0.5681039480836,0.021296121074039998,9.34650883626
755,377.7455452,-0.8686424744219999,0.03670590267708,9.9642398079
756,378.2455452,-1.47560585342,0.43922652675199997,10.023390503
757,378.7455452,-1.0321679640365,0.3224089133602,9.145272417260001
758,379.2455452,-1.11945815046712,0.2169333002977,9.71289777774
759,379.7455452,-0.91267040675356,0.2377987135606,9.86814415924
760,380.2455452,-1.269392404862,0.4124747685001,9.53367539272
761,380.7455452,0.004259225008399992,0.10992626907047999,9.48036339746
762,381.24534520000003,-1.2867164503772,0.47980880048499996,9.7818111317
763,381.7455452,-0.04019942615099999,0.48071807178744,9.39211600298
764,382.2455452,-0.703681280702,0.18381663581344,10.0465051844
765,382.7455452,-0.046899326729139997,-0.2130569267767,9.38733032284
766,383.2455452,-1.0814122673939999,-0.45544986553464,10.32024410216
767,383.7455452,-0.17123038908648,0.16137195488274003,9.08569114644
768,384.2455452,-0.6355336909034,0.014691926486599996,9.70375715262
769,384.7455452,0.37849668827000005,0.37055251657054,9.402835980259999
770,385.2455452,-2.265141605152,1.0853843561282,9.8289018299
771,385.7455452,-0.764554686602,1.406118293978,9.03697334292
772,386.2455452,-1.455266882804,0.5639882998665999,9.26878991142
773,386.7455452,0.371318220047,-0.0974357379444,9.83225178736
774,387.2455452,-0.5546084297573001,0.1487378554824,9.49649083156
775,387.7455452,-0.43750368591399996,0.1342852063446,9.6042158894
776,388.24534520000003,-0.63050876005114,0.46191047977460004,9.71591281918
777,388.7455452,-1.044036383846,0.25091137766,10.03487596552
778,389.2455452,-2.0669680712916,0.6345765648859999,8.718967132620001
779,389.74534520000003,-1.6520526035666,1.49292991331916,9.60828368188
780,390.2455452,-0.3350430263362,0.6944928483476,10.13901170746
781,390.7455452,-0.7049734028726,0.48191447929360004,9.5888060375
782,391.2455452,-0.40012780677099996,0.61797037866696,9.190257435020001
783,391.74534520000003,-1.8012211888698,0.34872997041892,9.77329267492
784,392.2455452,-1.1107961258458001,0.5258945587507,9.57775115962
785,392.7455452,-1.3560125965279999,0.39395431796220004,9.54142822234
786,393.2455452,-0.7185167834867999,0.420371080855,9.74089385044
787,393.7455452,-0.7499106149078,0.1882672850386,9.83316110644
788,394.2455452,-0.13275379947729998,0.3673461322478,9.363162879779999
789,394.74514519999997,-1.067103188264,-0.044027935769,9.79980512664
790,395.2455452,-0.6834858595865999,0.03464807317360001,9.2185885049
791,395.74534520000003,-1.1259187640462,0.875438096492,9.67772329328
792,396.2455452,-0.05647061607800001,0.5024927511348,9.37254272476
793,396.7455452,-0.37730026869059996,0.30245278520562,10.14949214904
794,397.24534520000003,0.40649271584060004,0.4866044205088,9.36517278676
795,397.7455452,-1.289252839802,0.1934357850473,9.9727104664
796,398.24534520000003,-0.57585669401826,0.500530628844,8.69915458702
797,398.7455452,-1.81198886661,-0.17070396841719998,9.89982516298
798,399.2455452,-0.39122650465939995,-0.3267638612607,9.54726661682
799,399.7455452,-1.601085489946,-0.4533322151246,9.966584863960001
800,400.2455452,-0.3268595741218,-0.013076775796479999,9.5116016387
801,400.7455452,-1.7369499526214,0.24081367955988,9.9349996665
802,401.2455452,-0.71875606061126,0.6602754884780001,8.57846058842
803,401.7455452,-1.118788158856,-0.3229832012218,10.25305360754
804,402.24534520000003,0.06929614133279999,-0.0524506717305,9.35220373138
805,402.7455452,-1.0360922063846,-0.3735674705382,9.9331332212
806,403.2455452,-0.06585047850747999,-0.27493532061126,9.48409611678
807,403.7455452,-1.1316136806800001,-0.4248217336537,9.76865053162
808,404.2455452,-0.63242301984,0.24579073796759998,9.15584867424
809,404.7455452,-1.48623000149,0.677695245334,9.7051449965
810,405.24534520000003,-0.5215396184952,0.40778483442240004,9.30367732992
811,405.7455452,-0.6671189514728,0.34399217783307995,9.97031764974
812,406.2455452,-0.34906496165859996,-0.045702912277000005,9.62455476748
813,406.74514519999997,-0.666018250889,0.195302179982,9.32813192406
814,407.2455452,-0.7117211658622,-0.431521636113,10.08660876284
815,407.7455452,-0.6034698690594,0.1582612938394,9.42901335732
816,408.2455452,-0.8743373958118,-0.16692331389860002,9.79329666114
817,408.74534520000003,-0.5072305497192,0.0013399820281999964,9.8280883794
818,409.2455452,-0.9133882621000001,0.11284551853250001,9.51783493016
819,409.7455452,-0.42343389790284003,0.15701702186900002,9.399485826180001
820,410.2455452,-1.4510076560440002,-0.16682759500980002,10.00798069082
821,410.74534520000003,-0.3554777344238,0.09887143114220001,9.43092749572
822,411.2455452,-0.741248596168,0.34078580231856004,10.0186526967
823,411.74534520000003,-0.31221549690739997,0.4565027076162,9.11186860038
824,412.2455452,-0.9851250864076601,0.008518445676039993,9.945288829779999
825,412.7455452,-0.5474778245656,0.6842515686144001,9.46600645086
826,413.2455452,-0.46090549490199995,-0.158069868538,9.59000246106
827,413.7455452,-0.45827338890299996,-0.20070996676904,9.447916546
828,414.24534520000003,-0.5821259025366,-0.3612683543856,9.8016715904
829,414.7455452,-0.581264473128,-0.0057427756944999865,9.691841077720001
830,415.24534520000003,-0.3052284579772,0.2966142997319,9.65054077152
831,415.7455452,-0.6993263491235,0.19984854790774,9.884319744
832,416.2455452,0.018472595905699992,1.019486021398,9.26654071848
833,416.7455452,-0.7818787268040001,0.4154897250384,9.86024781274
834,417.2455452,0.5815037562848,-0.1533320772216,9.36665631274
835,417.7455452,-0.801643439434,-0.2330609251636,9.73505537976
836,418.2455452,0.18807585903176002,-0.0361316223742,9.83387902214
837,418.7455452,-0.5774838164093999,-0.27225535519004,10.29794297146
838,419.2455452,0.20635702140808,0.42104107625700005,8.94796029118
839,419.74534520000003,-0.3113062217676,-0.136008033891,10.06875840208
840,420.2455452,-0.36423546900666,-0.1675932977962,9.48524466556
841,420.7455452,-0.14400006294620002,0.009954142706199997,9.689783115300001
842,421.2455452,-0.5668118230986,-0.0697268518806,9.61833341646
843,421.7455452,-0.26579473816946,0.031250263910200006,9.67169343922
844,422.2455452,-0.567721101662,-0.22540389676,9.69590874706
845,422.7455452,0.16950755925350003,-0.2395215434216,9.67470835716
846,423.2455452,-0.6725267262482,-0.1674018743664,9.72433546092
847,423.7455452,0.13189238196624,0.11638689139912,9.13842889784
848,424.2455452,-0.9270752080586,-0.17678173534279998,10.17543037424
849,424.7455452,0.1250010561868,-0.27550959425120003,9.59081602084
850,425.2455452,-0.53345588559626,0.03541377939359999,9.44691174518
851,425.7455452,0.239760830293,-0.33044880586416,9.783103265900001
852,426.2455452,-0.42979880082180005,0.349160674908,9.3194699001
853,426.7455452,0.3657668732022,0.21951755903919998,9.71337640736
854,427.2455452,-0.3326502026507,-0.388977247176,9.76917698008
855,427.7455452,0.40663628382384,0.2963271525645,9.37388277032
856,428.2455452,-0.28115666422617996,-0.002297108494439999,9.61488777188
857,428.7455452,0.027852455668000004,0.58839508668032,10.22486613282
858,429.2455452,0.4829194620612,1.763893131074,9.208490724219999
859,429.7455452,0.04517649181972,2.80625453472,9.00849866876
860,430.2455452,-0.12763315655899998,1.980204303324,9.37766339314
861,430.7455452,-0.028618156595,0.990245721972,9.51458063094
862,431.2455452,0.01167697490600001,0.696454966188,9.90542425142
863,431.74534520000003,-0.41228334459048,0.8360043771826,9.4359525581
864,432.24534520000003,-0.20114067068136,1.11510321142,9.57349201216
865,432.7455452,-0.07810173236048,0.5991627893853999,9.89097171768
866,433.2455452,0.6173482400672,0.36011980753368,9.4635657118
867,433.7455452,-0.18821943141600003,0.3016870795248,9.85393075014
868,434.2455452,0.04240081666052,1.4652688788980002,9.33425756444
869,434.7455452,-0.29910282843336,0.87462453673984,9.55305721274
870,435.2455452,0.28914869017600003,0.4415236357086,9.56851497654
871,435.7455452,-0.4149632988438,0.2535434873038,9.64924875256
872,436.2455452,-0.029144579698,0.4063970004006,9.65972925234
873,436.74534520000003,0.028761728986339993,0.47464030199,9.707968625040001
874,437.24534520000003,0.39893139309680004,0.2546920418884,10.02989898622
875,437.7455452,-0.23052452882840002,0.4895715115094,9.33741613438
876,438.2455452,-0.1288774299608,0.2405743886894,9.64355386784
877,438.74534520000003,0.2396172614756,0.4781816751219,9.61522283598
878,439.24534520000003,-0.2191825529182,0.0785324376207,9.92901755302
879,439.7455452,0.4180739724622,0.06771688034989999,9.5106085392
880,440.2455452,-0.21836899428698,0.0171326102131,9.66298358914
881,440.7455452,-1.338401428986,-0.0696790061442,9.62177906004
882,441.2455452,-0.96626964802,0.627015242586,9.75084795028
883,441.7455452,-0.4895236583826,0.60854265779,9.449304485579999
884,442.24534520000003,-0.763741131386,0.5365186955295,9.90054300282
885,442.7455452,-0.630556626936,0.52077392568574,9.39312097516
886,443.24534520000003,-0.55379487787288,0.540060069564,9.73701740304
887,443.7455452,-0.30594630425866,0.4643511634332,9.42585473978
888,444.24534520000003,-0.35820555010044,0.46593041988160006,10.03951819376
889,444.7455452,-0.7528777140314,0.9882836007820001,9.68911317804
890,445.2455452,-1.0741859496914001,0.4562155657428,9.6849017435
891,445.7455452,-0.5898786354805999,0.8627082755751999,9.68006830204
892,446.2455452,-1.3456277379838,0.6573562398462001,10.08924094234
893,446.7455452,-1.60008049662,0.28790441906136,9.38713894818
894,447.2455452,-0.3071427157416,-0.1434257875384,9.86579914074
895,447.74514519999997,-0.6522834530839999,1.307246871564,9.33224762898
896,448.2455452,0.4840201631156,1.8467326450100001,9.47773124672
897,448.7455452,-0.1096391352725,1.7672430907480001,9.40752566334
898,449.2455452,-0.6380700917959,1.137356460656,9.69806229602
899,449.7455452,-0.8827122657878,1.026473057294,10.25736078186
900,450.2455452,-0.4851208680384,1.97269084688,8.73796617522
901,450.7455452,-1.1430513730793601,3.2833355117600003,9.27740412712
902,451.1455452,-4.0811185677,3.479802243,8.266005770566666
