"Time (s)","Acceleration x (m/s^2)","Acceleration y (m/s^2)","Acceleration z (m/s^2)"
4.105540000E-3,-6.819544435E-1,1.086341500E0,1.124148083E1
1.285309200E-2,5.168496966E-1,5.694918036E-1,1.149033451E1
2.285309200E-2,0.000000000E0,0.000000000E0,0.000000000E0
3.285309200E-2,0.000000000E0,0.000000000E0,0.000000000E0
4.285309200E-2,0.000000000E0,0.000000000E0,0.000000000E0
5.285309200E-2,2.488535494E-1,6.364908218E-1,1.288535023E1
6.285309200E-2,-5.599204898E-1,3.852444589E-1,1.250249863E1
7.285309200E-2,-7.992027402E-1,4.977070987E-1,1.194975662E1
8.285309200E-2,-7.992027402E-1,4.977070987E-1,1.194975662E1
9.285309200E-2,-7.992027402E-1,4.977070987E-1,1.194975662E1
1.028530920E-1,-7.992027402E-1,4.977070987E-1,1.194975662E1
1.128530920E-1,-2.096112728E0,1.172483087E0,9.836894035E0
1.228530920E-1,-1.418943882E0,9.690931439E-1,9.470791817E0
1.328530920E-1,-9.475577474E-1,6.867401004E-1,8.903693199E0
1.428530920E-1,-6.173482537E-1,5.958128572E-1,8.056633949E0
1.528530920E-1,-6.173482537E-1,5.958128572E-1,8.056633949E0
1.628530920E-1,-6.173482537E-1,5.958128572E-1,8.056633949E0
1.728530920E-1,-6.173482537E-1,5.958128572E-1,8.056633949E0
1.828530920E-1,4.833501875E-1,8.494520187E-1,7.637889862E0
1.928530920E-1,4.163511395E-1,8.733802438E-1,7.781459332E0
2.028530920E-1,3.110669553E-1,9.643075466E-1,7.867600918E0
2.128530920E-1,2.177468538E-1,1.050449133E0,7.855636597E0
2.228530920E-1,1.019342422E0,7.728816867E-1,7.915457249E0
2.328530920E-1,1.110269666E0,7.848458290E-1,7.960920811E0
2.428530920E-1,1.229910851E0,7.130611539E-1,8.169096947E0
2.528530920E-1,1.225125194E0,6.053841114E-1,8.193024635E0
2.628530920E-1,1.241874933E0,5.623133183E-1,8.188239098E0
2.728530920E-1,1.316052437E0,5.838487148E-1,8.092526436E0
2.828530920E-1,1.131805062E0,6.484549642E-1,7.841279984E0
2.928530920E-1,7.633104324E-1,1.213161111E0,6.826723099E0
3.028530920E-1,7.106683254E-1,1.612762451E0,6.448657036E0
3.128530920E-1,6.101697683E-1,1.820937991E0,6.522834301E0
3.228530920E-1,4.809573591E-1,1.746760488E0,7.006184578E0
3.328530920E-1,4.833501875E-1,1.363908887E0,7.475177765E0
3.428530920E-1,4.570291340E-1,1.648654819E0,8.003992081E0
3.528530920E-1,4.666004181E-1,1.631905079E0,8.623732567E0
3.628530920E-1,3.421736360E-1,1.634297848E0,1.015035343E1
3.728530920E-1,8.183453679E-1,1.895115495E0,1.107398319E1
3.828530920E-1,9.355936646E-1,2.007578135E0,1.200718403E1
3.928530920E-1,3.421736360E-1,2.579462767E0,1.227996540E1
4.028530920E-1,-6.939185411E-2,3.144168854E0,1.249292660E1
4.128530920E-1,-2.321037948E-1,3.297309637E0,1.263410378E1
4.228530920E-1,-5.647061467E-1,3.232703447E0,1.259821129E1
4.328530920E-1,-5.647061467E-1,3.232703447E0,1.259821129E1
4.428530920E-1,-5.647061467E-1,3.232703447E0,1.259821129E1
4.528530920E-1,-5.647061467E-1,3.232703447E0,1.259821129E1
4.628530920E-1,-5.647061467E-1,3.232703447E0,1.259821129E1
4.728530920E-1,3.302095234E-1,1.576870084E0,1.071266651E1
4.828530920E-1,6.340979934E-1,1.344766378E0,1.051167011E1
4.928530920E-1,7.585247755E-1,1.452443361E0,1.051406288E1
5.028530920E-1,7.585247755E-1,1.452443361E0,1.051406288E1
5.128530920E-1,7.585247755E-1,1.452443361E0,1.051406288E1
5.128530920E-1,1.572084427E0,1.540977836E0,1.040399265E1
5.328530920E-1,1.509871125E0,7.920243144E-1,1.053081226E1
5.428530920E-1,1.215553880E0,4.139583111E-1,9.985248566E0
5.528530920E-1,1.607976794E0,1.818545163E-1,9.475577354E0
5.628530920E-1,2.335394859E0,2.368894368E-1,9.573683739E0
5.728530920E-1,2.230110645E0,-1.507478207E-1,1.130130100E1
5.828530920E-1,1.971685886E0,-2.153540403E-1,1.216271782E1
5.928530920E-1,1.995614052E0,-1.244267747E-1,1.298106289E1
6.028530920E-1,2.081755638E0,8.374879509E-2,1.373958778E1
6.128530920E-1,2.057827473E0,5.000999570E-1,1.380897903E1
6.228530920E-1,1.600798368E0,6.843472719E-1,1.366780281E1
6.328530920E-1,8.973084688E-1,7.250252366E-1,1.327538013E1
6.428530920E-1,2.225325108E-1,6.939185858E-1,1.067677498E1
6.528530920E-1,-3.780659735E-1,7.848458290E-1,8.898907661E0
6.628530920E-1,-7.130611539E-1,8.374879360E-1,7.302894592E0
6.728530920E-1,-1.251446247E0,1.253839016E0,6.025127411E0
6.828530920E-1,-1.320838094E0,1.698904037E0,5.328815937E0
6.928530920E-1,-1.119840980E0,1.641476393E0,5.137390137E0
7.028530920E-1,-6.771687865E-1,1.127019525E0,5.367101192E0
7.128530920E-1,3.469592929E-1,7.417750359E-2,6.802794933E0
7.228530920E-1,1.079162955E0,-1.148554832E-1,7.791030407E0
7.328530920E-1,1.390229940E0,-1.148554832E-1,8.752944946E0
7.428530920E-1,1.390229940E0,-1.148554832E-1,8.752944946E0
7.528530920E-1,1.342373490E0,-9.810572863E-2,9.906285286E0
7.628530920E-1,1.275374413E0,-3.349951655E-2,9.949356079E0
7.728530920E-1,9.308080077E-1,2.009970993E-1,9.573683739E0
7.828530920E-1,9.308080077E-1,2.009970993E-1,9.573683739E0
7.928530920E-1,9.308080077E-1,2.009970993E-1,9.573683739E0
8.028530920E-1,9.308080077E-1,2.009970993E-1,9.573683739E0
8.128530920E-1,-5.096712112E-1,1.933400750E0,6.752545357E0
8.228530920E-1,-8.327022791E-1,2.201396942E0,6.580262184E0
8.328530920E-1,-1.172483087E0,2.411965132E0,6.587440968E0
8.428530920E-1,-1.038485050E0,2.481357098E0,6.695117950E0
8.528530920E-1,-1.038485050E0,2.481357098E0,6.695117950E0
8.628530920E-1,-1.038485050E0,2.481357098E0,6.695117950E0
8.728530920E-1,-1.038485050E0,2.481357098E0,6.695117950E0
8.828530920E-1,-6.580262184E-1,2.761317253E0,6.675975323E0
8.928530920E-1,-7.657032609E-1,2.792423964E0,7.046862602E0
9.028530920E-1,-7.561319470E-1,2.766103029E0,7.544569969E0
9.128530920E-1,-6.747759581E-1,2.679961443E0,8.054241180E0
9.228530920E-1,-6.747759581E-1,2.679961443E0,8.054241180E0
9.328530920E-1,-8.901300430E-1,2.780459881E0,9.099904060E0
9.428530920E-1,-8.015955687E-1,2.797209740E0,9.248259544E0
9.528530920E-1,-4.378865361E-1,2.711068153E0,9.343972206E0
9.628530920E-1,-2.416750938E-1,2.756531715E0,9.456435204E0
9.728530920E-1,-2.081755698E-1,2.823530674E0,9.793823242E0
9.828530920E-1,-2.368894368E-1,2.746960402E0,1.016231823E1
9.928530920E-1,-2.368894368E-1,2.746960402E0,1.016231823E1
1.002853092E0,-9.164510965E-1,2.419143677E0,1.102134132E1
1.012853092E0,-1.036092162E0,2.347358942E0,1.118883896E1
1.022853092E0,-1.040877819E0,2.342573404E0,1.121037388E1
1.032853092E0,-1.043270707E0,2.261217356E0,1.110269737E1
1.042853092E0,-8.135597110E-1,2.172683001E0,1.102612686E1
1.052853092E0,-2.967100143E-1,2.517249346E0,1.078205872E1
1.062853092E0,-4.785645306E-1,3.407379389E0,9.858428955E0
1.072853092E0,-1.562513232E0,2.316252232E0,1.008096218E1
1.082853092E0,-2.270788670E0,6.580262184E-1,1.077966595E1
1.092853092E0,-2.289931297E0,-3.421736360E-1,1.181336498E1
1.102853092E0,-2.199003935E0,-6.197410822E-1,1.263171101E1
1.112853092E0,-2.146361828E0,-5.216353536E-1,1.324666595E1
1.122853092E0,-2.380858421E0,-4.331009090E-1,1.352662659E1
1.132853092E0,-1.584048629E0,-8.446664214E-1,1.352662659E1
1.142853092E0,-5.910272002E-1,-7.896314859E-1,1.356491184E1
1.152853092E0,7.082754970E-1,-3.086741269E-1,1.383769321E1
1.162853092E0,1.380658627E0,3.828516230E-2,1.365583897E1
1.172853092E0,1.799402595E0,3.254238665E-1,1.294995594E1
1.182853092E0,1.366301775E0,6.867401004E-1,1.185165024E1
1.192853092E0,6.652047038E-1,6.245267391E-1,1.065763187E1
1.202853092E0,6.652047038E-1,6.245267391E-1,1.065763187E1
1.212853092E0,6.652047038E-1,6.245267391E-1,1.065763187E1
1.222853092E0,6.652047038E-1,6.245267391E-1,1.065763187E1
1.232853092E0,6.652047038E-1,6.245267391E-1,1.065763187E1
1.242853092E0,5.096712112E-1,6.269195080E-1,7.384250641E0
1.252853092E0,3.613162339E-1,7.417750359E-1,7.415357590E0
1.262853092E0,1.268195957E-1,1.086341500E0,7.360322475E0
1.272853092E0,1.268195957E-1,1.086341500E0,7.360322475E0
1.282853092E0,1.268195957E-1,1.086341500E0,7.360322475E0
1.292853092E0,1.268195957E-1,1.086341500E0,7.360322475E0
1.302853092E0,-1.172483116E-1,1.485942841E0,7.099504948E0
1.312853092E0,1.435693651E-1,1.339980721E0,6.912864685E0
1.322853092E0,3.278166950E-1,1.284945726E0,6.905686378E0
1.332853092E0,5.288137794E-1,1.313659668E0,7.018148899E0
1.342853092E0,5.288137794E-1,1.313659668E0,7.018148899E0
1.352853092E0,5.288137794E-1,1.313659668E0,7.018148899E0
1.362853092E0,-3.349951655E-2,1.330409408E0,7.458428383E0
1.372853092E0,-1.627119333E-1,1.292124271E0,7.357929707E0
1.382853092E0,-3.230310678E-1,1.229910851E0,7.204789162E0
1.392853092E0,-5.072783828E-1,1.287338614E0,7.209574699E0
1.402853092E0,-2.440679073E-1,1.280160069E0,6.948757172E0
1.412853092E0,-3.278166950E-1,1.531406522E0,6.704689026E0
1.422853092E0,-2.943171859E-1,1.478764415E0,7.073183537E0
1.432853092E0,-1.124626622E-1,1.430907965E0,7.874779224E0
1.442853092E0,9.571290575E-3,1.624726534E0,8.752944946E0
1.452853092E0,-6.221338734E-2,1.976471543E0,9.523433685E0
1.462853092E0,-3.684946895E-1,2.402393818E0,1.027717304E1
1.472853092E0,-4.307080805E-1,2.711068153E0,1.074616623E1
1.482853092E0,7.178468257E-2,2.689532757E0,1.094477081E1
1.492853092E0,2.512463629E-1,2.620140791E0,1.115773201E1
1.502853092E0,3.541377485E-1,2.531606436E0,1.161715412E1
1.512853092E0,-2.392822644E-3,2.529213428E0,1.202154064E1
1.522853092E0,-3.828516304E-1,2.770888567E0,1.239721394E1
1.532853092E0,-4.307080805E-1,2.924029350E0,1.271785259E1
1.542853092E0,-3.302095234E-1,2.979064226E0,1.287099266E1
1.552853092E0,-2.153540403E-1,2.605783939E0,1.245942783E1
1.562853092E0,-2.536391914E-1,2.443071842E0,1.196411324E1
1.572853092E0,-3.972085714E-1,2.378465652E0,1.138026428E1
1.582853092E0,-4.091726840E-1,2.325823545E0,1.081316566E1
1.592853092E0,-3.110669553E-1,2.440679073E0,1.035374355E1
1.602853092E0,-2.153540403E-2,2.586641312E0,1.003789139E1
1.612853092E0,3.062812984E-1,2.380858421E0,1.013121128E1
1.622853092E0,3.062812984E-1,2.380858421E0,1.013121128E1
1.632853092E0,3.062812984E-1,2.380858421E0,1.013121128E1
1.642853092E0,3.062812984E-1,2.380858421E0,1.013121128E1
1.652853092E0,3.062812984E-1,2.380858421E0,1.013121128E1
1.662853092E0,-2.009970993E-1,3.517449200E-1,1.413201046E1
1.672853092E0,7.178467698E-3,4.809573591E-1,1.462253952E1
1.682853092E0,-2.871387303E-1,7.728816867E-1,1.462732506E1
1.692853092E0,-2.871387303E-1,7.728816867E-1,1.462732506E1
1.702853092E0,-2.871387303E-1,7.728816867E-1,1.462732506E1
1.712853092E0,-2.871387303E-1,7.728816867E-1,1.462732506E1
1.722853092E0,-1.536192179E0,1.938186288E0,1.073898792E1
1.732853092E0,-1.440479279E0,1.761117458E0,9.576076508E0
1.742853092E0,-9.379864931E-1,1.696511269E0,8.872586250E0
1.752853092E0,-4.426721931E-1,1.450050473E0,8.437092781E0
1.762853092E0,-4.426721931E-1,1.450050473E0,8.437092781E0
1.772853092E0,2.244467735E0,-2.392822653E-1,8.035098076E0
1.782853092E0,2.522035122E0,-5.647061467E-1,7.968099594E0
1.792853092E0,2.828316450E0,-8.207381964E-1,7.781459332E0
1.802853092E0,3.089133978E0,-8.662018180E-1,7.575676441E0
1.812853092E0,2.892922640E0,-1.210768223E0,7.290930748E0
1.822853092E0,2.268395901E0,-7.369893789E-1,6.640082836E0
1.832853092E0,2.268395901E0,-7.369893789E-1,6.640082836E0
1.842853092E0,1.485942841E0,-1.651047617E-1,6.108876228E0
1.852853092E0,1.426122308E0,-2.703889608E-1,5.958128452E0
1.862853092E0,1.232303619E0,-2.967100143E-1,5.761917114E0
1.872853092E0,1.138983607E0,-2.129612118E-1,5.532206059E0
1.882853092E0,1.081555843E0,-3.349951655E-2,5.489135265E0
1.892853092E0,3.493520916E-1,7.752745152E-1,5.568098068E0
1.902853092E0,-8.901300430E-1,2.170290232E0,6.223731518E0
1.912853092E0,-8.303094506E-1,2.266003132E0,6.771687984E0
1.922853092E0,-7.704889178E-1,2.440679073E0,7.214360237E0
1.932853092E0,-8.231309652E-1,2.572284460E0,7.546962738E0
1.942853092E0,-9.236295223E-1,2.641676188E0,7.786244869E0
1.952853092E0,-1.000199914E0,2.732603550E0,7.762316704E0
1.962853092E0,-9.714859724E-1,2.811566591E0,7.635497093E0
1.972853092E0,-3.445664644E-1,2.768495798E0,7.305287361E0
1.982853092E0,2.392822644E-3,2.543570518E0,7.324429989E0
1.992853092E0,2.392822644E-3,2.543570518E0,7.324429989E0
2.002853092E0,2.392822644E-3,2.543570518E0,7.324429989E0
2.012853092E0,1.244267747E-1,2.184647083E0,8.061419487E0
2.022853092E0,-1.579262912E-1,2.124826431E0,8.561519623E0
2.032853092E0,-3.589234054E-1,2.053041935E0,9.178867340E0
2.042853092E0,-3.589234054E-1,2.053041935E0,9.178867340E0
2.052853092E0,-3.589234054E-1,2.053041935E0,9.178867340E0
2.062853092E0,-3.589234054E-1,2.053041935E0,9.178867340E0
2.072853092E0,-2.703889608E-1,2.859423161E0,1.066720295E1
2.082853092E0,-1.196411345E-2,2.641676188E0,1.027956581E1
2.092853092E0,2.656033039E-1,2.266003132E0,9.994820595E0
2.102853092E0,9.571290761E-2,1.873580098E0,9.817750931E0
2.112853092E0,9.571290761E-2,1.873580098E0,9.817750931E0
2.122853092E0,9.571290761E-2,1.873580098E0,9.817750931E0
2.132853092E0,-7.968099117E-1,8.183453679E-1,1.173918819E1
2.142853092E0,-5.024927482E-2,1.033699393E0,1.191864967E1
2.152853092E0,4.570291340E-1,1.473978758E0,1.193539906E1
2.162853092E0,3.014956415E-1,1.947757602E0,1.164826107E1
2.172853092E0,5.982056633E-2,2.026720762E0,1.098784161E1
2.182853092E0,5.982056633E-2,2.026720762E0,1.098784161E1
2.192853092E0,3.278166950E-1,-1.861616015E0,9.415757179E0
2.202853092E0,1.136590719E0,-2.301895380E0,1.050449181E1
2.212853092E0,1.402194023E0,-2.536391973E0,1.261496067E1
2.222853092E0,1.450050473E0,-2.651247501E0,1.436411476E1
2.232853092E0,2.493321180E0,-2.196611166E0,1.624965858E1
2.242853092E0,4.106083870E0,-1.840080619E0,1.760638809E1
2.252853092E0,3.421736479E0,-1.083948612E0,1.897508430E1
2.262853092E0,3.491128206E0,-5.982056856E-1,1.827877235E1
2.272853092E0,3.787838221E0,-6.795616150E-1,1.666600990E1
2.282853092E0,3.976871252E0,-8.135597110E-1,1.399561977E1
2.292853092E0,2.950350285E0,-7.896314859E-1,1.160519028E1
2.302853092E0,1.947757602E0,-8.111668825E-1,9.801001549E0
2.312853092E0,1.301695466E0,-4.881358147E-1,8.044670105E0
2.322853092E0,-7.178467698E-3,-5.192425251E-1,5.467599869E0
2.332853092E0,-1.842473447E-1,-4.307080805E-1,5.032105923E0
2.342853092E0,-4.546363056E-1,-1.962114573E-1,5.158925533E0
2.352853092E0,-5.934200287E-1,-1.220339537E-1,5.848058701E0
2.362853092E0,-4.450650215E-1,-7.417750359E-2,6.731009960E0
2.372853092E0,-3.182454109E-1,-5.503492057E-2,7.542177200E0
2.382853092E0,-2.584248483E-1,5.742774159E-2,8.200202942E0
2.392853092E0,-2.584248483E-1,5.742774159E-2,8.200202942E0
2.402853092E0,-2.584248483E-1,5.742774159E-2,8.200202942E0
2.412853092E0,-2.584248483E-1,5.742774159E-2,8.200202942E0
2.422853092E0,-2.584248483E-1,5.742774159E-2,8.200202942E0
2.432853092E0,2.703889608E-1,6.245267391E-1,6.867401123E0
2.442853092E0,3.302095234E-1,8.183453679E-1,6.661618233E0
2.452853092E0,1.268195957E-1,1.136590719E0,6.496513367E0
2.462853092E0,1.268195957E-1,1.136590719E0,6.496513367E0
2.472853092E0,1.268195957E-1,1.136590719E0,6.496513367E0
2.482853092E0,2.249253243E-1,1.624726534E0,7.329215527E0
2.482853092E0,2.249253243E-1,1.624726534E0,7.329215527E0
2.502853092E0,4.259224236E-1,1.998006940E0,8.130811691E0
2.512853092E0,3.421736360E-1,2.220539331E0,8.508877754E0
2.522853092E0,2.799602449E-1,2.347358942E0,8.910871506E0
2.532853092E0,2.799602449E-1,2.347358942E0,8.910871506E0
2.542853092E0,-2.344966233E-1,2.208575249E0,9.954142570E0
2.552853092E0,-5.551348329E-1,2.029113531E0,9.884750366E0
2.562853092E0,-4.977070987E-1,1.837687731E0,9.595218658E0
2.572853092E0,-4.450650215E-1,1.746760488E0,9.367900848E0
2.582853092E0,-3.397808075E-1,1.730010748E0,9.221938133E0
2.592853092E0,-1.220339537E-1,1.763510346E0,9.147761345E0
2.602853092E0,7.130611539E-1,1.921436548E0,8.800801277E0
2.612853092E0,1.390229940E0,2.021935225E0,8.829515457E0
2.622853092E0,1.756331801E0,2.120040894E0,9.274580956E0
2.632853092E0,1.962114573E0,2.268395901E0,1.005703354E1
2.642853092E0,2.100898266E0,2.414358139E0,1.035135078E1
2.652853092E0,1.978864312E0,2.187039852E0,1.060020447E1
2.662853092E0,1.933400750E0,1.933400750E0,1.064088249E1
2.672853092E0,1.131805062E0,1.849651933E0,1.063848972E1
2.682853092E0,6.771687865E-1,1.780260086E0,1.062891865E1
2.692853092E0,9.116654396E-1,1.978864312E0,1.057866859E1
2.702853092E0,1.363908887E0,2.423929453E0,1.045663452E1
2.712853092E0,1.847259045E0,2.335394859E0,1.055474091E1
2.722853092E0,2.306680918E0,1.718046665E0,1.076770210E1
2.732853092E0,2.232503414E0,1.251446247E0,1.066959572E1
2.742853092E0,1.663011789E0,5.790630579E-1,1.071984577E1
2.752853092E0,1.423729420E0,1.818545163E-1,1.093519974E1
2.762853092E0,1.485942841E0,-1.459621787E-1,1.142094231E1
2.772853092E0,1.962114573E0,-1.531406492E-1,1.206939697E1
2.782853092E0,2.450250387E0,-2.871387079E-2,1.274417305E1
2.792853092E0,2.651247501E0,1.387837082E-1,1.369412422E1
2.802853092E0,2.091326952E0,1.818545163E-1,1.433540058E1
2.812853092E0,1.744367719E0,-4.307080805E-2,1.377548027E1
2.822853092E0,1.655833244E0,2.273181528E-1,1.301456261E1
2.832853092E0,1.459621787E0,5.910272002E-1,1.194497108E1
2.842853092E0,1.124626637E0,1.069591761E0,1.066481018E1
2.852853092E0,8.901300430E-1,1.378265858E0,9.499505997E0
2.862853092E0,3.900300860E-1,1.548156261E0,8.267202377E0
2.872853092E0,2.392822653E-1,1.631905079E0,7.097112179E0
2.882853092E0,2.392822653E-1,1.631905079E0,7.097112179E0
2.892853092E0,2.392822653E-1,1.631905079E0,7.097112179E0
2.902853092E0,2.392822653E-1,1.631905079E0,7.097112179E0
2.912853092E0,2.392822653E-1,1.631905079E0,7.097112179E0
2.922853092E0,1.325623751E0,-2.919243574E-1,5.266602516E0
2.932853092E0,1.296909928E0,-2.201396823E-1,6.154339790E0
2.942853092E0,1.320838094E0,-1.339980662E-1,7.259823799E0
2.952853092E0,1.320838094E0,-1.339980662E-1,7.259823799E0
2.962853092E0,1.320838094E0,-1.339980662E-1,7.259823799E0
2.972853092E0,5.479564071E-1,8.781659007E-1,9.085547447E0
2.982853092E0,4.785645306E-1,9.547362328E-1,8.855836868E0
2.992853092E0,5.288137794E-1,9.810572863E-1,8.362915039E0
3.002853092E0,6.269195080E-1,1.105484009E0,7.740781307E0
3.012853092E0,5.359922647E-1,1.251446247E0,7.142575741E0
3.022853092E0,5.359922647E-1,1.251446247E0,7.142575741E0
3.032853092E0,1.986042857E-1,2.175075769E0,6.396014690E0
3.042853092E0,1.674975902E-1,2.426322222E0,6.451049805E0
3.052853092E0,1.459621787E-1,2.746960402E0,6.664011002E0
3.062853092E0,1.124626622E-1,3.005385160E0,6.972685337E0
3.072853092E0,7.896314561E-2,3.113062143E0,7.365108013E0
3.082853092E0,6.939185411E-2,3.184846878E0,7.759923935E0
3.092853092E0,-1.483550072E-1,2.969492912E0,8.748159409E0
3.102853092E0,-2.991028428E-1,2.825923443E0,9.099904060E0
3.112853092E0,-5.886343718E-1,2.880958557E0,9.157332420E0
3.122853092E0,-4.235295951E-1,2.847458839E0,9.245866776E0
3.132853092E0,5.264209956E-2,2.797209740E0,9.372686386E0
3.142853092E0,3.517449200E-1,2.773281336E0,9.667003632E0
3.152853092E0,5.551348329E-1,2.737389088E0,1.012642574E1
3.162853092E0,5.982056856E-1,2.715853691E0,1.113141060E1
3.172853092E0,6.652047038E-1,2.586641312E0,1.161954689E1
3.182853092E0,7.441678643E-1,2.385644197E0,1.197846985E1
3.192853092E0,6.867401004E-1,2.206182480E0,1.206700420E1
3.202853092E0,6.173482537E-1,2.036292076E0,1.194497108E1
3.212853092E0,6.388836503E-1,1.868794441E0,1.167218876E1
3.222853092E0,6.101697683E-1,1.708475351E0,1.144247818E1
3.232853092E0,8.087740541E-1,1.404586911E0,1.137547874E1
3.242853092E0,1.076770186E0,1.940579176E0,1.146401310E1
3.252853092E0,9.236295223E-1,2.696711063E0,1.147837067E1
3.262853092E0,5.503492355E-1,2.859423161E0,1.149751282E1
3.272853092E0,2.273181528E-1,2.036292076E0,1.116491032E1
3.282853092E0,-2.871387079E-2,1.000199914E0,1.051645565E1
3.292853092E0,-7.896314561E-2,2.584248483E-1,9.930213928E0
3.302853092E0,-4.331009090E-1,-9.571290612E-1,1.030110168E1
3.312853092E0,-3.086741269E-1,-1.256231904E0,1.115294647E1
3.322853092E0,-2.057827413E-1,-1.509871125E0,1.219143105E1
3.332853092E0,-3.373879790E-1,-1.433300734E0,1.350987625E1
3.342853092E0,2.153540403E-2,-1.012163997E0,1.489292812E1
3.352853092E0,5.623133183E-1,-6.867401004E-1,1.568016720E1
3.362853092E0,1.160519004E0,-8.446664214E-1,1.572563076E1
3.372853092E0,1.160519004E0,-8.446664214E-1,1.572563076E1
3.382853092E0,1.160519004E0,-8.446664214E-1,1.572563076E1
3.392853092E0,1.160519004E0,-8.446664214E-1,1.572563076E1
3.402853092E0,7.130611539E-1,-7.393822074E-1,9.499505997E0
3.412853092E0,6.340979934E-1,-4.450650215E-1,8.494520187E0
3.422853092E0,5.216353536E-1,-2.967100143E-1,7.798209190E0
3.432853092E0,3.613162339E-1,-1.483550072E-1,7.051648140E0
3.442853092E0,3.613162339E-1,-1.483550072E-1,7.051648140E0
3.452853092E0,3.613162339E-1,-1.483550072E-1,7.051648140E0
3.462853092E0,-1.651047617E-1,6.197410822E-1,4.943571568E0
3.472853092E0,-5.264209956E-2,6.843472719E-1,5.331208706E0
3.482853092E0,1.435693540E-2,8.709874153E-1,5.931807518E0
3.492853092E0,-3.110669367E-2,1.064806104E0,6.776473522E0
3.502853092E0,-3.349951655E-2,1.251446247E0,7.664210796E0
3.512853092E0,-3.349951655E-2,1.251446247E0,7.664210796E0
3.522853092E0,-3.349951655E-2,1.251446247E0,7.664210796E0
3.532853092E0,3.158525825E-1,1.217946768E0,7.891529083E0
3.542853092E0,3.732803464E-1,1.170090318E0,7.424928665E0
3.552853092E0,3.349951804E-1,1.177268744E0,7.240681171E0
3.562853092E0,4.283152521E-1,1.196411371E0,7.262216568E0
3.572853092E0,6.747759581E-1,1.265803218E0,7.369893551E0
3.582853092E0,6.747759581E-1,1.265803218E0,7.369893551E0
3.592853092E0,6.269195080E-1,1.488335729E0,7.707281590E0
3.602853092E0,4.689932466E-1,1.560120344E0,7.460821152E0
3.612853092E0,4.283152521E-1,1.629512191E0,7.142575741E0
3.622853092E0,3.517449200E-1,1.842473388E0,6.912864685E0
3.632853092E0,4.043870270E-1,1.976471543E0,7.049255371E0
3.642853092E0,3.541377485E-1,2.084148407E0,7.539783955E0
3.652853092E0,4.139583111E-1,2.199003935E0,9.253045082E0
3.662853092E0,5.096712112E-1,2.132004976E0,1.029631615E1
3.672853092E0,6.293123364E-1,2.182254314E0,1.117926693E1
3.682853092E0,6.317051649E-1,2.299502611E0,1.181575775E1
3.692853092E0,6.340979934E-1,2.407179594E0,1.211964703E1
3.702853092E0,5.742774606E-1,2.402393818E0,1.195214939E1
3.712853092E0,7.250252366E-1,2.294716835E0,1.156690502E1
3.722853092E0,1.012163997E0,2.132004976E0,1.098784161E1
3.732853092E0,8.422735929E-1,2.206182480E0,1.116251755E1
3.742853092E0,7.417750359E-1,2.057827473E0,1.148076344E1
3.752853092E0,3.708875179E-1,1.952543259E0,1.173679543E1
3.762853092E0,1.220339537E-1,1.794616938E0,1.199761295E1
3.772853092E0,-1.603191197E-1,1.536192179E0,1.212682533E1
3.782853092E0,-1.651047617E-1,1.514656782E0,1.214836025E1
3.792853092E0,-1.651047617E-1,1.514656782E0,1.214836025E1
3.802853092E0,-1.651047617E-1,1.514656782E0,1.214836025E1
3.812853092E0,-1.651047617E-1,1.514656782E0,1.214836025E1
3.822853092E0,1.624726534E0,1.064806104E0,1.122951698E1
3.832853092E0,1.081555843E0,9.690931439E-1,1.084905815E1
3.842853092E0,7.082754970E-1,5.479564071E-1,1.077248764E1
3.852853092E0,1.110269666E0,4.259224236E-1,1.135155106E1
3.862853092E0,1.110269666E0,4.259224236E-1,1.135155106E1
3.872853092E0,1.110269666E0,4.259224236E-1,1.135155106E1
3.882853092E0,-9.116654396E-1,7.393822074E-1,1.523988724E1
3.892853092E0,-1.086341500E0,9.523434043E-1,1.500778389E1
3.902853092E0,-9.954141974E-1,1.184447169E0,1.440479279E1
3.912853092E0,-9.547362328E-1,1.318445325E0,1.349312687E1
3.922853092E0,-9.164510965E-1,1.392622828E0,1.260778236E1
3.932853092E0,-9.164510965E-1,1.392622828E0,1.260778236E1
3.942853092E0,-1.495514154E0,1.471585870E0,9.516255379E0
3.952853092E0,-1.452443361E0,1.251446247E0,8.575876236E0
3.962853092E0,-3.134597540E-1,5.096712112E-1,7.781459332E0
3.972853092E0,9.427721500E-1,-1.244267747E-1,6.781259537E0
3.982853092E0,1.799402595E0,-5.503492355E-1,6.137589931E0
3.992853092E0,2.723032236E0,-1.074377418E0,5.761917114E0
4.002853092E0,3.431307554E0,-1.533799291E0,6.199803352E0
4.012853092E0,2.931207657E0,-1.404586911E0,6.702296257E0
4.022853092E0,2.285145521E0,-1.220339537E0,7.238288403E0
4.032853092E0,1.746760488E0,-9.786644578E-1,7.685746193E0
4.042853092E0,1.363908887E0,-4.809573591E-1,7.922635555E0
4.052853092E0,8.997012973E-1,7.417750359E-2,7.886743546E0
4.062853092E0,4.163511395E-1,6.125625968E-1,7.606783390E0
4.072853092E0,1.363908947E-1,1.507478237E0,6.745367050E0
4.082853092E0,2.464607358E-1,1.758724689E0,6.367300987E0
4.092853092E0,2.584248483E-1,1.892722726E0,6.173482418E0
4.102853092E0,2.967100143E-1,1.954936147E0,6.221338749E0
4.112853092E0,2.656033039E-1,2.021935225E0,6.489335060E0
4.122853092E0,2.895315289E-1,2.141576290E0,6.881757736E0
4.132853092E0,2.560320199E-1,2.246860504E0,7.298109055E0
4.142853092E0,1.914258115E-2,2.356930256E0,7.781459332E0
4.152853092E0,-2.416750938E-1,2.445464849E0,7.647460938E0
4.162853092E0,-7.345965505E-1,2.682354212E0,7.317251682E0
4.172853092E0,-9.188438654E-1,2.840280533E0,6.958328247E0
4.182853092E0,-8.159525394E-1,2.828316450E0,6.769295216E0
4.192853092E0,-5.431707501E-1,2.615355253E0,6.860222340E0
4.202853092E0,-4.354937077E-1,2.445464849E0,7.168896675E0
4.212853092E0,-2.129612118E-1,2.545963287E0,8.221738815E0
4.222853092E0,-2.153540403E-1,2.579462767E0,8.867800713E0
4.232853092E0,-2.177468538E-1,2.536391973E0,9.425328255E0
4.242853092E0,7.657032460E-2,2.502892494E0,9.927821159E0
4.252853092E0,2.871387303E-1,2.543570518E0,1.033220863E1
4.262853092E0,5.264210105E-1,2.684746981E0,1.055474091E1
4.272853092E0,7.298108935E-1,2.797209740E0,1.046620655E1
4.282853092E0,8.015955687E-1,2.967100143E0,1.021256733E1
4.292853092E0,8.853443861E-1,2.888136864E0,1.018863869E1
4.302853092E0,9.978070259E-1,2.770888567E0,1.033460140E1
4.312853092E0,7.920243144E-1,2.780459881E0,1.043749237E1
4.322853092E0,4.713860750E-1,2.708675146E0,1.048295593E1
4.332853092E0,6.317051649E-1,2.533999205E0,1.062891865E1
4.342853092E0,6.604190469E-1,2.301895380E0,1.077248764E1
4.352853092E0,7.776673436E-1,2.421536446E0,1.126540947E1
4.362853092E0,1.045663476E0,3.038884640E0,1.096391296E1
4.372853092E0,7.058826685E-1,3.366701365E0,1.054038334E1
4.382853092E0,-2.775674164E-1,2.706282377E0,9.774680138E0
4.392853092E0,-1.170090318E0,1.485942841E0,8.867800713E0
4.402853092E0,-1.328016520E0,4.019941986E-1,8.884550095E0
4.412853092E0,-1.198804140E0,-6.197410822E-1,1.028435135E1
4.422853092E0,-1.198804140E0,-6.197410822E-1,1.028435135E1
4.432853092E0,-1.198804140E0,-6.197410822E-1,1.028435135E1
4.442853092E0,-1.198804140E0,-6.197410822E-1,1.028435135E1
4.452853092E0,1.938186288E0,-1.380658627E0,1.668993759E1
4.462853092E0,1.782652855E0,-7.513462901E-1,1.689332771E1
4.472853092E0,1.651047587E0,-3.182454109E-1,1.655594063E1
4.482853092E0,1.651047587E0,-3.182454109E-1,1.655594063E1
4.492853092E0,1.651047587E0,-3.182454109E-1,1.655594063E1
4.502853092E0,1.651047587E0,-3.182454109E-1,1.655594063E1
4.512853092E0,5.838487148E-1,1.411765367E-1,8.690732002E0
4.522853092E0,4.522434771E-1,4.785645287E-3,7.551748276E0
4.532853092E0,2.703889608E-1,6.460621208E-2,6.805187702E0
4.542853092E0,9.810572863E-2,3.278166950E-1,6.618547440E0
4.552853092E0,9.810572863E-2,3.278166950E-1,6.618547440E0
4.562853092E0,9.810572863E-2,3.278166950E-1,6.618547440E0
4.572853092E0,-5.383850932E-1,1.404586911E0,6.525227547E0
4.582853092E0,-5.934200287E-1,1.392622828E0,6.599404812E0
4.592853092E0,-6.580262184E-1,1.476371527E0,6.881757736E0
4.602853092E0,-7.848458290E-1,1.610369682E0,7.168896675E0
4.612853092E0,-7.848458290E-1,1.610369682E0,7.168896675E0
4.622853092E0,-7.848458290E-1,1.610369682E0,7.168896675E0
4.632853092E0,-7.848458290E-1,1.610369682E0,7.168896675E0
4.669868176E0,4.594219327E-1,3.957728624E0,9.164510727E0
4.679868176E0,6.699903607E-1,3.594019651E0,8.848658562E0
4.689868176E0,7.848458290E-1,3.364308596E0,9.614361763E0
4.699868176E0,8.135597110E-1,3.115455151E0,1.130369377E1
4.709868176E0,9.858429432E-1,2.641676188E0,1.197846985E1
4.719868176E0,1.397408366E0,2.105684042E0,1.232782269E1
4.729868176E0,1.205982566E0,1.890329838E0,1.182532978E1
4.739868176E0,1.430907965E0,2.110469580E0,1.172961617E1
4.749868176E0,1.517049551E0,2.455035925E0,1.176790142E1
4.759868176E0,7.704889178E-1,2.182254314E0,1.106441212E1
4.769868176E0,6.652047038E-1,1.923829436E0,1.087777138E1
4.779868176E0,4.929214716E-1,1.732403636E0,1.057627583E1
4.789868176E0,-2.153540403E-1,1.875972986E0,9.772287369E0
4.799868176E0,-9.571290612E-1,1.933400750E0,9.250652313E0
4.809868176E0,-9.619147182E-1,2.029113531E0,8.657232285E0
4.819868176E0,-1.095912814E0,2.249253273E0,7.542177200E0
4.829868176E0,-9.858429432E-1,2.517249346E0,6.666403770E0
4.839868176E0,-7.657032609E-1,2.569891453E0,5.675775528E0
4.849868176E0,-6.460621357E-1,2.512463808E0,5.517848969E0
4.859868176E0,-7.896314859E-1,2.407179594E0,5.972485542E0
4.869868176E0,-6.795616150E-1,2.086541414E0,6.259624004E0
4.879868176E0,-1.033699393E0,2.062613010E0,7.546962738E0
4.889868176E0,-1.033699393E0,1.952543259E0,8.475378036E0
4.899868176E0,-7.417750359E-1,2.067398787E0,8.116454124E0
4.909868176E0,-3.445664644E-1,2.148754835E0,7.877171993E0
4.919868176E0,2.632105052E-1,1.756331801E0,8.025527000E0
4.929868176E0,1.339980662E-1,1.861616015E0,7.896314621E0
4.939868176E0,-6.221338734E-2,1.727617979E0,7.623532772E0
4.949868176E0,-8.135596663E-2,1.631905079E0,7.427321434E0
4.959868176E0,-5.742774159E-2,1.770688772E0,6.805187702E0
4.969868176E0,2.679961324E-1,1.354337573E0,6.431907177E0
4.979868176E0,-9.571290575E-3,1.430907965E0,6.570691109E0
4.989868176E0,5.407779217E-1,1.277767301E0,7.068397999E0
4.999868176E0,6.317051649E-1,1.335195065E0,7.235895634E0
5.009868176E0,4.785645306E-1,1.765903115E0,7.293323517E0
5.019868176E0,3.541377485E-1,2.067398787E0,7.408178806E0
5.029868176E0,1.770688742E-1,2.234896421E0,7.992027760E0
5.039868176E0,-1.244267747E-1,2.416750908E0,7.987242222E0
5.049868176E0,-1.866401732E-1,2.483749866E0,8.054241180E0
5.059868176E0,-4.115654826E-1,2.541177750E0,8.461020470E0
5.069868176E0,-1.383051515E0,3.144168854E0,8.930013657E0
5.079868176E0,-2.053041935E0,3.488735437E0,1.022692394E1
5.089868176E0,-1.450050473E0,3.263810158E0,1.088255692E1
5.099868176E0,-1.737189293E0,3.163311481E0,1.247139168E1
5.109868176E0,-8.231309652E-1,2.756531715E0,1.232782269E1
5.119868176E0,6.699903309E-2,2.560320139E0,1.236132145E1
5.129868176E0,5.168496966E-1,2.593819857E0,1.224646664E1
5.139868176E0,4.881358147E-1,2.502892494E0,1.203111267E1
5.149868176E0,5.934200287E-1,2.321038008E0,1.164826107E1
5.159868176E0,7.465606928E-1,2.277967215E0,1.130848026E1
5.169868176E0,6.604190469E-1,1.909472466E0,1.068156052E1
5.179868176E0,8.805587292E-1,1.430907965E0,1.023170948E1
5.189868176E0,1.914258122E0,1.019342422E0,1.004506969E1
5.199868176E0,2.435893536E0,1.215553880E0,9.858428955E0
5.209868176E0,2.713460922E0,1.976471543E0,9.633503914E0
5.219868176E0,1.852044702E0,1.258624673E0,8.934800148E0
5.229868176E0,9.762716293E-1,1.287338614E0,1.034656525E1
5.239868176E0,-1.454836130E0,2.201396823E-1,1.150947666E1
5.249868176E0,-1.560120344E0,-2.392822690E-2,1.250489140E1
5.259868176E0,-1.607976794E0,-1.387837082E-1,1.247139168E1
5.269868176E0,-1.287338614E0,-2.871387079E-2,1.296431351E1
5.279868176E0,-1.445264935E0,-4.450650215E-1,1.328495121E1
5.289868176E0,-3.397808075E-1,-9.523434043E-1,1.373001671E1
5.299868176E0,1.689332843E0,-1.143769264E0,1.384487152E1
5.309868176E0,3.560520172E0,-1.488335729E0,1.328973675E1
5.319868176E0,3.809373617E0,-1.823330879E0,1.242832088E1
5.329868176E0,1.995614052E0,-1.086341500E0,1.155254745E1
5.339868176E0,-1.339980662E-1,4.785645381E-2,1.085862923E1
5.349868176E0,-4.450650215E-1,1.722832322E-1,1.016471100E1
5.359868176E0,-1.363908887E0,3.062812984E-1,9.585647583E0
5.369868176E0,-1.655833244E0,2.871387303E-1,9.418149948E0
5.379868176E0,-1.287338614E0,2.775674164E-1,9.116654396E0
5.389868176E0,-7.226324677E-1,2.297109663E-1,8.992227554E0
5.399868176E0,-7.178468257E-2,7.657032460E-2,8.475378036E0
5.409868176E0,1.483550072E-1,8.853443861E-1,8.011170387E0
5.419868176E0,1.435693651E-1,1.512263894E0,7.475177765E0
5.429868176E0,3.254238665E-1,1.732403636E0,6.628118515E0
5.439868176E0,5.982056856E-1,1.775474429E0,6.173482418E0
5.449868176E0,4.546363056E-1,1.732403636E0,5.843272686E0
5.459868176E0,4.307080805E-2,1.765903115E0,5.618347645E0
5.469868176E0,-4.354937077E-1,1.962114573E0,5.139782906E0
5.479868176E0,-2.727817893E-1,2.086541414E0,4.713860512E0
5.489868176E0,-3.158525825E-1,2.091326952E0,4.565505505E0
5.499868176E0,-5.407779217E-1,2.038684845E0,5.130211830E0
5.509868176E0,-4.785645306E-1,1.890329838E0,5.508277893E0
5.519868176E0,-3.828516304E-1,1.904686809E0,6.364908218E0
5.529868176E0,-8.614161611E-1,2.091326952E0,7.259823799E0
5.539868176E0,-1.354337573E0,2.225325108E0,7.987242222E0
5.549868176E0,-1.249053478E0,2.378465652E0,8.164310455E0
5.559868176E0,-7.992027402E-1,2.435893536E0,7.834101200E0
5.569868176E0,-1.057627559E0,2.478964329E0,7.791030407E0
5.579868176E0,-1.483550072E0,2.742174864E0,7.685746193E0
5.589868176E0,-1.450050473E0,3.024527788E0,7.317251682E0
5.599868176E0,-1.383051515E0,3.101098061E0,7.322037220E0
5.609868176E0,-1.258624673E0,3.115455151E0,7.800601959E0
5.619868176E0,-1.062413216E0,3.096312523E0,8.700303078E0
5.629868176E0,-9.619147182E-1,3.249453068E0,1.036092186E1
5.639868176E0,-1.689332843E0,3.704089403E0,1.205504036E1
5.649868176E0,-2.076970100E0,4.091726780E0,1.308395386E1
5.659868176E0,-2.014756680E0,4.173082829E0,1.336630726E1
5.669868176E0,-1.947757602E0,4.034298897E0,1.282074356E1
5.679868176E0,-2.076970100E0,3.881158352E0,1.158604717E1
5.689868176E0,-1.703689694E0,3.871587038E0,1.059541893E1
5.699868176E0,-8.422735929E-1,3.799802303E0,9.992427826E0
5.709868176E0,-8.039883971E-1,3.292523861E0,1.025085258E1
5.719868176E0,-9.188438654E-1,2.914458036E0,1.072463131E1
5.729868176E0,-1.454836130E0,2.871387243E0,1.120319557E1
5.739868176E0,-1.899901152E0,3.005385160E0,1.153819084E1
5.749868176E0,-1.191625714E0,3.412165165E0,1.138983536E1
5.759868176E0,-3.397808075E-1,3.493520975E0,1.092084217E1
5.769868176E0,1.914258152E-1,3.129812002E0,1.105484104E1
5.779868176E0,4.546363056E-1,2.842673302E0,1.113141060E1
5.789868176E0,6.269195080E-1,2.440679073E0,1.116012478E1
5.799868176E0,5.216353536E-1,1.799402595E0,1.148554897E1
5.809868176E0,5.120640397E-1,1.521835208E0,1.211246777E1
5.819868176E0,5.503492355E-1,1.555334687E0,1.311745358E1
5.829868176E0,1.483550072E-1,1.660618901E0,1.341894913E1
5.839868176E0,7.178468257E-2,1.761117458E0,1.327059460E1
5.849868176E0,2.727817893E-1,1.995614052E0,1.310788250E1
5.859868176E0,-5.216353536E-1,1.789831281E0,1.276810169E1
5.869868176E0,-1.880758643E0,1.799402595E0,1.187318611E1
5.879868176E0,-1.914258122E0,2.239681959E0,1.142812061E1
5.889868176E0,-2.584248543E0,2.684746981E0,1.045184898E1
5.899868176E0,-2.938386202E0,2.914458036E0,9.370293617E0
5.909868176E0,-2.847458839E0,2.909672260E0,8.599804878E0
5.919868176E0,-1.995614052E0,2.708675146E0,8.011170387E0
5.929868176E0,-1.325623751E0,2.536391973E0,7.508677483E0
5.939868176E0,-2.727817893E-1,1.837687731E0,6.738188744E0
5.949868176E0,3.158525825E-1,1.306481123E0,6.154339790E0
5.959868176E0,9.092726111E-1,6.364908218E-1,6.393621922E0
5.969868176E0,1.239482164E0,2.488535494E-1,6.838686943E0
5.979868176E0,1.095912814E0,-3.828516230E-2,7.355536938E0
5.989868176E0,9.236295223E-1,-1.579262912E-1,8.030312538E0
5.999868176E0,1.383051515E0,3.828516230E-2,8.633303642E0
6.009868176E0,7.704889178E-1,7.609176040E-1,8.446663857E0
6.019868176E0,4.354937077E-1,1.095912814E0,7.977670670E0
6.029868176E0,2.009970993E-1,1.440479279E0,7.374679565E0
6.039868176E0,1.435693651E-1,1.847259045E0,6.647261143E0
6.049868176E0,9.571290761E-2,2.076970100E0,6.144768715E0
6.059868176E0,6.699903309E-2,2.368894339E0,5.508277893E0
6.069868176E0,-2.249253243E-1,2.703889608E0,5.173282623E0
6.079868176E0,-6.604190469E-1,2.991028309E0,5.125426292E0
6.089868176E0,-5.694918036E-1,3.273381472E0,5.450850010E0
6.099868176E0,-3.972085714E-1,3.445664644E0,5.848058701E0
6.109868176E0,-1.914258152E-1,3.684946775E0,6.101697922E0
6.119868176E0,-2.775674164E-1,3.775874138E0,6.302694798E0
6.129868176E0,-4.594219327E-1,3.881158352E0,6.254838467E0
6.139868176E0,-5.694918036E-1,3.871587038E0,6.068198204E0
6.149868176E0,-5.742774606E-1,3.713660717E0,6.297909260E0
6.159868176E0,-6.747759581E-1,3.723232031E0,6.350551128E0
6.169868176E0,-9.044869542E-1,3.876372576E0,6.092126369E0
6.179868176E0,-1.033699393E0,4.039084435E0,6.336194515E0
6.189868176E0,-9.475577474E-1,4.048655987E0,7.049255371E0
6.199868176E0,-9.379864931E-1,3.890729666E0,7.867600918E0
6.209868176E0,-1.124626637E0,3.718446493E0,8.441878319E0
6.219868176E0,-1.292124271E0,3.546163082E0,9.480362892E0
6.229868176E0,-1.464407444E0,3.292523861E0,1.019342422E1
6.239868176E0,-1.741974831E0,3.455235958E0,1.053320503E1
6.249868176E0,-1.933400750E0,3.838087559E0,1.081077290E1
6.259868176E0,-1.847259045E0,3.637090445E0,1.070548820E1
6.269868176E0,-1.564906001E0,3.359523058E0,1.027956581E1
6.279868176E0,-1.162911773E0,3.072384357E0,1.001156998E1
6.289868176E0,-4.402793646E-1,2.981456995E0,1.018385315E1
6.299868176E0,2.775674164E-1,3.450450182E0,1.074377346E1
6.309868176E0,5.312066078E-1,4.115654945E0,1.090648556E1
6.319868176E0,-3.493520916E-1,3.914657831E0,1.102134132E1
6.329868176E0,-1.942971945E0,2.909672260E0,1.146640587E1
6.339868176E0,-3.330809116E0,2.024327993E0,1.224168110E1
6.349868176E0,-3.790230989E0,1.741974831E0,1.333280754E1
6.359868176E0,-3.321237803E0,1.091127157E0,1.518006706E1
6.369868176E0,-2.579462767E0,8.757730722E-1,1.650569153E1
6.379868176E0,-2.033899307E0,6.460621357E-1,1.766860199E1
6.389868176E0,-1.875972986E0,7.752745152E-1,1.810409546E1
6.399868176E0,-1.794616938E0,8.805587292E-1,1.745803452E1
6.409868176E0,-1.670190215E0,7.322037220E-1,1.553899002E1
6.419868176E0,-1.406979680E0,8.135597110E-1,1.304088306E1
6.429868176E0,-1.172483087E0,9.427721500E-1,1.034656525E1
6.439868176E0,-1.349551916E0,1.138983607E0,8.886942863E0
6.449868176E0,-1.651047587E0,1.277767301E0,7.881958008E0
6.459868176E0,-1.588834286E0,1.368694544E0,7.652246952E0
6.469868176E0,-1.584048629E0,1.354337573E0,7.752745152E0
6.479868176E0,-1.660618901E0,1.363908887E0,8.121239662E0
6.489868176E0,-1.660618901E0,1.411765337E0,8.508877754E0
6.499868176E0,-1.718046665E0,1.674975872E0,8.743373871E0
6.509868176E0,-1.507478237E0,1.727617979E0,8.729017258E0
6.519868176E0,-1.182054400E0,1.679761529E0,8.437092781E0
6.529868176E0,-8.566305041E-1,1.861616015E0,8.030312538E0
6.539868176E0,-8.231309652E-1,1.909472466E0,7.661818027E0
6.549868176E0,-9.810572863E-1,2.057827473E0,7.054041386E0
6.559868176E0,-8.279166222E-1,1.923829436E0,6.570691109E0
6.569868176E0,-8.662018180E-1,2.057827473E0,5.972485542E0
6.579868176E0,-1.014556766E0,2.287538528E0,5.623133183E0
6.589868176E0,-1.225125194E0,2.187039852E0,5.446064472E0
6.599868176E0,-1.521835208E0,2.737389088E0,5.728417397E0
6.609868176E0,-1.952543259E0,3.005385160E0,5.886343479E0
6.619868176E0,-2.038684845E0,3.388236761E0,6.326622963E0
6.629868176E0,-2.129612207E0,3.617947817E0,6.929614544E0
6.639868176E0,-2.392822742E0,3.751945972E0,7.570890903E0
6.649868176E0,-2.230110645E0,3.838087559E0,8.236095428E0
6.659868176E0,-2.660818815E0,3.627519131E0,9.188439369E0
6.669868176E0,-2.962314367E0,3.550948858E0,1.028435135E1
6.679868176E0,-3.029313564E0,3.488735437E0,1.102134132E1
6.689868176E0,-3.397808075E0,3.407379389E0,1.150469112E1
6.699868176E0,-3.550948858E0,3.555734396E0,1.165783215E1
6.709868176E0,-3.436093330E0,3.747160196E0,1.173440266E1
6.719868176E0,-3.388236761E0,3.766302824E0,1.149033451E1
6.729868176E0,-2.933600664E0,3.574877024E0,1.073898792E1
6.739868176E0,-2.301895380E0,3.297309637E0,1.012164021E1
6.749868176E0,-2.014756680E0,2.981456995E0,9.734002113E0
6.759868176E0,-1.828116536E0,2.684746981E0,9.533005714E0
6.769868176E0,-1.765903115E0,2.555534601E0,9.667003632E0
6.779868176E0,-1.698904037E0,2.258824587E0,9.461220741E0
6.789868176E0,-1.545763373E0,2.234896421E0,9.418149948E0
6.799868176E0,-1.383051515E0,2.230110645E0,9.422935486E0
6.809868176E0,-1.311266780E0,2.182254314E0,9.269794464E0
6.819868176E0,-1.124626637E0,2.411965132E0,9.102297783E0
6.829868176E0,-3.254238665E-1,2.708675146E0,8.575876236E0
6.839868176E0,7.034898400E-1,2.665604353E0,8.255238533E0
6.849868176E0,1.483550072E0,2.177468538E0,8.394021988E0
6.859868176E0,7.704889178E-1,1.655833244E0,8.054241180E0
6.869868176E0,-1.531406492E-1,9.667003751E-1,7.891529083E0
6.879868176E0,-2.297109663E-1,4.642075896E-1,9.102297783E0
6.889868176E0,2.871387079E-2,3.828516304E-1,1.065284634E1
6.899868176E0,2.488535494E-1,4.642075896E-1,1.190668583E1
6.909868176E0,9.332008362E-1,7.848458290E-1,1.168654537E1
6.919868176E0,2.115255117E0,1.306481123E0,1.250489140E1
6.929868176E0,1.143769264E0,1.282552958E0,1.260538960E1
6.939868176E0,8.374879360E-1,1.301695466E0,1.264367485E1
6.949868176E0,5.838487148E-1,1.588834286E0,1.306959724E1
6.959868176E0,-2.919243574E-1,1.732403636E0,1.272503090E1
6.969868176E0,-8.039883971E-1,2.148754835E0,1.177747345E1
6.979868176E0,-7.561319470E-1,2.287538528E0,1.077248764E1
6.989868176E0,-6.221339107E-1,2.167897224E0,9.317651749E0
6.999868176E0,-6.652047038E-1,2.340180635E0,7.934599876E0
7.009868176E0,-7.752745152E-1,2.636890650E0,7.211967468E0
7.019868176E0,-7.417750359E-1,2.833101988E0,6.982256413E0
7.029868176E0,-9.714859724E-1,2.612962246E0,6.910471916E0
7.039868176E0,-1.287338614E0,2.158325911E0,7.044469833E0
7.049868176E0,-1.129412293E0,1.828116536E0,7.183253765E0
7.059868176E0,-9.571290612E-1,1.765903115E0,7.489534855E0
7.069868176E0,-5.264210105E-1,1.832902193E0,7.781459332E0
7.079868176E0,-7.178468257E-2,1.823330879E0,7.733603001E0
7.089868176E0,4.785645306E-1,1.847259045E0,7.398607731E0
7.099868176E0,5.455635786E-1,2.005185366E0,6.896114826E0
7.109868176E0,5.503492355E-1,2.191825628E0,6.556334019E0
7.119868176E0,4.785645306E-1,2.230110645E0,6.293123722E0
7.129868176E0,1.244267747E-1,2.349751949E0,5.924628735E0
7.139868176E0,-3.828516230E-2,2.718246460E0,5.623133183E0
7.149868176E0,-2.201396823E-1,2.852244616E0,5.350351334E0
7.159868176E0,-5.120640397E-1,3.067598581E0,5.058426857E0
7.169868176E0,-2.344966233E-1,3.254238844E0,5.154139996E0
7.179868176E0,-1.674975902E-1,3.278167009E0,5.264209747E0
7.189868176E0,-1.244267747E-1,3.311666489E0,5.656632900E0
7.199868176E0,-9.858429432E-1,3.637090445E0,6.101697922E0
7.209868176E0,-1.450050473E0,4.005585194E0,6.819544315E0
7.219868176E0,-1.880758643E0,4.240081787E0,7.178467751E0
7.229868176E0,-2.206182480E0,4.484149456E0,7.925028801E0
7.239868176E0,-2.225325108E0,4.465006828E0,8.590232849E0
7.249868176E0,-2.234896421E0,4.268795490E0,9.284152031E0
7.259868176E0,-2.273181438E0,4.316651821E0,9.915857315E0
7.269868176E0,-2.354537487E0,4.192225456E0,1.044706345E1
7.279868176E0,-2.321038008E0,3.847658873E0,1.061456108E1
7.289868176E0,-1.765903115E0,3.335594654E0,1.065763187E1
7.299868176E0,-1.406979680E0,3.067598581E0,1.127498055E1
7.309868176E0,-1.071984529E0,2.708675146E0,1.184447193E1
7.319868176E0,-7.944171429E-1,2.775674343E0,1.210289669E1
7.329868176E0,-7.226324677E-1,2.837887764E0,1.181575775E1
7.339868176E0,-5.838487148E-1,2.608176708E0,1.145204926E1
7.349868176E0,3.684946895E-1,2.287538528E0,1.126540947E1
7.359868176E0,8.805587292E-1,2.392822742E0,1.120319557E1
7.369868176E0,1.689332843E0,2.770888567E0,1.187318611E1
7.379868176E0,3.445664644E-1,2.426322222E0,1.241874981E1
7.389868176E0,-1.952543259E0,1.325623751E0,1.280638695E1
7.399868176E0,-2.684746981E0,6.843472719E-1,1.307916832E1
7.409868176E0,-2.483749866E0,-1.339980662E-1,1.376351547E1
7.419868176E0,-1.665404558E0,-3.062812984E-1,1.466800308E1
7.429868176E0,-7.513462901E-1,-1.770688742E-1,1.502692604E1
7.439868176E0,-3.828516230E-2,-3.254238665E-1,1.507956791E1
7.449868176E0,6.460621357E-1,-3.637090325E-1,1.462971783E1
7.459868176E0,1.895115495E0,-3.445664644E-1,1.469193077E1
7.469868176E0,2.177468538E0,-1.052841991E-1,1.440957832E1
7.479868176E0,1.158126116E0,-1.914258115E-2,1.265803146E1
7.489868176E0,6.460621357E-1,3.828516304E-1,1.017906761E1
7.499868176E0,1.818545163E-1,9.810572863E-1,8.949156761E0
7.509868176E0,-8.135597110E-1,1.306481123E0,7.274180889E0
7.519868176E0,-1.110269666E0,1.665404558E0,6.293123722E0
7.529868176E0,-1.406979680E0,1.947757602E0,6.173482418E0
7.539868176E0,-1.603191137E0,2.177468538E0,6.379265308E0
7.549868176E0,-1.569691658E0,2.277967215E0,6.824330330E0
7.559868176E0,-1.631905079E0,2.215753794E0,7.010970116E0
7.569868176E0,-1.775474429E0,2.100898266E0,6.733402729E0
7.579868176E0,-1.287338614E0,1.770688772E0,5.986842155E0
7.589868176E0,-8.135597110E-1,1.545763373E0,5.426921844E0
7.599868176E0,-7.274180651E-1,1.282552958E0,4.991427898E0
7.609868176E0,-9.810572863E-1,1.191625714E0,5.139782906E0
7.619868176E0,-1.263410330E0,1.421336651E0,5.905486107E0
7.629868176E0,-1.383051515E0,1.899901152E0,6.541976929E0
7.639868176E0,-1.459621787E0,2.172683001E0,6.876972198E0
7.649868176E0,-2.067398787E0,2.392822742E0,6.987041950E0
7.659868176E0,-2.713460922E0,2.435893536E0,7.173682213E0
7.669868176E0,-3.129812002E0,2.464607239E0,7.590033531E0
7.679868176E0,-3.292523861E0,1.933400750E0,8.035098076E0
7.689868176E0,-2.172683001E0,2.115255117E0,8.518448830E0
7.699868176E0,-1.225125194E0,2.713460922E0,7.877171993E0
7.709868176E0,-7.274180651E-1,2.794816732E0,7.939385414E0
7.719868176E0,-3.254238665E-1,2.450250387E0,8.164310455E0
7.729868176E0,8.135596663E-2,2.124826431E0,8.504091263E0
7.739868176E0,4.737788737E-1,2.368894339E0,8.743373871E0
7.749868176E0,2.392822653E-1,2.871387243E0,8.829515457E0
7.759868176E0,6.699903309E-2,3.144168854E0,9.054440498E0
7.769868176E0,-1.052841991E-1,2.933600664E0,9.528220177E0
7.779868176E0,-3.732803464E-1,2.517249346E0,9.978070259E0
7.789868176E0,-6.891329288E-1,1.842473388E0,1.040877819E1
7.799868176E0,-9.667003751E-1,1.325623751E0,1.072463131E1
7.809868176E0,-1.517049551E0,7.752745152E-1,1.087777138E1
7.819868176E0,-1.861616015E0,2.297109663E-1,1.093519974E1
7.829868176E0,-2.397608280E0,-2.440679073E-1,1.113619614E1
7.839868176E0,-2.976671457E0,-5.407779217E-1,1.160519028E1
7.849868176E0,-3.584448338E0,-5.216353536E-1,1.232782269E1
7.859868176E0,-4.211368084E0,-3.110669553E-1,1.281595802E1
7.869868176E0,-4.374079704E0,-1.770688742E-1,1.292602825E1
7.879868176E0,-4.297509670E0,1.244267747E-1,1.286859989E1
7.889868176E0,-3.598805189E0,1.770688742E-1,1.257667542E1
7.899868176E0,-2.258824587E0,-8.135596663E-2,1.203589821E1
7.909868176E0,-1.450050473E0,-2.105683982E-1,1.159561825E1
7.919868176E0,-1.440479279E0,-1.387837082E-1,1.128455162E1
7.929868176E0,-1.708475351E0,-1.483550072E-1,1.094477081E1
7.939868176E0,-2.043470621E0,-3.589234054E-1,1.069591713E1
7.949868176E0,-2.526820660E0,-6.317051649E-1,1.033699417E1
7.959868176E0,-2.842673302E0,-8.470591903E-1,1.012164021E1
7.969868176E0,-3.019742250E0,-8.805587292E-1,1.007378292E1
7.979868176E0,-2.842673302E0,-8.853443861E-1,1.031785107E1
7.989868176E0,-2.536391973E0,-9.427721500E-1,1.053799057E1
7.999868176E0,-2.076970100E0,-9.475577474E-1,1.071506023E1
8.009868176E0,-1.861616015E0,-7.274180651E-1,1.070070267E1
8.019868176E0,-1.598405480E0,-4.977070987E-1,1.059063339E1
8.029868176E0,-1.162911773E0,-3.732803464E-1,1.024606609E1
8.039868176E0,-8.805587292E-1,-2.057827413E-1,9.820143700E0
8.049868176E0,-8.997012973E-1,1.914258115E-2,9.150154114E0
8.059868176E0,-1.301695466E0,3.254238665E-1,8.618947029E0
8.069868176E0,-1.808973908E0,5.934200287E-1,8.059026718E0
8.079868176E0,-1.866401672E0,6.412764788E-1,7.594819069E0
8.089868176E0,-1.593619823E0,5.120640397E-1,6.862615108E0
8.099868176E0,-1.339980721E0,4.689932466E-1,6.077769279E0
8.109868176E0,-1.167697430E0,4.977070987E-1,5.565705299E0
8.119868176E0,-1.186840057E0,5.742774606E-1,5.111069202E0
8.129868176E0,-1.359123230E0,7.130611539E-1,4.981856823E0
8.139868176E0,-1.368694544E0,7.034898400E-1,5.173282623E0
8.149868176E0,-1.502692580E0,6.173482537E-1,5.446064472E0
8.159868176E0,-1.737189293E0,5.647061467E-1,5.771488190E0
8.169868176E0,-1.813759565E0,4.450650215E-1,5.838487148E0
8.179868176E0,-1.698904037E0,2.727817893E-1,5.728417397E0
8.189868176E0,-1.579262972E0,1.196411327E-1,5.474778175E0
8.199868176E0,-1.564906001E0,1.483550072E-1,5.240281582E0
8.209868176E0,-1.722832322E0,3.397808075E-1,5.316852093E0
8.219868176E0,-1.952543259E0,5.455635786E-1,5.809773445E0
8.229868176E0,-2.297109842E0,8.949156404E-1,6.675975323E0
8.239868176E0,-2.177468538E0,1.215553880E0,7.494320393E0
8.249868176E0,-1.966900229E0,1.512263894E0,7.891529083E0
8.259868176E0,-1.775474429E0,1.962114573E0,8.097311974E0
8.269868176E0,-1.694118381E0,2.225325108E0,8.001599312E0
8.279868176E0,-1.919043779E0,2.493321180E0,8.087740898E0
8.289868176E0,-2.368894339E0,2.608176708E0,8.365307808E0
8.299868176E0,-3.058027267E0,2.536391973E0,9.121439934E0
8.309868176E0,-3.632304668E0,2.153540373E0,1.006421185E1
8.319868176E0,-3.895515203E0,1.794616938E0,1.054277611E1
8.329868176E0,-4.216153622E0,1.722832322E0,1.094955635E1
8.339868176E0,-4.512863636E0,1.722832322E0,1.146162033E1
8.349868176E0,-5.067998409E0,1.521835208E0,1.241396427E1
8.359868176E0,-5.484349728E0,9.332008362E-1,1.294038486E1
8.369868176E0,-5.996413708E0,-2.392822690E-2,1.388794231E1
8.379868176E0,-6.671189308E0,-1.110269666E0,1.469671631E1
8.389868176E0,-7.360322475E0,-1.947757602E0,1.473978710E1
8.399868176E0,-7.958528042E0,-2.340180635E0,1.423729515E1
8.409868176E0,-7.704888821E0,-2.239681959E0,1.392622757E1
8.419868176E0,-5.991627693E0,-2.139183521E0,1.359123230E1
8.429868176E0,-4.670789719E0,-1.584048629E0,1.393579865E1
8.439868176E0,-3.981656790E0,-5.599204898E-1,1.483071518E1
8.449868176E0,-3.852444410E0,-5.790630579E-1,1.534756470E1
8.459868176E0,-4.015156269E0,-1.440479279E0,1.503171158E1
8.469868176E0,-4.594219685E0,-2.086541414E0,1.397886944E1
8.479868176E0,-5.168497086E0,-2.191825628E0,1.262453270E1
8.489868176E0,-5.857629776E0,-1.899901152E0,1.088255692E1
8.499868176E0,-5.958128452E0,-1.794616938E0,9.561718941E0
8.509868176E0,-5.642275810E0,-1.584048629E0,8.269595146E0
8.519868176E0,-4.929214478E0,-1.134197950E0,7.192824841E0
8.529868176E0,-4.125226021E0,-6.364908218E-1,6.704689026E0
8.539868176E0,-2.967100143E0,1.627119333E-1,6.570691109E0
8.549868176E0,-2.110469580E0,7.369893789E-1,6.546762943E0
8.559868176E0,-1.469193101E0,1.263410330E0,6.379265308E0
8.569868176E0,-1.153340459E0,1.540977836E0,6.101697922E0
8.579868176E0,-1.000199914E0,1.526620865E0,5.393422127E0
8.589868176E0,-6.795616150E-1,1.435693622E0,5.005784988E0
8.599868176E0,-5.599204898E-1,1.363908887E0,4.809573650E0
8.609868176E0,-7.752745152E-1,9.762716293E-1,4.603790760E0
8.619868176E0,-9.379864931E-1,8.087740541E-1,4.311866283E0
8.629868176E0,-1.296909928E0,1.028913736E0,4.163511276E0
8.639868176E0,-2.005185366E0,8.949156404E-1,3.986442566E0
8.649868176E0,-1.852044702E0,8.901300430E-1,3.905086517E0
8.659868176E0,-2.062613010E0,9.523434043E-1,4.393222332E0
8.669868176E0,-2.344966173E0,7.752745152E-1,4.694717884E0
8.679868176E0,-2.388036966E0,2.488535494E-1,4.991427898E0
8.689868176E0,-1.995614052E0,-3.158525825E-1,5.450850010E0
8.699868176E0,-2.349751949E0,-2.297109663E-1,5.953342915E0
8.709868176E0,-2.392822742E0,1.435693651E-1,6.675975323E0
8.719868176E0,-2.024327993E0,1.866401732E-1,7.460821152E0
8.729868176E0,-1.765903115E0,-7.417750359E-1,8.073383331E0
8.739868176E0,-1.555334687E0,-1.205982566E0,9.399007797E0
8.749868176E0,-1.981257200E0,-1.646261930E0,1.054756260E1
8.759868176E0,-2.718246460E0,-1.741974831E0,1.112662506E1
8.769868176E0,-3.527020693E0,-1.306481123E0,1.151904774E1
8.779868176E0,-4.000799656E0,-7.561319470E-1,1.172961617E1
8.789868176E0,-4.445864677E0,2.249253243E-1,1.237089348E1
8.799868176E0,-5.106283665E0,1.536192179E0,1.334237862E1
8.809868176E0,-4.125226021E0,1.373480201E0,1.308395386E1
8.819868176E0,-1.942971945E0,-7.657032460E-2,1.196411324E1
8.829868176E0,-1.512263894E0,-4.019941986E-1,1.127498055E1
8.839868176E0,-1.847259045E0,-2.871387303E-1,1.076291656E1
8.849868176E0,-2.273181438E0,-2.297109663E-1,1.043749237E1
8.859868176E0,-3.416950703E0,-8.183453679E-1,1.203111267E1
8.869868176E0,-1.756331801E0,-1.679761529E0,1.118405342E1
8.879868176E0,-2.139183521E0,-1.579262972E0,1.149990559E1
8.889868176E0,-2.053041935E0,-1.378265858E0,1.165783215E1
8.899868176E0,-1.871187329E0,-1.124626637E0,1.155254745E1
8.909868176E0,-9.906286001E-1,-1.411765337E0,1.131805134E1
8.919868176E0,-1.435693651E-1,-1.971685886E0,1.105484104E1
8.929868176E0,4.642075896E-1,-2.220539331E0,1.089691448E1
8.939868176E0,-5.886343718E-1,-1.435693622E0,1.115055370E1
8.949868176E0,-1.512263894E0,-1.205982566E0,1.125583744E1
8.959868176E0,-1.861616015E0,-1.612762451E0,1.115533924E1
8.969868176E0,-2.115255117E0,-1.665404558E0,1.085384369E1
8.979868176E0,-2.378465652E0,-1.311266780E0,1.038963604E1
8.989868176E0,-2.378465652E0,-1.048056364E0,1.010728264E1
8.999868176E0,-2.086541414E0,-8.518448472E-1,9.992427826E0
9.009868176E0,-1.502692580E0,-9.714859724E-1,1.046620655E1
9.019868176E0,-1.004985452E0,-1.517049551E0,1.086341476E1
9.029868176E0,-5.694918036E-1,-1.981257200E0,1.097348499E1
9.039868176E0,-1.579262912E-1,-2.239681959E0,1.082512951E1
9.049868176E0,7.417750359E-1,-2.488535643E0,1.066720295E1
9.059868176E0,1.550549030E0,-2.646461725E0,1.037527943E1
9.069868176E0,2.215753794E0,-2.766103029E0,1.003549862E1
9.079868176E0,2.641676188E0,-2.861815929E0,9.710074425E0
9.089868176E0,2.416750908E0,-2.861815929E0,9.456435204E0
9.099868176E0,1.899901152E0,-2.694318295E0,8.949156761E0
9.109868176E0,1.373480201E0,-2.378465652E0,8.322237015E0
9.119868176E0,6.556333899E-1,-1.804188251E0,7.255038261E0
9.129868176E0,1.722832322E-1,-1.392622828E0,6.063412666E0
9.139868176E0,-2.057827413E-1,-1.095912814E0,5.225924492E0
9.149868176E0,-6.939185858E-1,-7.609176040E-1,4.522434711E0
9.159868176E0,-9.475577474E-1,-4.689932466E-1,4.445864677E0
9.169868176E0,-1.014556766E0,-3.254238665E-1,4.713860512E0
9.179868176E0,-8.231309652E-1,-4.498506486E-1,5.087141037E0
9.189868176E0,-5.216353536E-1,-5.503492355E-1,5.833701611E0
9.199868176E0,-1.148554832E-1,-5.168496966E-1,6.489335060E0
9.209868176E0,2.871387303E-1,-4.737788737E-1,6.848258495E0
9.219868176E0,6.939185858E-1,-3.541377485E-1,6.991827965E0
9.229868176E0,1.038485050E0,-3.828516304E-1,6.953542709E0
9.239868176E0,1.287338614E0,-2.584248483E-1,6.833901405E0
9.249868176E0,1.153340459E0,-5.742774159E-2,6.843472958E0
9.259868176E0,9.954141974E-1,8.135596663E-2,7.546962738E0
9.269868176E0,9.523434043E-1,-9.092725813E-2,8.767302513E0
9.279868176E0,1.071984529E0,-4.498506486E-1,9.662218094E0
9.289868176E0,1.301695466E0,-1.076770186E0,1.051884842E1
9.299868176E0,1.196411371E0,-1.651047587E0,1.069113159E1
9.309868176E0,5.312066078E-1,-1.962114573E0,1.052363396E1
9.319868176E0,-1.674975902E-1,-1.990828395E0,1.042313576E1
9.329868176E0,-1.081555843E0,-1.966900229E0,1.066241741E1
9.339868176E0,-1.785045743E0,-1.794616938E0,1.097348499E1
9.349868176E0,-1.823330879E0,-2.005185366E0,1.145683479E1
9.359868176E0,-1.588834286E0,-2.723032236E0,1.199282742E1
9.369868176E0,-1.703689694E0,-3.220739365E0,1.227996540E1
9.379868176E0,-2.120040894E0,-3.651447296E0,1.241874981E1
9.389868176E0,-2.378465652E0,-3.981656790E0,1.239960670E1
9.399868176E0,-2.852244616E0,-4.144368649E0,1.244746304E1
9.409868176E0,-3.172882795E0,-3.957728624E0,1.221775246E1
9.419868176E0,-3.230310678E0,-4.005585194E0,1.205025482E1
9.429868176E0,-1.928615093E0,-4.594219685E0,1.200239849E1
9.439868176E0,-2.679961324E-1,-5.163711071E0,1.220339584E1
9.449868176E0,6.556333899E-1,-4.852644444E0,1.286381435E1
9.459868176E0,9.140582681E-1,-4.254438877E0,1.357687569E1
9.469868176E0,1.191625714E0,-4.158725739E0,1.443829155E1
9.479868176E0,2.632105052E-1,-4.436293125E0,1.458186150E1
9.489868176E0,-8.566305041E-1,-4.388436794E0,1.415593910E1
9.499868176E0,-1.545763373E0,-4.689932346E0,1.339502144E1
9.509868176E0,-1.765903115E0,-4.599005222E0,1.303609753E1
9.519868176E0,-1.517049551E0,-4.316651821E0,1.252403355E1
9.529868176E0,-1.038485050E0,-4.115654945E0,1.202632618E1
9.539868176E0,-4.833501875E-1,-3.761517286E0,1.139462185E1
9.549868176E0,-1.339980662E-1,-3.096312523E0,1.079641533E1
9.559868176E0,2.057827413E-1,-2.512463808E0,1.033699417E1
9.569868176E0,6.412764788E-1,-1.909472466E0,9.690931320E0
9.579868176E0,9.140582681E-1,-1.517049551E0,9.121439934E0
9.589868176E0,1.220339537E0,-1.225125194E0,8.322237015E0
9.599868176E0,1.301695466E0,-1.138983607E0,7.647460938E0
9.609868176E0,9.332008362E-1,-1.057627559E0,7.025327206E0
9.619868176E0,3.206382394E-1,-1.024128079E0,6.814758778E0
9.629868176E0,-1.196411327E-1,-1.182054400E0,6.719046116E0
9.639868176E0,-4.977070987E-1,-1.359123230E0,6.738188744E0
9.649868176E0,-6.987041831E-1,-1.373480201E0,6.728617191E0
9.659868176E0,-7.896314859E-1,-1.292124271E0,6.541976929E0
9.669868176E0,-7.369893789E-1,-1.134197950E0,6.139982700E0
9.679868176E0,-4.354937077E-1,-8.949156404E-1,5.556134224E0
9.689868176E0,-8.135596663E-2,-8.183453679E-1,5.273781300E0
9.699868176E0,9.571290761E-2,-8.039883971E-1,5.450850010E0
9.709868176E0,3.541377485E-1,-9.092726111E-1,6.049055576E0
9.719868176E0,-4.785645287E-3,-9.523434043E-1,6.685546398E0
9.729868176E0,-1.866401732E-1,-8.949156404E-1,7.245467186E0
9.739868176E0,-1.196411327E-1,-8.327022791E-1,7.508677483E0
9.749868176E0,-5.647061467E-1,-5.982056856E-1,7.891529083E0
9.759868176E0,3.972085714E-1,-7.417750359E-1,8.092526436E0
9.769868176E0,1.244267747E-1,-6.317051649E-1,8.288737297E0
9.779868176E0,-2.919243574E-1,-2.392822653E-1,8.815158844E0
9.789868176E0,-4.402793646E-1,-3.158525825E-1,9.489934921E0
9.799868176E0,-4.307080805E-1,-6.221339107E-1,1.020299530E1
9.809868176E0,-1.962114573E-1,-9.858429432E-1,1.054277611E1
9.819868176E0,-8.614161611E-2,-9.762716293E-1,1.100219822E1
9.829868176E0,2.105683982E-1,-1.186840057E0,1.148554897E1
9.839868176E0,-4.785645381E-2,-1.172483087E0,1.156690502E1
9.849868176E0,-5.024927258E-1,-1.249053478E0,1.156211948E1
9.859868176E0,-9.619147182E-1,-1.785045743E0,1.145204926E1
9.869868176E0,-1.579262972E0,-1.866401672E0,1.125105190E1
9.879868176E0,-1.737189293E0,-1.966900229E0,1.148554897E1
9.889868176E0,-1.832902193E0,-2.043470621E0,1.122712421E1
9.899868176E0,-2.474178553E0,-1.316052437E0,1.077248764E1
9.909868176E0,-2.019542217E0,-1.196411371E0,1.022692394E1
9.919868176E0,-9.810572863E-1,-1.627119422E0,9.399007797E0
9.929868176E0,-3.349951804E-1,-1.885544300E0,9.260223389E0
9.939868176E0,-1.722832322E-1,-2.029113531E0,9.786644936E0
9.949868176E0,-5.216353536E-1,-2.124826431E0,1.062891865E1
9.959868176E0,-1.445264935E0,-2.321038008E0,1.197846985E1
9.969868176E0,-2.392822742E0,-2.550748825E0,1.324666595E1
9.979868176E0,-2.947957516E0,-2.732603550E0,1.372523022E1
9.989868176E0,-3.718446493E0,-2.378465652E0,1.412722492E1
9.999868176E0,-3.718446493E0,-2.378465652E0,1.412722492E1
1.000986818E1,-3.718446493E0,-2.378465652E0,1.412722492E1
1.001986818E1,-2.091326952E0,-2.871387243E0,1.353859043E1
1.002986818E1,-1.076770186E0,-2.531606436E0,1.341894913E1
1.003986818E1,2.871387079E-2,-2.388036966E0,1.299302673E1
1.004986818E1,6.125625968E-1,-2.311466694E0,1.265803146E1
1.005986818E1,8.135597110E-1,-2.502892494E0,1.237567902E1
1.006986818E1,8.709874153E-1,-2.770888567E0,1.193539906E1
1.007986818E1,1.282552958E0,-2.986242771E0,1.156690502E1
1.008986818E1,1.569691658E0,-3.125026464E0,1.085384369E1
1.009986818E1,1.818545222E0,-2.919243574E0,9.365508080E0
1.010986818E1,2.641676188E0,-2.737389088E0,7.791030407E0
1.011986818E1,2.981456995E0,-2.531606436E0,6.838686943E0
1.012986818E1,2.545963287E0,-2.029113531E0,6.001199245E0
1.013986818E1,1.976471543E0,-1.612762451E0,5.517848969E0
1.014986818E1,9.954141974E-1,-1.019342422E0,5.340780258E0
1.015986818E1,-9.571290761E-2,-5.264210105E-1,4.934000492E0
1.016986818E1,-3.924229145E-1,-4.211367965E-1,4.460221291E0
1.017986818E1,-6.364908218E-1,-2.392822653E-1,3.909872293E0
1.018986818E1,-1.019342422E0,2.632105052E-1,3.809373617E0
1.019986818E1,-1.914258152E-1,3.876372576E-1,3.938585997E0
1.020986818E1,-5.264209956E-2,6.364908218E-1,3.871587038E0
1.021986818E1,-2.727817893E-1,9.762716293E-1,4.532006264E0
1.022986818E1,-2.919243574E-1,1.038485050E0,5.211567879E0
1.023986818E1,-3.493520916E-1,1.153340459E0,5.752345562E0
1.024986818E1,-3.780659735E-1,1.172483087E0,6.407979012E0
1.025986818E1,-3.541377485E-1,1.119840980E0,6.848258495E0
1.026986818E1,-2.440679073E-1,1.239482164E0,7.140182972E0
1.027986818E1,-4.785645287E-3,1.344766378E0,7.077969551E0
1.028986818E1,2.727817893E-1,1.555334687E0,7.092326164E0
1.029986818E1,3.828516304E-1,1.808973908E0,7.613961697E0
1.030986818E1,1.435693540E-2,1.698904037E0,7.642675400E0
1.031986818E1,-2.440679073E-1,1.718046665E0,8.839086533E0
1.032986818E1,-7.465606928E-1,1.454836130E0,9.863214493E0
1.033986818E1,-1.014556766E0,1.028913736E0,1.003549862E1
1.034986818E1,-1.009771109E0,1.052842021E0,1.018863869E1
1.035986818E1,-1.292124271E0,1.225125194E0,1.116969585E1
1.036986818E1,-2.316252232E0,1.646261930E0,1.176311588E1
1.037986818E1,-3.010170937E0,1.665404558E0,1.229432297E1
1.038986818E1,-3.225524902E0,1.062413216E0,1.276331615E1
1.039986818E1,-3.263810158E0,5.407779217E-1,1.289731407E1
1.040986818E1,-3.278167009E0,-1.914258115E-2,1.294038486E1
1.041986818E1,-3.493520975E0,-2.584248483E-1,1.254796219E1
1.042986818E1,-3.976871252E0,-1.148554832E-1,1.115533924E1
1.043986818E1,-4.005585194E0,9.571290575E-3,9.762716293E0
1.044986818E1,-3.187239647E0,-2.488535494E-1,9.064012527E0
1.045986818E1,-1.995614052E0,-5.599204898E-1,9.327222824E0
1.046986818E1,-1.531406522E0,-7.034898400E-1,1.070070267E1
1.047986818E1,-1.469193101E0,-6.699903607E-1,1.351466274E1
1.048986818E1,-1.540977836E0,-8.039883971E-1,1.524228001E1
1.049986818E1,-2.206182480E0,-1.124626637E0,1.577827263E1
1.050986818E1,-3.512663603E0,-1.349551916E0,1.484985733E1
1.051986818E1,-3.847658873E0,-2.038684845E0,1.360080433E1
1.052986818E1,-3.866801500E0,-3.034099102E0,1.165304661E1
1.053986818E1,-3.665804386E0,-3.388236761E0,1.034177971E1
1.054986818E1,-3.555734396E0,-2.904886723E0,9.217152596E0
1.055986818E1,-3.302095175E0,-2.076970100E0,8.403593063E0
1.056986818E1,-2.311466694E0,-1.129412293E0,7.724031448E0
1.057986818E1,-1.076770186E0,-2.440679073E-1,7.915457249E0
1.058986818E1,-4.450650215E-1,5.886343718E-1,7.963313580E0
1.059986818E1,3.684946895E-1,1.268195987E0,7.704888821E0
1.060986818E1,9.619147182E-1,1.440479279E0,7.355536938E0
1.061986818E1,1.234696507E0,1.306481123E0,7.125825882E0
1.062986818E1,9.810572863E-1,1.162911773E0,7.106683254E0
1.063986818E1,3.924229145E-1,1.000199914E0,7.379465103E0
1.064986818E1,-1.244267747E-1,6.029912829E-1,7.575676441E0
1.065986818E1,-6.269195080E-1,3.397808075E-1,7.680960655E0
1.066986818E1,-1.320838094E0,1.962114573E-1,7.968099594E0
1.067986818E1,-1.780260086E0,2.105683982E-1,8.164310455E0
1.068986818E1,-1.808973908E0,1.770688742E-1,7.972885132E0
1.069986818E1,-1.507478237E0,1.435693651E-1,7.676175117E0
1.070986818E1,-1.071984529E0,1.674975902E-1,7.503891945E0
1.071986818E1,-4.929214716E-1,0.000000000E0,7.417750359E0
1.072986818E1,-2.967100143E-1,2.392822690E-2,7.403393269E0
1.073986818E1,-4.594219327E-1,1.818545163E-1,7.374679565E0
1.074986818E1,-7.944171429E-1,3.541377485E-1,7.456035137E0
1.075986818E1,-8.566305041E-1,1.100698411E-1,7.331608772E0
1.076986818E1,-1.325623751E0,2.344966233E-1,7.331608772E0
1.077986818E1,-1.689332843E0,4.354937077E-1,7.518248558E0
1.078986818E1,-1.631905079E0,2.536391914E-1,8.216953278E0
1.079986818E1,-1.612762451E0,9.571290761E-2,9.140582085E0
1.080986818E1,-1.469193101E0,-1.244267747E-1,1.008335495E1
1.081986818E1,-1.550549030E0,-2.632105052E-1,1.074377346E1
1.082986818E1,-1.813759565E0,-2.536391914E-1,1.135633659E1
1.083986818E1,-2.120040894E0,-1.627119333E-1,1.165304661E1
1.084986818E1,-2.172683001E0,-2.105683982E-1,1.178225899E1
1.085986818E1,-2.249253273E0,-2.727817893E-1,1.188754272E1
1.086986818E1,-2.383251429E0,-3.397808075E-1,1.181097221E1
1.087986818E1,-2.478964329E0,-5.934200287E-1,1.127019501E1
1.088986818E1,-2.536391973E0,-8.183453679E-1,1.089691448E1
1.089986818E1,-2.943171740E0,-7.322037220E-1,1.071984577E1
1.090986818E1,-3.215953588E0,-4.642075896E-1,1.073420238E1
1.091986818E1,-3.536591768E0,-9.092725813E-2,1.055713367E1
1.092986818E1,-3.723232031E0,3.445664644E-1,9.982855797E0
1.093986818E1,-3.254238844E0,3.637090325E-1,9.408578873E0
1.094986818E1,-2.708675146E0,9.571290761E-2,9.303294182E0
1.095986818E1,-2.679961443E0,-2.297109663E-1,9.820143700E0
1.096986818E1,-3.421736479E0,-7.417750359E-1,1.091127110E1
1.097986818E1,-4.297509670E0,-1.277767301E0,1.186361504E1
1.098986818E1,-5.077569485E0,-2.158325911E0,1.283988667E1
1.099986818E1,-5.690132141E0,-3.005385160E0,1.355294704E1
1.100986818E1,-6.053841114E0,-3.144168854E0,1.414636707E1
1.101986818E1,-5.800201893E0,-3.024527788E0,1.492164230E1
1.102986818E1,-5.029713154E0,-2.957528830E0,1.517528152E1
1.103986818E1,-3.771088600E0,-2.976671457E0,1.474935913E1
1.104986818E1,-2.909672260E0,-2.852244616E0,1.436172104E1
1.105986818E1,-2.033899307E0,-2.713460922E0,1.322752380E1
1.106986818E1,-1.325623751E0,-2.531606436E0,1.204068375E1
1.107986818E1,-9.427721500E-1,-2.359323025E0,1.125105190E1
1.108986818E1,-4.307080805E-1,-2.239681959E0,1.036092186E1
1.109986818E1,1.722832322E-1,-2.335394859E0,9.820143700E0
1.110986818E1,7.034898400E-1,-2.143969059E0,9.231510162E0
1.111986818E1,1.076770186E0,-2.038684845E0,8.772088051E0
1.112986818E1,1.569691658E0,-2.000399828E0,8.015955925E0
1.113986818E1,1.837687731E0,-1.914258122E0,7.010970116E0
1.114986818E1,1.488335729E0,-1.555334687E0,6.063412666E0
1.115986818E1,7.417750359E-1,-1.148554921E0,4.972285271E0
1.116986818E1,2.871387079E-2,-9.379864931E-1,4.369294167E0
1.117986818E1,-8.518448472E-1,-7.465606928E-1,3.938585997E0
1.118986818E1,-1.397408366E0,-6.412764788E-1,3.713660717E0
1.119986818E1,-1.804188251E0,-4.689932466E-1,3.550948858E0
1.120986818E1,-1.914258122E0,-2.392822653E-1,3.436093330E0
1.121986818E1,-1.923829436E0,-4.785645381E-2,3.402593851E0
1.122986818E1,-1.933400750E0,3.637090325E-1,3.483949661E0
1.123986818E1,-1.828116536E0,7.274180651E-1,3.909872293E0
1.124986818E1,-1.813759565E0,1.071984529E0,4.589433670E0
1.125986818E1,-1.617548108E0,8.183453679E-1,4.967499733E0
1.126986818E1,-2.258824587E0,1.349551916E0,5.206781864E0
1.127986818E1,-2.105684042E0,1.655833244E0,5.316852093E0
1.128986818E1,-2.019542217E0,1.718046665E0,5.766702652E0
1.129986818E1,-2.038684845E0,1.473978758E0,6.628118515E0
1.130986818E1,-2.268395901E0,1.325623751E0,7.446464062E0
1.131986818E1,-2.555534601E0,1.091127157E0,7.867600918E0
1.132986818E1,-2.632104874E0,9.379864931E-1,8.307880402E0
1.133986818E1,-2.522035122E0,7.369893789E-1,8.886942863E0
1.134986818E1,-2.555534601E0,3.972085714E-1,9.408578873E0
1.135986818E1,-2.445464849E0,-1.722832322E-1,1.004028416E1
1.136986818E1,-2.723032236E0,-1.004985452E0,1.098305607E1
1.137986818E1,-3.771088600E0,-1.253839016E0,1.154776192E1
1.138986818E1,-5.307280540E0,-1.603191137E0,1.208375454E1
1.139986818E1,-6.551548481E0,-1.823330879E0,1.222732353E1
1.140986818E1,-7.025327206E0,-1.904686809E0,1.213161087E1
1.141986818E1,-6.240481377E0,-1.981257200E0,1.216032505E1
1.142986818E1,-5.484349728E0,-1.631905079E0,1.236610699E1
1.143986818E1,-4.211368084E0,-1.134197950E0,1.234217930E1
1.144986818E1,-2.943171740E0,-9.284151793E-1,1.223689461E1
1.145986818E1,-1.469193101E0,-8.709874153E-1,1.208375454E1
1.146986818E1,-9.140582681E-1,-6.556333899E-1,1.242832088E1
1.147986818E1,-1.014556766E0,-7.513462901E-1,1.294517040E1
1.148986818E1,-1.531406522E0,-1.344766378E0,1.373480225E1
1.149986818E1,-2.373680115E0,-1.761117458E0,1.404586887E1
1.150986818E1,-3.646661758E0,-2.038684845E0,1.376830196E1
1.151986818E1,-4.589433670E0,-2.124826431E0,1.335195065E1
1.152986818E1,-5.656632900E0,-2.014756680E0,1.263410378E1
1.153986818E1,-6.278766632E0,-1.684547186E0,1.184925747E1
1.154986818E1,-6.326622963E0,-1.402194023E0,1.114098263E1
1.155986818E1,-5.924628735E0,-7.609176040E-1,1.034177971E1
1.156986818E1,-4.924428940E0,-4.594219327E-1,9.595218658E0
1.157986818E1,-3.469592810E0,-2.679961324E-1,8.599804878E0
1.158986818E1,-2.617748022E0,5.264209956E-2,7.814958572E0
1.159986818E1,-1.746760488E0,4.307080805E-1,6.819544315E0
1.160986818E1,-1.095912814E0,6.077769399E-1,6.221338749E0
1.161986818E1,-7.704889178E-1,5.790630579E-1,6.125626087E0
1.162986818E1,-1.043270707E0,4.881358147E-1,5.986842155E0
1.163986818E1,-1.450050473E0,3.302095234E-1,5.795416355E0
1.164986818E1,-1.852044702E0,-1.100698411E-1,5.613562107E0
1.165986818E1,-2.254039049E0,-4.211367965E-1,5.661418438E0
1.166986818E1,-2.770888567E0,-7.226324677E-1,5.962913990E0
1.167986818E1,-2.847458839E0,-1.129412293E0,6.561119556E0
1.168986818E1,-2.761317253E0,-1.344766378E0,7.010970116E0
1.169986818E1,-2.751745939E0,-1.402194023E0,7.130611420E0
1.170986818E1,-2.579462767E0,-1.545763373E0,6.948757172E0
1.171986818E1,-2.277967215E0,-1.550549030E0,6.594619274E0
1.172986818E1,-2.187039852E0,-1.191625714E0,6.427121639E0
1.173986818E1,-1.952543259E0,-8.422735929E-1,6.465406895E0
1.174986818E1,-1.339980721E0,-7.896314859E-1,6.819544315E0
1.175986818E1,-9.236295223E-1,-8.183453679E-1,7.259823799E0
1.176986818E1,-7.417750359E-1,-9.092726111E-1,8.006384850E0
1.177986818E1,-8.039883971E-1,-1.014556766E0,8.585447311E0
1.178986818E1,-7.513462901E-1,-1.268195987E0,9.126225471E0
1.179986818E1,-9.762716293E-1,-1.392622828E0,9.303294182E0
1.180986818E1,-1.737189293E0,-1.373480201E0,9.293723106E0
1.181986818E1,-2.785245657E0,-1.134197950E0,9.403793335E0
1.182986818E1,-3.330809116E0,-9.619147182E-1,9.710074425E0
1.183986818E1,-3.416950703E0,-7.465606928E-1,1.036570740E1
1.184986818E1,-3.086741209E0,-6.077769399E-1,1.082991505E1
1.185986818E1,-2.684746981E0,-3.062812984E-1,1.115055370E1
1.186986818E1,-2.531606436E0,-3.828516230E-2,1.120798111E1
1.187986818E1,-2.574677229E0,3.014956415E-1,1.136590767E1
1.188986818E1,-2.904886723E0,2.775674164E-1,1.124148083E1
1.189986818E1,-3.369094372E0,-5.264209956E-2,1.106919765E1
1.190986818E1,-4.345366001E0,-6.699903607E-1,1.102134132E1
1.191986818E1,-5.192425251E0,-1.177268744E0,1.107876873E1
1.192986818E1,-6.187839508E0,-1.617548108E0,1.164826107E1
1.193986818E1,-6.106483459E0,-1.971685886E0,1.205025482E1
1.194986818E1,-4.838287354E0,-2.612962246E0,1.247617722E1
1.195986818E1,-3.790230989E0,-2.694318295E0,1.302174091E1
1.196986818E1,-3.067598581E0,-2.723032236E0,1.352901936E1
1.197986818E1,-3.062813044E0,-2.818745136E0,1.385922909E1
1.198986818E1,-3.909872293E0,-2.871387243E0,1.402194023E1
1.199986818E1,-5.082355499E0,-3.120240688E0,1.360080433E1
1.200986818E1,-5.843272686E0,-3.345165968E0,1.291645622E1
1.201986818E1,-6.628118515E0,-3.373879910E0,1.205982590E1
1.202986818E1,-7.298109055E0,-3.120240688E0,1.148076344E1
1.203986818E1,-7.317251682E0,-2.813959360E0,1.116012478E1
1.204986818E1,-6.508477688E0,-2.723032236E0,1.117448139E1
1.205986818E1,-5.254638672E0,-2.790031195E0,1.113619614E1
1.206986818E1,-3.383451223E0,-2.703889608E0,1.113619614E1
1.207986818E1,-1.612762451E0,-2.627319336E0,1.107876873E1
1.208986818E1,1.627119333E-1,-2.502892494E0,1.067677498E1
1.209986818E1,1.067198873E0,-2.455035925E0,9.911071777E0
1.210986818E1,1.048056364E0,-2.498106956E0,9.154939651E0
1.211986818E1,2.105683982E-1,-2.493321180E0,8.580661774E0
1.212986818E1,-2.344966233E-1,-2.866601467E0,8.068597794E0
1.213986818E1,-7.082754970E-1,-2.967100143E0,6.991827965E0
1.214986818E1,-6.652047038E-1,-2.766103029E0,5.895915031E0
1.215986818E1,-2.679961324E-1,-2.459821701E0,4.599005222E0
1.216986818E1,2.297109663E-1,-1.914258122E0,3.550948858E0
1.217986818E1,6.269195080E-1,-1.383051515E0,3.010170937E0
1.218986818E1,7.992027402E-1,-5.168496966E-1,2.876172781E0
1.219986818E1,5.694918036E-1,1.962114573E-1,3.034099102E0
1.220986818E1,-1.818545163E-1,8.231309652E-1,3.153740168E0
1.221986818E1,-7.896314859E-1,1.028913736E0,3.349951744E0
1.222986818E1,-1.488335729E0,8.805587292E-1,3.302095175E0
1.223986818E1,-1.885544300E0,6.747759581E-1,3.522234917E0
1.224986818E1,-1.919043779E0,6.412764788E-1,3.795016766E0
1.225986818E1,-1.569691658E0,7.848458290E-1,4.182653904E0
1.226986818E1,-1.205982566E0,1.038485050E0,4.900500774E0
1.227986818E1,-9.475577474E-1,1.287338614E0,5.637490273E0
1.228986818E1,-8.374879360E-1,1.368694544E0,6.183053493E0
1.229986818E1,-7.896314859E-1,1.473978758E0,7.044469833E0
1.230986818E1,-8.183453679E-1,1.646261930E0,7.661818027E0
1.231986818E1,-8.614161611E-1,1.708475351E0,7.953742504E0
1.232986818E1,-9.714859724E-1,1.761117458E0,8.389236450E0
1.233986818E1,-1.215553880E0,1.718046665E0,8.863015175E0
1.234986818E1,-1.722832322E0,1.430907965E0,9.513862610E0
1.235986818E1,-2.593819857E0,9.810572863E-1,1.022213840E1
1.236986818E1,-3.517449379E0,7.226324677E-1,1.094955635E1
1.237986818E1,-4.570291042E0,6.460621357E-1,1.187318611E1
1.238986818E1,-5.149354458E0,6.795616150E-1,1.254796219E1
1.239986818E1,-5.273781300E0,4.929214716E-1,1.301216984E1
1.240986818E1,-5.455635548E0,2.871387303E-1,1.303131199E1
1.241986818E1,-6.159125328E0,1.387837082E-1,1.268674564E1
1.242986818E1,-7.135396957E0,1.531406492E-1,1.184925747E1
1.243986818E1,-7.580461979E0,2.440679073E-1,1.100219822E1
1.244986818E1,-7.255038261E0,0.000000000E0,1.038006496E1
1.245986818E1,-6.604190350E0,-4.115654826E-1,1.060977554E1
1.246986818E1,-6.259624004E0,-1.028913736E0,1.202154064E1
1.247986818E1,-6.293123722E0,-1.832902193E0,1.384008598E1
1.248986818E1,-5.982056618E0,-3.019742250E0,1.552941895E1
1.249986818E1,-5.513063431E0,-3.728017569E0,1.579741478E1
1.250986818E1,-5.230710506E0,-3.862015724E0,1.487857151E1
1.251986818E1,-4.886143684E0,-3.646661758E0,1.294995594E1
1.252986818E1,-4.522434711E0,-3.373879910E0,1.111705399E1
1.253986818E1,-4.096512318E0,-2.995813847E0,9.446864128E0
1.254986818E1,-3.570091486E0,-2.632104874E0,8.858229637E0
1.255986818E1,-2.220539331E0,-2.163111687E0,9.025727272E0
1.256986818E1,-8.279166222E-1,-1.383051515E0,9.600004196E0
1.257986818E1,-6.699903309E-2,-6.843472719E-1,9.954142570E0
1.258986818E1,1.531406492E-1,-2.871387079E-2,9.968499184E0
1.259986818E1,-2.153540403E-1,2.249253243E-1,9.662218094E0
1.260986818E1,-1.024128079E0,9.571290761E-2,9.064012527E0
1.261986818E1,-1.507478237E0,-1.196411327E-1,8.528019905E0
1.262986818E1,-1.718046665E0,-2.440679073E-1,7.858029366E0
1.263986818E1,-1.808973908E0,-9.092725813E-2,7.293323517E0
1.264986818E1,-1.866401672E0,2.440679073E-1,6.982256413E0
1.265986818E1,-1.852044702E0,7.369893789E-1,6.565905571E0
1.266986818E1,-1.440479279E0,1.014556766E0,6.178267956E0
1.267986818E1,-1.009771109E0,1.354337573E0,6.139982700E0
1.268986818E1,-1.201196909E0,1.737189293E0,6.561119556E0
1.269986818E1,-1.646261930E0,1.823330879E0,6.948757172E0
1.270986818E1,-1.942971945E0,1.579262972E0,7.077969551E0
1.271986818E1,-1.914258122E0,1.464407444E0,7.307680130E0
1.272986818E1,-1.421336651E0,1.162911773E0,7.637889862E0
1.273986818E1,-1.253839016E0,8.183453679E-1,8.121239662E0
1.274986818E1,-1.679761529E0,5.407779217E-1,8.829515457E0
1.275986818E1,-2.153540373E0,3.349951804E-1,9.384650230E0
1.276986818E1,-2.507678032E0,-6.221338734E-2,9.934999466E0
1.277986818E1,-2.435893536E0,-5.168496966E-1,1.009771156E1
1.278986818E1,-2.000399828E0,-7.896314859E-1,1.024606609E1
1.279986818E1,-1.574477315E0,-9.667003751E-1,1.092562866E1
1.280986818E1,-1.258624673E0,-1.234696507E0,1.136112213E1
1.281986818E1,-1.215553880E0,-1.794616938E0,1.116012478E1
1.282986818E1,-1.167697430E0,-2.201396942E0,1.067198944E1
1.283986818E1,-1.210768223E0,-2.584248543E0,1.018385315E1
1.284986818E1,-1.756331801E0,-2.641676188E0,9.700503349E0
1.285986818E1,-2.316252232E0,-2.560320139E0,9.523433685E0
1.286986818E1,-2.746960402E0,-2.478964329E0,9.183652878E0
1.287986818E1,-2.550748825E0,-2.335394859E0,8.896514893E0
1.288986818E1,-1.411765337E0,-2.206182480E0,8.551948547E0
1.289986818E1,-9.092725813E-2,-1.990828395E0,8.260024071E0
1.290986818E1,8.279166222E-1,-1.684547186E0,7.929814339E0
1.291986818E1,3.493520916E-1,-1.158126116E0,7.805387497E0
1.292986818E1,-4.785645381E-2,-1.325623751E0,7.972885132E0
1.293986818E1,-3.780659735E-1,-2.287538528E0,8.379665375E0
1.294986818E1,-8.327022791E-1,-2.742174864E0,8.819944382E0
1.295986818E1,-1.488335729E0,-2.574677229E0,9.442078590E0
1.296986818E1,-1.952543259E0,-2.455035925E0,9.533005714E0
1.297986818E1,-2.378465652E0,-2.282752752E0,9.408578873E0
1.298986818E1,-2.574677229E0,-2.163111687E0,9.628718376E0
1.299986818E1,-2.455035925E0,-2.206182480E0,1.015992451E1
1.300986818E1,-2.464607239E0,-2.048256159E0,1.123190975E1
1.301986818E1,-1.957328916E0,-2.000399828E0,1.249532032E1
1.302986818E1,-1.588834286E0,-2.057827473E0,1.402194023E1
1.303986818E1,-1.421336651E0,-1.746760488E0,1.459621811E1
1.304986818E1,-7.609176040E-1,-1.464407444E0,1.400279808E1
1.305986818E1,-1.100698411E-1,-1.287338614E0,1.205504036E1
1.306986818E1,8.614161611E-2,-1.119840980E0,1.051884842E1
1.307986818E1,-5.264209956E-2,-1.210768223E0,9.183652878E0
1.308986818E1,-6.317051649E-1,-1.612762451E0,8.681160927E0
1.309986818E1,-1.966900229E0,-2.134397745E0,8.685946465E0
1.310986818E1,-3.029313564E0,-2.311466694E0,9.509077072E0
1.311986818E1,-4.225724697E0,-2.239681959E0,9.748359680E0
1.312986818E1,-5.067998409E0,-1.962114573E0,1.010728264E1
1.313986818E1,-4.972285271E0,-1.880758643E0,1.001156998E1
1.314986818E1,-3.785445452E0,-1.493121386E0,9.657432556E0
1.315986818E1,-2.009970903E0,-1.205982566E0,9.384650230E0
1.316986818E1,-7.657032460E-2,-7.465606928E-1,8.882157326E0
1.317986818E1,8.087740541E-1,-3.014956415E-1,7.982456207E0
1.318986818E1,1.167697430E0,5.168496966E-1,6.441478729E0
1.319986818E1,1.210768223E0,1.177268744E0,5.426921844E0
1.320986818E1,1.019342422E0,1.253839016E0,4.957928658E0
1.321986818E1,7.082754970E-1,1.091127157E0,4.503292084E0
1.322986818E1,4.546363056E-1,9.427721500E-1,4.536791801E0
1.323986818E1,3.493520916E-1,8.805587292E-1,5.422136307E0
1.324986818E1,2.919243574E-1,9.523434043E-1,6.436692715E0
1.325986818E1,3.445664644E-1,1.076770186E0,7.652246952E0
1.326986818E1,6.269195080E-1,1.004985452E0,8.327022552E0
1.327986818E1,9.092726111E-1,7.896314859E-1,8.279166222E0
1.328986818E1,1.110269666E0,5.264210105E-1,8.001599312E0
1.329986818E1,1.138983607E0,5.694918036E-1,7.972885132E0
1.330986818E1,1.426122308E0,6.891329288E-1,8.073383331E0
1.331986818E1,1.957328916E0,6.652047038E-1,8.331808090E0
1.332986818E1,2.746960402E0,4.498506486E-1,8.355736732E0
1.333986818E1,3.445664644E0,-4.785645381E-2,8.078168869E0
1.334986818E1,3.785445452E0,-3.876372576E-1,8.063812256E0
1.335986818E1,3.661018610E0,-6.747759581E-1,8.350951195E0
1.336986818E1,2.818745136E0,-6.987041831E-1,8.853444099E0
1.337986818E1,1.603191137E0,-9.475577474E-1,1.011685371E1
1.338986818E1,4.737788737E-1,-1.282552958E0,1.105484104E1
1.339986818E1,-3.732803464E-1,-1.832902193E0,1.199282742E1
1.340986818E1,-6.412764788E-1,-2.201396942E0,1.266281700E1
1.341986818E1,-6.652047038E-1,-2.464607239E0,1.291167068E1
1.342986818E1,-1.004985452E0,-2.340180635E0,1.288295746E1
1.343986818E1,-1.641476393E0,-1.885544300E0,1.274895859E1
1.344986818E1,-2.230110645E0,-1.531406522E0,1.286381435E1
1.345986818E1,-2.024327993E0,-1.402194023E0,1.288774300E1
1.346986818E1,-1.938186288E0,-1.153340459E0,1.249532032E1
1.347986818E1,-1.765903115E0,-6.987041831E-1,1.212203979E1
1.348986818E1,-1.177268744E0,-8.949156404E-1,1.243310642E1
1.349986818E1,-3.445664644E-1,-2.029113531E0,1.352901936E1
1.350986818E1,-2.919243574E-1,-3.105883837E0,1.471585941E1
1.351986818E1,-1.009771109E0,-3.747160196E0,1.567777443E1
1.352986818E1,-1.852044702E0,-3.847658873E0,1.572084522E1
1.353986818E1,-2.598605394E0,-3.584448338E0,1.529492188E1
1.354986818E1,-3.182454109E0,-3.010170937E0,1.410808277E1
1.355986818E1,-3.000599623E0,-2.694318295E0,1.260060406E1
1.356986818E1,-2.445464849E0,-2.311466694E0,1.060977554E1
1.357986818E1,-2.072184324E0,-1.789831281E0,9.274580956E0
1.358986818E1,-1.947757602E0,-1.000199914E0,7.896314621E0
1.359986818E1,-1.966900229E0,-3.445664644E-1,7.054041386E0
1.360986818E1,-2.177468538E0,9.571290575E-3,6.924828529E0
1.361986818E1,-2.545963287E0,3.349951804E-1,7.192824841E0
1.362986818E1,-2.445464849E0,3.302095234E-1,7.671389580E0
1.363986818E1,-2.086541414E0,7.178468257E-2,8.346165657E0
1.364986818E1,-1.885544300E0,-1.339980662E-1,8.743373871E0
1.365986818E1,-1.540977836E0,-2.823530734E-1,9.059226990E0
1.366986818E1,-1.215553880E0,-2.632105052E-1,9.336793900E0
1.367986818E1,-1.234696507E0,-1.627119333E-1,9.231510162E0
1.368986818E1,-1.440479279E0,-1.387837082E-1,8.824729919E0
1.369986818E1,-1.540977836E0,-4.785645381E-2,8.499305725E0
1.370986818E1,-1.497906923E0,2.679961324E-1,8.015955925E0
1.371986818E1,-1.205982566E0,4.211367965E-1,7.527820110E0
1.372986818E1,-8.183453679E-1,6.173482537E-1,7.020541668E0
1.373986818E1,-3.206382394E-1,6.364908218E-1,6.422336102E0
1.374986818E1,-7.178468257E-2,5.359922647E-1,5.986842155E0
1.375986818E1,-2.584248483E-1,3.302095234E-1,5.862415314E0
1.376986818E1,-7.800601721E-1,3.828516230E-2,5.972485542E0
1.377986818E1,-1.703689694E0,-4.402793646E-1,6.230910301E0
1.378986818E1,-2.435893536E0,-7.800601721E-1,6.388836384E0
1.379986818E1,-3.043670416E0,-1.287338614E0,6.384050846E0
1.380986818E1,-2.823530674E0,-1.756331801E0,6.513263226E0
1.381986818E1,-2.301895380E0,-1.823330879E0,6.876972198E0
1.382986818E1,-1.861616015E0,-1.521835208E0,7.580461979E0
1.383986818E1,-1.497906923E0,-1.363908887E0,8.283951759E0
1.384986818E1,-1.110269666E0,-1.450050473E0,9.049654961E0
1.385986818E1,-1.028913736E0,-1.421336651E0,9.509077072E0
1.386986818E1,-1.263410330E0,-1.249053478E0,9.667003632E0
1.387986818E1,-1.512263894E0,-1.138983607E0,9.121439934E0
1.388986818E1,-1.727617979E0,-1.024128079E0,8.618947029E0
1.389986818E1,-1.794616938E0,-9.858429432E-1,8.437092781E0
1.390986818E1,-1.732403636E0,-1.167697430E0,8.743373871E0
1.391986818E1,-1.756331801E0,-1.392622828E0,9.394221306E0
1.392986818E1,-1.847259045E0,-1.440479279E0,9.949356079E0
1.393986818E1,-1.780260086E0,-1.253839016E0,1.059541893E1
1.394986818E1,-1.698904037E0,-9.475577474E-1,1.104048347E1
1.395986818E1,-1.785045743E0,-7.657032609E-1,1.133240795E1
1.396986818E1,-2.134397745E0,-7.178468108E-1,1.171047401E1
1.397986818E1,-2.301895380E0,-9.810572863E-1,1.212203979E1
1.398986818E1,-1.957328916E0,-1.866401672E0,1.284467220E1
1.399986818E1,-1.655833244E0,-2.512463808E0,1.344766331E1
1.400986818E1,-1.765903115E0,-2.799602509E0,1.402672672E1
1.401986818E1,-1.464407444E0,-2.943171740E0,1.440957832E1
1.402986818E1,-9.810572863E-1,-3.153740168E0,1.433300781E1
1.403986818E1,-8.183453679E-1,-3.211168051E0,1.388794231E1
1.404986818E1,-1.110269666E0,-2.981456995E0,1.364866066E1
1.405986818E1,-1.569691658E0,-2.794816732E0,1.417508125E1
1.406986818E1,-1.885544300E0,-2.885744095E0,1.507956791E1
1.407986818E1,-2.273181438E0,-3.617947817E0,1.611326790E1
1.408986818E1,-2.660818815E0,-4.378865242E0,1.623769379E1
1.409986818E1,-2.766103029E0,-4.785645485E0,1.557727528E1
1.410986818E1,-2.411965132E0,-4.895715237E0,1.414158154E1
1.411986818E1,-1.335195065E0,-4.924428940E0,1.259581852E1
1.412986818E1,-2.632105052E-1,-4.264009953E0,1.062413216E1
1.413986818E1,1.052841991E-1,-3.383451223E0,8.877371788E0
1.414986818E1,3.493520916E-1,-1.952543259E0,7.652246952E0
1.415986818E1,3.541377485E-1,-1.823330879E0,6.833901405E0
1.416986818E1,-8.279166222E-1,-1.177268744E0,7.006184578E0
1.417986818E1,-2.790031195E0,-2.201396823E-1,7.810173035E0
1.418986818E1,-3.125026464E0,-4.498506486E-1,8.609375954E0
1.419986818E1,-3.259024382E0,-4.067798555E-1,9.451649666E0
1.420986818E1,-3.115455151E0,-1.722832322E-1,9.982855797E0
1.421986818E1,-2.895315409E0,-1.531406492E-1,1.039920712E1
1.422986818E1,-1.957328916E0,-7.513462901E-1,1.003549862E1
1.423986818E1,-1.062413216E0,-1.014556766E0,9.379864693E0
1.424986818E1,-5.359922647E-1,-5.790630579E-1,8.499305725E0
1.425986818E1,-3.110669553E-1,1.914258115E-2,7.929814339E0
1.426986818E1,-2.679961324E-1,8.087740541E-1,6.991827965E0
1.427986818E1,-8.949156404E-1,1.866401672E0,6.297909260E0
1.428986818E1,-1.818545222E0,2.560320139E0,5.551348686E0
1.429986818E1,-1.722832322E0,1.502692580E0,5.168497086E0
1.430986818E1,-1.646261930E0,6.699903309E-2,4.292723656E0
1.431986818E1,-1.253839016E0,-1.435693540E-2,4.383651257E0
1.432986818E1,-9.188438654E-1,2.105683982E-1,4.761716843E0
1.433986818E1,-4.929214716E-1,2.392822690E-2,3.493520975E0
1.434986818E1,4.785645287E-3,-5.359922647E-1,1.555334687E0
1.435986818E1,4.354937077E-1,-8.566305041E-1,4.594219327E-1
1.436986818E1,-1.009771109E0,8.135596663E-2,1.081555843E0
1.437986818E1,-2.306680918E0,7.657032460E-2,2.397608280E0
1.438986818E1,-2.900100946E0,-4.785645381E-2,3.546163082E0
1.439986818E1,-2.679961443E0,2.153540403E-1,2.991028309E0
1.440986818E1,-2.512463808E0,9.523434043E-1,2.397608280E0
1.441986818E1,-3.225524902E0,1.976471543E0,3.249453068E0
1.442986818E1,-9.135796547E0,4.718646049E0,4.919643402E0
1.443986818E1,-9.145368576E0,5.766702652E0,6.001199245E0
1.444986818E1,-7.523034573E0,4.833501816E0,6.273981094E0
1.445986818E1,-2.981456995E0,1.507478237E0,6.058627129E0
1.446986818E1,-1.344766378E0,1.354337573E0,6.561119556E0
1.447986818E1,4.737788737E-1,1.847259045E0,7.934599876E0
1.448986818E1,1.737189293E0,2.617748022E0,9.078369141E0
1.449986818E1,6.652047038E-1,1.976471543E0,9.925428391E0
1.450986818E1,4.881358147E-1,-1.148554832E-1,1.041835022E1
1.451986818E1,2.249253273E0,-6.508477330E-1,8.212167740E0
1.452986818E1,3.086741209E0,-7.417750359E-1,9.188439369E0
1.453986818E1,5.111069202E0,-1.201196909E0,1.047577763E1
1.454986818E1,6.594619274E0,-2.325823545E0,1.267717457E1
1.455986818E1,6.326622963E0,-3.388236761E0,1.389751434E1
1.456986818E1,6.206982136E0,-4.283152580E0,1.517049599E1
1.457986818E1,6.599404812E0,-5.546562672E0,1.559163189E1
1.458986818E1,6.719046116E0,-5.623133183E0,1.546720600E1
1.459986818E1,4.661218643E0,-3.972085476E0,1.450050545E1
1.460986818E1,3.498306751E0,-3.766302824E0,1.293559933E1
1.461986818E1,2.857030153E0,-3.072384357E0,1.157169056E1
1.462986818E1,3.383451223E0,-2.249253273E0,1.096391296E1
1.463986818E1,4.096512318E0,-1.469193101E0,1.156690502E1
1.464986818E1,4.019941807E0,-5.168496966E-1,1.406022549E1
1.465986818E1,3.416950703E0,-4.211367965E-1,1.747717667E1
1.466986818E1,3.268595695E0,-1.962114573E-1,2.161676025E1
1.467986818E1,3.110669374E0,3.110669553E-1,2.316730881E1
1.468986818E1,1.962114573E0,1.718046665E0,2.292324066E1
1.469986818E1,2.148754835E0,1.856830359E0,1.975514412E1
1.470986818E1,2.029113531E0,1.842473388E0,1.663490295E1
1.471986818E1,9.188438654E-1,1.603191137E0,1.446222019E1
1.472986818E1,8.374879360E-1,3.230310678E0,1.306481171E1
1.473986818E1,-2.871387079E-2,3.072384357E0,1.121755219E1
1.474986818E1,-1.708475351E0,3.263810158E0,1.035613632E1
1.475986818E1,-3.876372576E0,3.976871252E0,1.016949654E1
1.476986818E1,-4.584648132E0,3.842873096E0,9.188439369E0
1.477986818E1,-4.187439442E0,3.622733593E0,8.154739380E0
1.478986818E1,-3.483949661E0,3.024527788E0,5.848058701E0
1.479986818E1,-2.483749866E0,1.842473388E0,3.890729666E0
1.480986818E1,-2.191825628E0,8.231309652E-1,2.402393818E0
1.481986818E1,-1.598405480E0,-3.828516230E-2,1.440479279E0
1.482986818E1,-1.392622828E0,-9.619147182E-1,1.004985452E0
1.483986818E1,-8.709874153E-1,-2.019542217E0,8.949156404E-1
1.484986818E1,-7.657032460E-2,-2.268395901E0,1.560120344E0
1.485986818E1,7.944171429E-1,-2.775674343E0,1.952543259E0
1.486986818E1,3.445664644E-1,-1.971685886E0,1.871187329E0
1.487986818E1,5.694918036E-1,-1.507478237E0,6.939185858E-1
1.488986818E1,9.810572863E-1,-1.502692580E0,1.722832322E-1
1.489986818E1,2.019542217E0,-2.244467735E0,1.220339537E0
1.490986818E1,2.531606436E0,-3.589233875E0,4.163511276E0
1.491986818E1,3.220739365E0,-4.852644444E0,7.312466145E0
1.492986818E1,4.814359188E0,-6.460621357E0,1.157169056E1
1.493986818E1,6.173482418E0,-7.499105930E0,1.505085468E1
1.494986818E1,5.685346603E0,-8.298309326E0,1.814238167E1
1.495986818E1,4.795216560E0,-8.815158844E0,1.881237221E1
1.496986818E1,4.790431023E0,-8.379665375E0,1.802752495E1
1.497986818E1,6.063412666E0,-6.441478729E0,1.644347763E1
1.498986818E1,7.135396957E0,-4.570291042E0,1.504606915E1
1.499986818E1,8.858229637E0,-2.627319336E0,1.299302673E1
1.500986818E1,1.003549862E1,-1.402194023E0,1.144726372E1
1.501986818E1,1.014556789E1,-4.115654826E-1,7.901100159E0
1.502986818E1,9.791430473E0,-6.699903607E-1,4.311866283E0
1.503986818E1,7.728816986E0,-1.148554921E0,1.727617979E0
1.504986818E1,4.335794449E0,-2.368894339E0,2.230110645E0
1.505986818E1,1.895115495E0,-3.383451223E0,6.111268997E0
1.506986818E1,-5.551348329E-1,-5.039284706E0,1.327538013E1
1.507986818E1,-1.598405480E0,-5.546562672E0,1.845344734E1
1.508986818E1,-1.660618901E0,-5.240281582E0,2.223410797E1
1.509986818E1,-1.172483087E0,-4.398007870E0,2.290409851E1
1.510986818E1,7.034898400E-1,-3.952943087E0,2.064048767E1
1.511986818E1,2.880958557E0,-4.177868366E0,1.643869209E1
1.512986818E1,5.603990555E0,-4.177868366E0,1.324188042E1
1.513986818E1,8.317451477E0,-3.795016766E0,9.513862610E0
1.514986818E1,9.877572060E0,-3.512663603E0,7.121040344E0
1.515986818E1,9.815358162E0,-3.091526747E0,5.852844238E0
1.516986818E1,8.877371788E0,-3.215953588E0,6.513263226E0
1.517986818E1,6.943971157E0,-3.244667530E0,7.891529083E0
1.518986818E1,5.254638672E0,-3.522234917E0,8.638090134E0
1.519986818E1,4.072584152E0,-3.431307554E0,8.714659691E0
1.520986818E1,2.852244616E0,-2.928814888E0,8.130811691E0
1.521986818E1,2.321038008E0,-2.565105915E0,7.293323517E0
1.522986818E1,2.378465652E0,-1.904686809E0,6.446264267E0
1.523986818E1,2.344966173E0,-1.416550994E0,5.661418438E0
1.524986818E1,2.110469580E0,-7.561319470E-1,5.039284706E0
1.525986818E1,2.311466694E0,-1.067198873E0,3.297309637E0
1.526986818E1,1.741974831E0,-6.843472719E-1,2.469393015E0
1.527986818E1,1.134197950E0,-6.029912829E-1,1.718046665E0
1.528986818E1,6.317051649E-1,-7.704889178E-1,1.469193101E0
1.529986818E1,5.742774159E-2,-1.076770186E0,1.631905079E0
1.530986818E1,1.148554832E-1,-1.062413216E0,2.450250387E0
1.531986818E1,3.637090325E-1,-9.762716293E-1,3.804588079E0
1.532986818E1,3.972085714E-1,-9.284151793E-1,4.168296814E0
1.533986818E1,2.823530734E-1,-9.044869542E-1,3.876372576E0
1.534986818E1,2.823530734E-1,-6.556333899E-1,3.091526747E0
1.535986818E1,2.727817893E-1,-1.818545163E-1,2.799602509E0
1.536986818E1,1.138983607E0,-5.694918036E-1,2.105684042E0
1.537986818E1,1.555334687E0,-6.987041831E-1,2.780459881E0
1.538986818E1,1.751546144E0,-8.566305041E-1,4.948357105E0
1.539986818E1,2.076970100E0,-2.124826431E0,7.714460373E0
1.540986818E1,1.919043779E0,-2.871387243E0,1.006421185E1
1.541986818E1,1.411765337E0,-3.215953588E0,1.181097221E1
1.542986818E1,1.655833244E0,-3.426522017E0,1.132283688E1
1.543986818E1,1.703689694E0,-3.010170937E0,9.126225471E0
1.544986818E1,1.828116536E0,-2.411965132E0,7.422535896E0
1.545986818E1,2.665604353E0,-1.641476393E0,6.723831654E0
1.546986818E1,3.818944931E0,-1.110269666E0,7.451249599E0
1.547986818E1,4.187439442E0,-1.091127157E0,8.882157326E0
1.548986818E1,4.608576298E0,-1.411765337E0,1.088255692E1
1.549986818E1,5.206781864E0,-1.655833244E0,1.249532032E1
1.550986818E1,5.225924492E0,-1.990828395E0,1.380658627E1
1.551986818E1,4.867001057E0,-2.081755638E0,1.390229988E1
1.552986818E1,4.182653904E0,-1.986042738E0,1.309831142E1
1.553986818E1,3.799802303E0,-1.564906001E0,1.181097221E1
1.554986818E1,4.134797573E0,-1.473978758E0,1.119841003E1
1.555986818E1,5.575276852E0,-1.938186288E0,1.124148083E1
1.556986818E1,7.350750923E0,-2.612962246E0,1.214118195E1
1.557986818E1,8.566305161E0,-3.297309637E0,1.191147137E1
1.558986818E1,7.939385414E0,-3.125026464E0,1.422772312E1
1.559986818E1,6.245266914E0,-5.412564754E0,1.414158154E1
1.560986818E1,1.942971945E0,-5.599205017E0,1.472064495E1
1.561986818E1,-2.105683982E-1,-6.675975323E0,1.356251907E1
1.562986818E1,-2.478964329E0,-7.484749317E0,1.307916832E1
1.563986818E1,-3.120240688E0,-7.747959614E0,1.292602825E1
1.564986818E1,-1.947757602E0,-7.345965385E0,1.283510113E1
1.565986818E1,3.637090325E-1,-6.427121639E0,1.194497108E1
1.566986818E1,2.230110645E0,-5.584847927E0,1.076291656E1
1.567986818E1,3.517449379E0,-4.369294167E0,9.609575272E0
1.568986818E1,3.795016766E0,-3.694518089E0,8.614161491E0
1.569986818E1,3.818944931E0,-3.034099102E0,6.805187702E0
1.570986818E1,3.201596737E0,-2.598605394E0,6.484549522E0
1.571986818E1,2.230110645E0,-2.330609322E0,6.230910301E0
1.572986818E1,1.574477315E0,-2.364108801E0,6.178267956E0
1.573986818E1,1.033699393E0,-2.416750908E0,6.403193474E0
1.574986818E1,6.221339107E-1,-2.301895380E0,6.747759819E0
1.575986818E1,4.259224236E-1,-2.115255117E0,6.752545357E0
1.576986818E1,3.158525825E-1,-1.957328916E0,6.637690067E0
1.577986818E1,1.339980662E-1,-1.670190215E0,6.336194515E0
1.578986818E1,1.244267747E-1,-1.545763373E0,5.340780258E0
1.579986818E1,2.727817893E-1,-1.569691658E0,4.321437836E0
1.580986818E1,4.833501875E-1,-1.655833244E0,3.799802303E0
1.581986818E1,7.369893789E-1,-1.808973908E0,3.536591768E0
1.582986818E1,8.422735929E-1,-2.392822742E0,2.991028309E0
1.583986818E1,7.369893789E-1,-2.301895380E0,3.479164124E0
1.584986818E1,1.301695466E0,-2.593819857E0,4.493721008E0
1.585986818E1,2.105684042E0,-2.799602509E0,5.728417397E0
1.586986818E1,2.469393015E0,-3.072384357E0,6.350551128E0
1.587986818E1,2.517249346E0,-3.426522017E0,6.345765591E0
1.588986818E1,2.593819857E0,-3.895515203E0,5.838487148E0
1.589986818E1,3.393022537E0,-4.311866283E0,5.584847927E0
1.590986818E1,4.450650215E0,-4.393222332E0,5.958128452E0
1.591986818E1,4.934000492E0,-4.412364960E0,6.494120598E0
1.592986818E1,5.206781864E0,-4.756931305E0,7.259823799E0
1.593986818E1,4.517649174E0,-5.517848969E0,8.207381248E0
1.594986818E1,3.407379389E0,-6.053841114E0,9.107083321E0
1.595986818E1,1.861616015E0,-6.005984783E0,1.024606609E1
1.596986818E1,1.057627559E0,-5.422136307E0,1.114098263E1
1.597986818E1,1.100698471E0,-4.570291042E0,1.221296692E1
1.598986818E1,1.780260086E0,-4.053441525E0,1.344766331E1
1.599986818E1,1.756331801E0,-3.110669374E0,1.537627792E1
1.600986818E1,2.809173822E0,-3.153740168E0,1.810888100E1
1.601986818E1,3.833301783E0,-3.038884640E0,2.018106651E1
1.602986818E1,5.446064472E0,-3.527020693E0,2.241596222E1
1.603986818E1,5.919843197E0,-3.594019651E0,2.247817612E1
1.604986818E1,5.752345562E0,-4.149154663E0,2.018106651E1
1.605986818E1,4.823930264E0,-4.795216560E0,1.759681702E1
1.606986818E1,3.421736479E0,-5.627918720E0,1.450050545E1
1.607986818E1,2.124826431E0,-5.986842155E0,1.215553856E1
1.608986818E1,1.584048629E0,-6.474977970E0,1.111705399E1
1.609986818E1,1.612762451E0,-7.044469833E0,1.064806080E1
1.610986818E1,2.249253273E0,-7.613961697E0,1.021735287E1
1.611986818E1,3.512663603E0,-8.398807526E0,1.006421185E1
1.612986818E1,4.354937077E0,-8.920442581E0,1.025085258E1
1.613986818E1,5.479563713E0,-9.427721024E0,1.056191921E1
1.614986818E1,6.369693756E0,-9.422935486E0,1.067677498E1
1.615986818E1,6.489335060E0,-9.097511292E0,1.015513897E1
1.616986818E1,6.149554253E0,-8.547162056E0,8.532805443E0
1.617986818E1,5.647061348E0,-8.169096947E0,6.853044033E0
1.618986818E1,5.005784988E0,-7.695317745E0,4.938786030E0
1.619986818E1,4.699503899E0,-7.235895634E0,3.785445452E0
1.620986818E1,4.431507587E0,-6.355337143E0,2.737389088E0
1.621986818E1,4.015156269E0,-5.154139996E0,1.852044702E0
1.622986818E1,3.474378586E0,-4.431507587E0,1.253839016E0
1.623986818E1,2.502892494E0,-3.306880951E0,1.091127157E0
1.624986818E1,1.861616015E0,-2.522035122E0,1.311266780E0
1.625986818E1,1.368694544E0,-1.875972986E0,1.794616938E0
1.626986818E1,1.043270707E0,-1.469193101E0,2.134397745E0
1.627986818E1,6.987041831E-1,-1.158126116E0,2.488535643E0
1.628986818E1,1.770688742E-1,-9.044869542E-1,2.627319336E0
1.629986818E1,-9.571290575E-3,-8.805587292E-1,2.612962246E0
1.630986818E1,-5.742774159E-2,-1.000199914E0,2.560320139E0
1.631986818E1,2.344966233E-1,-9.714859724E-1,2.565105915E0
1.632986818E1,7.944171429E-1,-7.609176040E-1,2.857030153E0
1.633986818E1,1.153340459E0,-8.231309652E-1,3.024527788E0
1.634986818E1,1.363908887E0,-1.311266780E0,2.933600664E0
1.635986818E1,1.373480201E0,-1.507478237E0,3.215953588E0
1.636986818E1,1.383051515E0,-1.598405480E0,3.876372576E0
1.637986818E1,1.205982566E0,-2.029113531E0,4.441078663E0
1.638986818E1,1.038485050E0,-2.244467735E0,4.943571568E0
1.639986818E1,9.044869542E-1,-2.277967215E0,6.101697922E0
1.640986818E1,9.714859724E-1,-2.742174864E0,6.809973240E0
1.641986818E1,1.234696507E0,-3.560520172E0,7.824530125E0
1.642986818E1,1.531406522E0,-4.287938118E0,8.681160927E0
1.643986818E1,1.813759565E0,-4.747360229E0,9.260223389E0
1.644986818E1,2.234896421E0,-5.264209747E0,1.014556789E1
1.645986818E1,2.598605394E0,-5.197210789E0,1.116969585E1
1.646986818E1,2.842673302E0,-4.790431023E0,1.260060406E1
1.647986818E1,2.455035925E0,-4.302295208E0,1.382094383E1
1.648986818E1,2.373680115E0,-3.809373617E0,1.524706554E1
1.649986818E1,2.297109842E0,-3.163311481E0,1.616112328E1
1.650986818E1,1.981257200E0,-2.995813847E0,1.668276024E1
1.651986818E1,1.713261008E0,-2.435893536E0,1.714218140E1
1.652986818E1,1.823330879E0,-2.067398787E0,1.697946930E1
1.653986818E1,2.541177750E0,-2.091326952E0,1.591227055E1
1.654986818E1,2.833101988E0,-1.660618901E0,1.472064495E1
1.655986818E1,3.211168051E0,-1.440479279E0,1.353859043E1
1.656986818E1,3.943371773E0,-2.493321180E0,1.355773354E1
1.657986818E1,4.766502857E0,-3.766302824E0,1.444307709E1
1.658986818E1,5.886343479E0,-5.264209747E0,1.554856110E1
1.659986818E1,6.661618233E0,-6.647261143E0,1.481635761E1
1.660986818E1,5.972485542E0,-7.800601959E0,1.299302673E1
1.661986818E1,4.766502857E0,-8.408378601E0,1.150947666E1
1.662986818E1,3.196810961E0,-9.370293617E0,9.925428391E0
1.663986818E1,2.780459881E0,-9.896714211E0,9.073583603E0
1.664986818E1,3.139383316E0,-9.896714211E0,8.523234367E0
1.665986818E1,2.723032236E0,-1.008814049E1,8.164310455E0
1.666986818E1,3.192025423E0,-1.011206818E1,6.867401123E0
1.667986818E1,3.096312523E0,-8.451449394E0,4.517649174E0
1.668986818E1,2.483749866E0,-6.604190350E0,2.459821701E0
1.669986818E1,2.268395901E0,-5.522634506E0,1.694118381E0
1.670986818E1,2.115255117E0,-4.402793884E0,2.373680115E0
1.671986818E1,1.981257200E0,-3.885943890E0,3.780659676E0
1.672986818E1,1.722832322E0,-3.603590965E0,5.422136307E0
1.673986818E1,1.785045743E0,-3.594019651E0,6.455835342E0
1.674986818E1,1.933400750E0,-3.507878065E0,7.494320393E0
1.675986818E1,1.971685886E0,-3.249453068E0,7.953742504E0
1.676986818E1,1.765903115E0,-2.986242771E0,8.111668587E0
1.677986818E1,1.445264935E0,-2.589034081E0,6.848258495E0
1.678986818E1,1.129412293E0,-2.215753794E0,5.661418438E0
1.679986818E1,1.148554921E0,-2.005185366E0,4.551148891E0
1.680986818E1,1.440479279E0,-1.895115495E0,4.072584152E0
1.681986818E1,1.770688772E0,-1.718046665E0,3.550948858E0
1.682986818E1,2.062613010E0,-1.569691658E0,3.125026464E0
1.683986818E1,2.182254314E0,-1.488335729E0,2.847458839E0
1.684986818E1,2.292324066E0,-1.497906923E0,2.316252232E0
1.685986818E1,2.402393818E0,-1.584048629E0,2.096112728E0
1.686986818E1,2.277967215E0,-1.636690736E0,2.378465652E0
1.687986818E1,2.335394859E0,-1.823330879E0,2.766103029E0
1.688986818E1,2.909672260E0,-2.306680918E0,3.641875982E0
1.689986818E1,3.302095175E0,-2.842673302E0,4.919643402E0
1.690986818E1,3.249453068E0,-3.105883837E0,6.206982136E0
1.691986818E1,3.158525944E0,-3.565305710E0,6.977470875E0
1.692986818E1,3.196810961E0,-3.943371773E0,7.412964344E0
1.693986818E1,3.120240688E0,-4.259224415E0,8.197810173E0
1.694986818E1,3.177668571E0,-4.541577339E0,8.839086533E0
1.695986818E1,3.206382275E0,-5.005784988E0,9.978070259E0
1.696986818E1,3.278167009E0,-5.297709465E0,1.143769264E1
1.697986818E1,3.637090445E0,-5.316852093E0,1.263888931E1
1.698986818E1,3.632304668E0,-5.149354458E0,1.391665649E1
1.699986818E1,3.148954630E0,-5.044070244E0,1.452921867E1
1.700986818E1,2.273181438E0,-4.469792843E0,1.528535080E1
1.701986818E1,2.019542217E0,-4.058227062E0,1.602712631E1
1.702986818E1,2.603390932E0,-3.450450182E0,1.689332771E1
1.703986818E1,3.814159393E0,-3.842873096E0,1.758246040E1
1.704986818E1,5.058426857E0,-4.134797573E0,1.710868263E1
1.705986818E1,6.867401123E0,-4.493721008E0,1.641954803E1
1.706986818E1,8.212167740E0,-4.929214478E0,1.534756470E1
1.707986818E1,8.413164139E0,-4.785645485E0,1.409372520E1
1.708986818E1,7.709674358E0,-4.852644444E0,1.382094383E1
1.709986818E1,6.049055576E0,-5.206781864E0,1.334716511E1
1.710986818E1,4.670789719E0,-5.757131100E0,1.265803146E1
1.711986818E1,4.378865242E0,-6.427121639E0,1.246182060E1
1.712986818E1,4.977071285E0,-7.513463020E0,1.206461143E1
1.713986818E1,6.053841114E0,-8.331808090E0,1.144247818E1
1.714986818E1,7.470392227E0,-9.245866776E0,1.036092186E1
1.715986818E1,8.087740898E0,-9.686145782E0,9.188439369E0
1.716986818E1,7.944170952E0,-9.384650230E0,7.590033531E0
1.717986818E1,7.623532772E0,-8.973084450E0,5.714060307E0
1.718986818E1,7.006184578E0,-8.413164139E0,4.101297855E0
1.719986818E1,5.886343479E0,-7.360322475E0,2.292324066E0
1.720986818E1,4.833501816E0,-6.350551128E0,1.292124271E0
1.721986818E1,3.914657831E0,-5.039284706E0,-3.445664644E-1
1.722986818E1,2.890529871E0,-3.603590965E0,1.009771109E0
1.723986818E1,2.569891453E0,-2.483749866E0,2.976671457E0
1.724986818E1,1.804188251E0,-1.737189293E0,4.579862595E0
1.725986818E1,1.033699393E0,-1.172483087E0,4.900500774E0
1.726986818E1,4.211367965E-1,-2.727817893E-1,5.053641319E0
1.727986818E1,1.531406492E-1,-4.498506486E-1,4.651647091E0
1.728986818E1,-2.919243574E-1,-4.163511395E-1,4.259224415E0
1.729986818E1,-6.125625968E-1,-3.541377485E-1,3.823730469E0
1.730986818E1,-7.752745152E-1,-4.402793646E-1,3.239881754E0
1.731986818E1,-4.977070987E-1,-5.120640397E-1,2.622533560E0
1.732986818E1,-3.302095234E-1,-5.694918036E-1,2.694318295E0
1.733986818E1,-3.684946895E-1,-6.939185858E-1,3.010170937E0
1.734986818E1,-2.967100143E-1,-8.183453679E-1,3.235096216E0
1.735986818E1,-3.014956415E-1,-7.848458290E-1,3.239881754E0
1.736986818E1,-2.249253243E-1,-5.838487148E-1,3.134597778E0
1.737986818E1,1.627119333E-1,-1.244267747E-1,2.732603550E0
1.738986818E1,1.138983607E0,2.392822653E-1,2.416750908E0
1.739986818E1,1.698904037E0,3.493520916E-1,2.656033039E0
1.740986818E1,2.455035925E0,1.100698411E-1,4.058227062E0
1.741986818E1,2.885744095E0,-5.024927258E-1,5.867201328E0
1.742986818E1,2.536391973E0,-1.435693622E0,8.729017258E0
1.743986818E1,1.914258122E0,-2.057827473E0,1.069113159E1
1.744986818E1,1.354337573E0,-2.450250387E0,1.202632618E1
1.745986818E1,1.689332843E0,-2.440679073E0,1.224646664E1
1.746986818E1,2.809173822E0,-2.435893536E0,1.238046455E1
1.747986818E1,4.421936035E0,-2.474178553E0,1.299302673E1
1.748986818E1,5.077569485E0,-2.550748825E0,1.370608807E1
1.749986818E1,5.211567879E0,-3.058027267E0,1.458664703E1
1.750986818E1,4.914857864E0,-3.192025423E0,1.537149239E1
1.751986818E1,4.216153622E0,-2.986242771E0,1.594577026E1
1.752986818E1,3.948157310E0,-2.670390129E0,1.570170212E1
1.753986818E1,4.149154663E0,-1.957328916E0,1.399322701E1
1.754986818E1,4.919643402E0,-1.335195065E0,1.209811115E1
1.755986818E1,6.388836384E0,-1.880758643E0,1.142333508E1
1.756986818E1,8.805587769E0,-3.359523058E0,1.218903828E1
1.757986818E1,9.408578873E0,-4.421936035E0,1.495035553E1
1.758986818E1,8.532805443E0,-6.264409542E0,1.676890182E1
1.759986818E1,6.546762943E0,-7.642675400E0,1.692682648E1
1.760986818E1,4.622933388E0,-7.996813297E0,1.681675720E1
1.761986818E1,2.885744095E0,-8.599804878E0,1.615633774E1
1.762986818E1,2.129612207E0,-8.906085968E0,1.503649712E1
1.763986818E1,2.076970100E0,-8.853444099E0,1.252403355E1
1.764986818E1,2.498106956E0,-8.135597229E0,1.025085258E1
1.765986818E1,3.656233072E0,-6.642475605E0,7.312466145E0
1.766986818E1,4.814359188E0,-5.000999451E0,4.637290478E0
1.767986818E1,5.273781300E0,-3.914657831E0,3.828516245E0
1.768986818E1,4.833501816E0,-3.062813044E0,3.967299938E0
1.769986818E1,3.933800459E0,-2.617748022E0,4.431507587E0
1.770986818E1,2.579462767E0,-2.124826431E0,5.948556900E0
1.771986818E1,1.722832322E0,-1.971685886E0,6.963113785E0
1.772986818E1,8.422735929E-1,-1.703689694E0,8.097311974E0
1.773986818E1,3.397808075E-1,-1.540977836E0,8.647661209E0
1.774986818E1,2.536391914E-1,-1.560120344E0,8.365307808E0
1.775986818E1,4.019941986E-1,-1.564906001E0,7.350750923E0
1.776986818E1,6.652047038E-1,-1.478764415E0,6.297909260E0
1.777986818E1,8.135597110E-1,-1.239482164E0,5.173282623E0
1.778986818E1,9.667003751E-1,-1.115055323E0,4.173082829E0
1.779986818E1,1.244267821E0,-1.071984529E0,3.560520172E0
1.780986818E1,1.229910851E0,-9.188438654E-1,2.952743053E0
1.781986818E1,1.249053478E0,-1.033699393E0,2.550748825E0
1.782986818E1,1.607976794E0,-1.277767301E0,2.301895380E0
1.783986818E1,1.756331801E0,-1.268195987E0,2.651247501E0
1.784986818E1,1.828116536E0,-1.335195065E0,3.249453068E0
1.785986818E1,1.808973908E0,-1.201196909E0,4.048655987E0
1.786986818E1,1.818545222E0,-1.105484009E0,4.656432629E0
1.787986818E1,1.497906923E0,-1.148554921E0,4.996213913E0
1.788986818E1,1.536192179E0,-1.378265858E0,5.575276852E0
1.789986818E1,1.679761529E0,-1.737189293E0,7.101897717E0
1.790986818E1,1.770688772E0,-2.378465652E0,8.676374435E0
1.791986818E1,1.962114573E0,-3.225524902E0,1.085862923E1
1.792986818E1,2.392822742E0,-3.881158352E0,1.309352589E1
1.793986818E1,2.258824587E0,-4.130012035E0,1.377787304E1
1.794986818E1,2.210968018E0,-4.417150497E0,1.283988667E1
1.795986818E1,2.416750908E0,-4.560719967E0,1.133240795E1
1.796986818E1,3.833301783E0,-4.441078663E0,1.045663452E1
1.797986818E1,5.077569485E0,-4.173082829E0,1.085384369E1
1.798986818E1,5.594419479E0,-3.866801500E0,1.149512005E1
1.799986818E1,4.742574692E0,-3.665804386E0,1.211725426E1
1.800986818E1,3.469592810E0,-3.426522017E0,1.226082325E1
1.801986818E1,2.694318295E0,-3.148954630E0,1.257188988E1
1.802986818E1,2.847458839E0,-2.684746981E0,1.305045509E1
1.803986818E1,4.201796532E0,-2.450250387E0,1.274895859E1
1.804986818E1,4.613361835E0,-2.201396942E0,1.352901936E1
1.805986818E1,5.024927616E0,-2.158325911E0,1.473021603E1
1.806986818E1,5.206781864E0,-2.277967215E0,1.604148293E1
1.807986818E1,4.943571568E0,-2.718246460E0,1.692204094E1
1.808986818E1,4.996213913E0,-3.426522017E0,1.727139473E1
1.809986818E1,6.178267956E0,-4.264009953E0,1.784088516E1
1.810986818E1,8.461020470E0,-5.340780258E0,1.803709793E1
1.811986818E1,1.003549862E1,-6.029912949E0,1.709432411E1
1.812986818E1,1.138983536E1,-6.652047157E0,1.471107388E1
1.813986818E1,1.124626637E1,-6.829115868E0,1.100219822E1
1.814986818E1,1.027956581E1,-6.652047157E0,8.355736732E0
1.815986818E1,8.891729355E0,-6.307480335E0,5.029713154E0
1.816986818E1,7.905886173E0,-5.986842155E0,2.967100143E0
1.817986818E1,7.140182972E0,-5.651846886E0,1.143769264E0
1.818986818E1,6.604190350E0,-5.245067120E0,1.914258152E-1
1.819986818E1,5.800201893E0,-4.441078663E0,-3.110669553E-1
1.820986818E1,4.656432629E0,-3.474378586E0,1.387837082E-1
1.821986818E1,3.737588882E0,-2.718246460E0,1.086341500E0
1.822986818E1,2.866601467E0,-1.933400750E0,2.239681959E0
1.823986818E1,2.120040894E0,-1.406979680E0,2.928814888E0
1.824986818E1,1.296909928E0,-7.704889178E-1,3.326023579E0
1.825986818E1,7.704889178E-1,-4.402793646E-1,3.373879910E0
1.826986818E1,1.531406492E-1,-3.828516230E-2,3.105883837E0
1.827986818E1,-3.206382394E-1,4.785645306E-1,2.723032236E0
1.828986818E1,-4.642075896E-1,7.896314859E-1,2.301895380E0
1.829986818E1,-5.982056856E-1,1.067198873E0,2.234896421E0
1.830986818E1,-7.992027402E-1,1.182054400E0,2.431107759E0
1.831986818E1,-1.086341500E0,1.067198873E0,2.541177750E0
1.832986818E1,-1.062413216E0,6.508477330E-1,2.541177750E0
1.833986818E1,-1.134197950E0,2.536391914E-1,2.904886723E0
1.834986818E1,-6.508477330E-1,-2.105683982E-1,3.359523058E0
1.835986818E1,-3.493520916E-1,-4.019941986E-1,3.814159393E0
1.836986818E1,1.148554832E-1,-6.460621357E-1,4.331008911E0
1.837986818E1,4.450650215E-1,-9.044869542E-1,4.685146809E0
1.838986818E1,6.843472719E-1,-1.071984529E0,5.340780258E0
1.839986818E1,5.934200287E-1,-1.234696507E0,5.948556900E0
1.840986818E1,4.354937077E-1,-1.622333765E0,6.939185619E0
1.841986818E1,3.972085714E-1,-1.933400750E0,7.637889862E0
1.842986818E1,1.081555843E0,-2.139183521E0,8.341380119E0
1.843986818E1,2.254039049E0,-2.215753794E0,9.853643417E0
1.844986818E1,3.129812002E0,-2.321038008E0,1.143769264E1
1.845986818E1,4.268795490E0,-2.407179594E0,1.395494175E1
1.846986818E1,4.259224415E0,-2.292324066E0,1.529970837E1
1.847986818E1,3.900300980E0,-2.627319336E0,1.574955845E1
1.848986818E1,3.646661758E0,-2.790031195E0,1.637169266E1
1.849986818E1,3.713660717E0,-2.646461725E0,1.694597054E1
1.850986818E1,3.890729666E0,-2.316252232E0,1.755853271E1
1.851986818E1,3.900300980E0,-1.852044702E0,1.761596107E1
1.852986818E1,3.981656790E0,-9.044869542E-1,1.702254105E1
1.853986818E1,5.029713154E0,-6.699903607E-1,1.628555107E1
1.854986818E1,6.594619274E0,-1.631905079E0,1.560598946E1
1.855986818E1,6.613761902E0,-2.766103029E0,1.606062508E1
1.856986818E1,6.374479294E0,-3.732803345E0,1.536192131E1
1.857986818E1,5.192425251E0,-5.374279499E0,1.483550072E1
1.858986818E1,3.718446493E0,-6.412764549E0,1.432343674E1
1.859986818E1,1.684547186E0,-7.322037220E0,1.374915886E1
1.860986818E1,-3.349951655E-2,-7.805387497E0,1.318445301E1
1.861986818E1,-1.450050473E0,-8.571090698E0,1.223689461E1
1.862986818E1,-2.354537487E0,-8.528019905E0,1.131805134E1
1.863986818E1,-2.421536446E0,-7.556533813E0,1.061456108E1
1.864986818E1,-1.378265858E0,-5.986842155E0,9.327222824E0
1.865986818E1,-6.412764788E-1,-4.503292084E0,7.733603001E0
1.866986818E1,8.805587292E-1,-3.460021496E0,5.355136871E0
1.867986818E1,2.206182480E0,-3.072384357E0,4.345366001E0
1.868986818E1,3.479164124E0,-2.928814888E0,4.646861553E0
1.869986818E1,4.086941242E0,-3.043670416E0,6.336194515E0
1.870986818E1,3.914657831E0,-3.096312523E0,8.317451477E0
1.871986818E1,3.139383316E0,-3.125026464E0,1.041356373E1
1.872986818E1,2.201396942E0,-2.775674343E0,1.117926693E1
1.873986818E1,1.172483087E0,-2.105684042E0,1.079641533E1
1.874986818E1,5.694918036E-1,-1.540977836E0,9.556933403E0
1.875986818E1,1.483550072E-1,-8.518448472E-1,7.724031448E0
1.876986818E1,0.000000000E0,-3.637090325E-1,6.254838467E0
1.877986818E1,-9.571290761E-2,-7.657032460E-2,5.417350292E0
1.878986818E1,-1.962114573E-1,3.828516230E-2,4.622933388E0
1.879986818E1,-2.153540403E-1,-4.785645381E-2,4.086941242E0
1.880986818E1,-2.344966233E-1,-1.818545163E-1,3.656233072E0
1.881986818E1,-2.009970993E-1,-1.914258152E-1,3.326023579E0
1.882986818E1,1.818545163E-1,-4.689932466E-1,3.268595695E0
1.883986818E1,5.120640397E-1,-7.609176040E-1,3.728017569E0
1.884986818E1,7.369893789E-1,-1.148554921E0,4.173082829E0
1.885986818E1,9.379864931E-1,-1.598405480E0,4.890929699E0
1.886986818E1,1.153340459E0,-1.684547186E0,5.412564754E0
1.887986818E1,1.421336651E0,-1.560120344E0,5.642275810E0
1.888986818E1,1.856830359E0,-1.430907965E0,5.656632900E0
1.889986818E1,2.230110645E0,-1.450050473E0,5.584847927E0
1.890986818E1,2.876172781E0,-1.674975872E0,5.599205017E0
1.891986818E1,3.316452265E0,-1.895115495E0,5.857629776E0
1.892986818E1,3.125026464E0,-2.282752752E0,6.336194515E0
1.893986818E1,2.799602509E0,-2.641676188E0,6.738188744E0
1.894986818E1,2.359323025E0,-2.837887764E0,7.374679565E0
1.895986818E1,2.488535643E0,-3.129812002E0,7.929814339E0
1.896986818E1,3.101098061E0,-3.321237803E0,8.743373871E0
1.897986818E1,3.507878065E0,-3.043670416E0,9.753145218E0
1.898986818E1,3.823730469E0,-2.871387243E0,1.025563812E1
1.899986818E1,3.637090445E0,-2.522035122E0,1.106441212E1
1.900986818E1,3.158525944E0,-2.474178553E0,1.211725426E1
1.901986818E1,2.622533560E0,-2.598605394E0,1.388794231E1
1.902986818E1,2.239681959E0,-2.675175667E0,1.586919975E1
1.903986818E1,2.354537487E0,-2.636890650E0,1.724746513E1
1.904986818E1,3.795016766E0,-2.622533560E0,1.804188347E1
1.905986818E1,5.173282623E0,-2.933600664E0,1.799881172E1
1.906986818E1,5.163711071E0,-2.909672260E0,1.740060616E1
1.907986818E1,5.115854740E0,-2.780459881E0,1.656790352E1
1.908986818E1,5.331208706E0,-2.029113531E0,1.601276970E1
1.909986818E1,6.163911343E0,-1.540977836E0,1.571127319E1
1.910986818E1,6.680760860E0,-1.397408366E0,1.554856110E1
1.911986818E1,7.508677483E0,-1.579262972E0,1.497906971E1
1.912986818E1,8.394021988E0,-2.268395901E0,1.410808277E1
1.913986818E1,9.418149948E0,-3.436093330E0,1.290209961E1
1.914986818E1,9.944570541E0,-4.321437836E0,1.194018459E1
1.915986818E1,1.009292603E1,-5.321637630E0,1.054756260E1
1.916986818E1,9.394221306E0,-6.072983742E0,8.891729355E0
1.917986818E1,8.571090698E0,-6.441478729E0,7.336394310E0
1.918986818E1,7.479963779E0,-6.331408501E0,5.383851051E0
1.919986818E1,6.972685337E0,-6.001199245E0,4.125226021E0
1.920986818E1,6.417550564E0,-5.517848969E0,2.780459881E0
1.921986818E1,5.790630817E0,-5.058426857E0,1.780260086E0
1.922986818E1,4.713860512E0,-4.431507587E0,9.427721500E-1
1.923986818E1,3.330809116E0,-3.603590965E0,1.172483087E0
1.924986818E1,2.445464849E0,-2.952743053E0,2.033899307E0
1.925986818E1,1.507478237E0,-2.143969059E0,3.187239647E0
1.926986818E1,6.221339107E-1,-1.488335729E0,3.795016766E0
1.927986818E1,-3.445664644E-1,-8.805587292E-1,4.163511276E0
1.928986818E1,-9.188438654E-1,-5.694918036E-1,4.374079704E0
1.929986818E1,-1.579262972E0,-1.818545163E-1,4.307080746E0
1.930986818E1,-2.072184324E0,4.785645381E-2,4.019941807E0
1.931986818E1,-2.321038008E0,2.871387303E-1,4.024727821E0
1.932986818E1,-2.555534601E0,1.148554832E-1,4.110869408E0
1.933986818E1,-2.526820660E0,1.387837082E-1,4.335794449E0
1.934986818E1,-2.325823545E0,5.264209956E-2,4.776073933E0
1.935986818E1,-1.856830359E0,-4.785645287E-3,4.886143684E0
1.936986818E1,-1.115055323E0,-1.962114573E-1,4.163511276E0
1.937986818E1,-3.972085714E-1,-4.259224236E-1,3.799802303E0
1.938986818E1,1.148554832E-1,-4.833501875E-1,4.082155228E0
1.939986818E1,8.135597110E-1,-4.498506486E-1,4.680361271E0
1.940986818E1,1.272981644E0,-3.637090325E-1,5.517848969E0
1.941986818E1,1.732403636E0,-3.062812984E-1,7.092326164E0
1.942986818E1,1.799402595E0,-1.579262912E-1,8.216953278E0
1.943986818E1,1.741974831E0,-1.770688742E-1,9.064012527E0
1.944986818E1,1.727617979E0,-3.493520916E-1,9.829715729E0
1.945986818E1,1.703689694E0,-3.924229145E-1,1.037049294E1
1.946986818E1,2.110469580E0,-4.737788737E-1,1.134676456E1
1.947986818E1,2.364108801E0,-7.465606928E-1,1.243789196E1
1.948986818E1,2.076970100E0,-1.540977836E0,1.403151226E1
1.949986818E1,1.588834286E0,-2.364108801E0,1.527099419E1
1.950986818E1,9.810572863E-1,-3.373879910E0,1.656311798E1
1.951986818E1,5.264210105E-1,-4.134797573E0,1.712303925E1
1.952986818E1,6.317051649E-1,-4.546362877E0,1.724267960E1
1.953986818E1,1.344766378E0,-4.618147850E0,1.707039642E1
1.954986818E1,2.029113531E0,-4.067798615E0,1.643869209E1
1.955986818E1,4.120440483E0,-2.330609322E0,1.491207027E1
1.956986818E1,6.168696880E0,-3.326023579E0,1.378744411E1
1.957986818E1,7.877171993E0,-4.072584152E0,1.390708542E1
1.958986818E1,8.791230202E0,-5.067998409E0,1.436650753E1
1.959986818E1,8.623732567E0,-5.900700569E0,1.463450336E1
1.960986818E1,7.173682213E0,-6.781259537E0,1.415115356E1
1.961986818E1,5.474778175E0,-7.183253765E0,1.372523022E1
1.962986818E1,4.139583111E0,-7.714460373E0,1.316052437E1
1.963986818E1,3.637090445E0,-8.078168869E0,1.283988667E1
1.964986818E1,3.383451223E0,-8.173882484E0,1.217946720E1
1.965986818E1,3.493520975E0,-7.556533813E0,1.088255692E1
1.966986818E1,3.603590965E0,-6.532405853E0,9.049654961E0
1.967986818E1,3.412165165E0,-5.216353416E0,6.656832695E0
1.968986818E1,3.034099102E0,-4.421936035E0,5.345565796E0
1.969986818E1,2.402393818E0,-3.718446493E0,4.771288395E0
1.970986818E1,1.933400750E0,-3.493520975E0,5.106283665E0
1.971986818E1,1.378265858E0,-3.259024382E0,5.737988472E0
1.972986818E1,9.714859724E-1,-3.278167009E0,6.498906136E0
1.973986818E1,6.460621357E-1,-3.158525944E0,7.374679565E0
1.974986818E1,3.876372576E-1,-3.105883837E0,8.092526436E0
1.975986818E1,4.354937077E-1,-3.005385160E0,8.212167740E0
1.976986818E1,5.934200287E-1,-2.742174864E0,7.795815945E0
1.977986818E1,9.858429432E-1,-2.574677229E0,7.034898758E0
1.978986818E1,1.483550072E0,-2.301895380E0,5.737988472E0
1.979986818E1,2.129612207E0,-2.105684042E0,4.383651257E0
1.980986818E1,2.258824587E0,-1.861616015E0,3.761517286E0
1.981986818E1,2.210968018E0,-1.636690736E0,3.469592810E0
1.982986818E1,2.067398787E0,-1.430907965E0,3.483949661E0
1.983986818E1,1.952543259E0,-1.201196909E0,3.570091486E0
1.984986818E1,2.024327993E0,-1.110269666E0,3.531806231E0
1.985986818E1,2.493321180E0,-8.183453679E-1,3.579662561E0
1.986986818E1,2.770888567E0,-5.551348329E-1,3.560520172E0
1.986986818E1,2.770888567E0,-5.551348329E-1,3.560520172E0
1.988986818E1,2.852244616E0,-5.982056856E-1,4.608576298E0
1.989986818E1,3.148954630E0,-7.513462901E-1,5.268995285E0
1.990986818E1,3.455235958E0,-8.949156404E-1,6.317051888E0
1.991986818E1,3.498306751E0,-1.186840057E0,7.412964344E0
1.992986818E1,3.172882795E0,-1.765903115E0,8.695517540E0
1.993986818E1,2.823530674E0,-2.550748825E0,9.700503349E0
1.994986818E1,2.636890650E0,-2.995813847E0,1.032742214E1
1.995986818E1,2.703889608E0,-3.292523861E0,1.087298584E1
1.996986818E1,2.732603550E0,-3.297309637E0,1.119841003E1
1.997986818E1,2.976671457E0,-3.062813044E0,1.141854954E1
1.998986818E1,3.445664644E0,-2.689532757E0,1.116012478E1
1.999986818E1,3.627519131E0,-2.589034081E0,1.093519974E1
2.000986818E1,3.225524902E0,-2.402393818E0,1.079162979E1
2.001986818E1,2.770888567E0,-2.478964329E0,1.119841003E1
2.002986818E1,2.167897224E0,-2.416750908E0,1.281595802E1
2.003986818E1,2.282752752E0,-2.364108801E0,1.440479279E1
2.004986818E1,3.354737282E0,-2.411965132E0,1.634776497E1
2.005986818E1,4.953142643E0,-2.263610125E0,1.720918083E1
2.006986818E1,6.680760860E0,-2.100898266E0,1.663490295E1
2.007986818E1,8.408378601E0,-2.230110645E0,1.520399475E1
2.008986818E1,8.776873589E0,-2.043470621E0,1.417029572E1
2.009986818E1,8.705088615E0,-1.813759565E0,1.352423382E1
2.010986818E1,8.384450912E0,-1.957328916E0,1.349551964E1
2.011986818E1,8.044670105E0,-2.866601467E0,1.381615829E1
2.012986818E1,8.145168304E0,-4.024727821E0,1.406501102E1
2.013986818E1,8.451449394E0,-5.024927616E0,1.381615829E1
2.014986818E1,8.882157326E0,-6.192625046E0,1.247617722E1
2.015986818E1,9.336793900E0,-6.771687984E0,1.084427261E1
2.016986818E1,9.652647018E0,-7.039684296E0,8.748159409E0
2.017986818E1,9.585647583E0,-7.020541668E0,6.829115868E0
2.018986818E1,9.198010445E0,-6.599404812E0,4.642076015E0
2.019986818E1,8.618947029E0,-6.230910301E0,2.617748022E0
2.020986818E1,7.484749317E0,-5.991627693E0,1.282552958E0
2.021986818E1,5.532206059E0,-5.651846886E0,3.445664644E-1
2.022986818E1,4.015156269E0,-5.154139996E0,3.493520916E-1
2.023986818E1,2.057827473E0,-3.909872293E0,1.473978758E0
2.024986818E1,1.129412293E0,-2.938386202E0,2.679961443E0
2.025986818E1,4.737788737E-1,-1.694118381E0,4.120440483E0
2.026986818E1,2.009970993E-1,-5.503492355E-1,5.115854740E0
2.027986818E1,1.483550072E-1,-3.828516230E-2,5.379065514E0
2.028986818E1,3.014956415E-1,4.115654826E-1,5.158925533E0
2.029986818E1,1.531406492E-1,5.503492355E-1,4.747360229E0
2.030986818E1,3.349951655E-2,7.274180651E-1,4.197010994E0
2.031986818E1,5.742774159E-2,6.077769399E-1,3.991228104E0
2.032986818E1,-8.135596663E-2,5.790630579E-1,4.187439442E0
2.033986818E1,-1.531406492E-1,5.742774606E-1,4.512863636E0
2.034986818E1,-2.297109663E-1,5.024927258E-1,4.747360229E0
2.035986818E1,-4.211367965E-1,5.024927258E-1,4.924428940E0
2.036986818E1,-2.488535494E-1,5.024927258E-1,4.910071850E0
2.037986818E1,-1.627119333E-1,7.465606928E-1,4.800002098E0
2.038986818E1,1.818545163E-1,9.092726111E-1,4.814359188E0
2.039986818E1,7.178468108E-1,1.148554921E0,5.283352375E0
2.040986818E1,1.785045743E0,1.306481123E0,6.479763508E0
2.041986818E1,2.545963287E0,1.153340459E0,8.140382767E0
2.042986818E1,2.684746981E0,6.460621357E-1,1.055713367E1
2.043986818E1,2.464607239E0,9.571290575E-3,1.209332561E1
2.044986818E1,2.167897224E0,-8.949156404E-1,1.273938751E1
2.045986818E1,1.550549030E0,-1.445264935E0,1.244267750E1
2.046986818E1,3.876372576E-1,-1.497906923E0,1.186840057E1
2.047986818E1,-5.742774159E-2,-1.756331801E0,1.166261768E1
2.048986818E1,-1.866401732E-1,-2.100898266E0,1.264846039E1
2.049986818E1,-1.674975902E-1,-2.761317253E0,1.492642784E1
2.050986818E1,-3.349951804E-1,-3.297309637E0,1.663490295E1
2.051986818E1,-4.211367965E-1,-3.933800459E0,1.813281059E1
2.052986818E1,9.571290761E-2,-4.297509670E0,1.883151436E1
2.053986818E1,1.081555843E0,-4.378865242E0,1.853480339E1
2.054986818E1,1.976471543E0,-4.445864677E0,1.709911156E1
2.055986818E1,2.321038008E0,-3.632304668E0,1.597448444E1
2.056986818E1,3.464807272E0,-2.723032236E0,1.407936859E1
2.057986818E1,4.895715237E0,-2.459821701E0,1.292602825E1
2.058986818E1,6.819544315E0,-2.775674343E0,1.208375454E1
2.059986818E1,7.982456207E0,-3.890729666E0,1.197368431E1
2.060986818E1,8.173882484E0,-5.455635548E0,1.146162033E1
2.061986818E1,6.819544315E0,-6.790830612E0,1.106919765E1
2.062986818E1,5.168497086E0,-7.680960655E0,1.110748291E1
2.063986818E1,2.612962246E0,-8.039883614E0,1.168175983E1
2.064986818E1,1.316052437E0,-7.934599876E0,1.185882950E1
2.065986818E1,7.369893789E-1,-7.106683254E0,1.084427261E1
2.066986818E1,1.799402595E0,-6.326622963E0,9.432506561E0
2.067986818E1,3.000599623E0,-5.259424210E0,7.513463020E0
2.068986818E1,3.565305710E0,-4.211368084E0,5.919843197E0
2.069986818E1,3.689732552E0,-3.479164124E0,5.072783947E0
2.070986818E1,3.479164124E0,-2.694318295E0,4.599005222E0
2.071986818E1,3.153740168E0,-2.182254314E0,4.560719967E0
2.072986818E1,2.641676188E0,-1.765903115E0,5.149354458E0
2.073986818E1,1.952543259E0,-1.363908887E0,6.010770321E0
2.074986818E1,1.172483087E0,-9.427721500E-1,6.915257454E0
2.075986818E1,9.571290612E-1,-6.939185858E-1,7.398607731E0
2.076986818E1,7.465606928E-1,-4.211367965E-1,7.403393269E0
