"Time (s)","Gyroscope x (rad/s)","Gyroscope y (rad/s)","Gyroscope z (rad/s)"
1.645085300E-2,-1.496313334E0,-2.011272192E0,5.971203446E-1
2.519840500E-2,-1.651472926E0,-1.941633701E0,3.570504785E-1
3.519840500E-2,-1.684459686E0,-1.727220178E0,1.133154184E-1
4.519840500E-2,-1.561675787E0,-1.471878648E0,-1.017089859E-1
5.519840500E-2,-1.316719055E0,-1.246469617E0,-2.428187430E-1
6.519840500E-2,-1.030834317E0,-1.076038361E0,-2.953531146E-1
7.519840500E-2,-7.547234297E-1,-8.463531733E-1,-2.733619809E-1
8.519840500E-2,-4.896081090E-1,-4.938841760E-1,-2.092211843E-1
9.519840500E-2,-6.414080039E-3,4.621191919E-1,1.072067693E-1
1.051984050E-1,2.458730787E-1,8.420770764E-1,3.338375986E-1
1.151984050E-1,4.902189970E-1,1.100472927E0,5.360338688E-1
1.251984050E-1,6.795870662E-1,1.229976177E0,6.514872909E-1
1.351984050E-1,6.795870662E-1,1.229976177E0,6.514872909E-1
1.451984050E-1,7.742711306E-1,1.130405307E0,6.527090073E-1
1.551984050E-1,6.649262905E-1,9.801325202E-1,6.130027771E-1
1.651984050E-1,6.649262905E-1,9.801325202E-1,6.130027771E-1
1.751984050E-1,6.649262905E-1,9.801325202E-1,6.130027771E-1
1.851984050E-1,6.649262905E-1,9.801325202E-1,6.130027771E-1
1.951984050E-1,6.649262905E-1,9.801325202E-1,6.130027771E-1
2.051984050E-1,-3.924806118E-1,-1.377500147E-1,4.529562294E-1
2.151984050E-1,-4.663952589E-1,-2.745837271E-1,4.725039005E-1
2.251984050E-1,-4.908298552E-1,-2.635881603E-1,4.987711012E-1
2.351984050E-1,-4.908298552E-1,-2.635881603E-1,4.987711012E-1
2.451984050E-1,-4.908298552E-1,-2.635881603E-1,4.987711012E-1
2.551984050E-1,-4.908298552E-1,-2.635881603E-1,4.987711012E-1
2.651984050E-1,1.682932526E-1,5.274817348E-1,4.553996921E-1
2.751984050E-1,3.539961278E-1,4.938841760E-1,3.845393658E-1
2.851984050E-1,5.048797131E-1,3.863719702E-1,3.051269650E-1
2.951984050E-1,5.873464942E-1,2.525925934E-1,2.354883701E-1
3.051984050E-1,5.873464942E-1,2.525925934E-1,2.354883701E-1
3.151984050E-1,5.873464942E-1,2.525925934E-1,2.354883701E-1
3.151984050E-1,3.827067912E-1,2.532034516E-1,9.560033679E-2
3.351984050E-1,9.132428467E-2,3.656025827E-1,1.863137633E-2
3.451984050E-1,-6.872228533E-2,2.562577724E-1,-5.711585656E-2
3.551984050E-1,-2.635881603E-1,-9.468403645E-3,-1.365282834E-1
3.651984050E-1,-4.120282829E-1,-3.472766280E-1,-2.055560052E-1
3.751984050E-1,-4.896081090E-1,-8.665117025E-1,-3.039052188E-1
3.851984050E-1,-3.735437989E-1,-8.964440823E-1,-3.827067912E-1
3.951984050E-1,-2.165515572E-1,-7.455604672E-1,-4.028653204E-1
4.051984050E-1,-4.612028971E-2,-5.164861679E-1,-3.698786199E-1
4.151984050E-1,1.182023361E-1,-3.332267404E-1,-3.228420317E-1
4.251984050E-1,2.495382577E-1,-2.660316229E-1,-2.623664141E-1
4.351984050E-1,3.252854943E-1,-3.179551065E-1,-1.750127524E-1
4.451984050E-1,3.711003661E-1,-6.044507027E-1,1.313359290E-2
4.551984050E-1,3.814850450E-1,-7.186824083E-1,9.804379940E-2
4.651984050E-1,3.717112243E-1,-7.504473925E-1,1.921169758E-1
4.751984050E-1,3.289506733E-1,-7.040216327E-1,2.703076601E-1
4.851984050E-1,2.593120933E-1,-6.447677612E-1,3.112356067E-1
4.951984050E-1,1.823431402E-1,-6.490437984E-1,3.332267404E-1
5.051984050E-1,1.224783882E-1,-7.223476171E-1,3.356702030E-1
5.151984050E-1,1.224783882E-1,-7.223476171E-1,3.356702030E-1
5.251984050E-1,1.224783882E-1,-7.223476171E-1,3.356702030E-1
5.351984050E-1,1.224783882E-1,-7.223476171E-1,3.356702030E-1
5.451984050E-1,2.657261863E-2,-5.855138898E-1,1.371391416E-1
5.551984050E-1,2.657261863E-2,-5.855138898E-1,1.371391416E-1
5.651984050E-1,-4.547888339E-1,3.820959330E-1,-8.246674202E-3
5.751984050E-1,-7.168498039E-1,8.524618149E-1,-1.230892539E-1
5.851984050E-1,-7.168498039E-1,8.524618149E-1,-1.230892539E-1
5.951984050E-1,-7.168498039E-1,8.524618149E-1,-1.230892539E-1
6.051984050E-1,-5.024362803E-1,1.464548349E0,-2.507599890E-1
6.151984050E-1,-1.524107605E-1,1.650862098E0,-2.727511227E-1
6.251984050E-1,2.122755051E-1,1.661246777E0,-2.458730787E-1
6.351984050E-1,5.561923981E-1,1.354592681E0,-1.572976857E-1
6.451984050E-1,8.268054724E-1,7.999274135E-1,-4.978547990E-2
6.551984050E-1,1.022282243E0,-2.269362658E-1,9.987638891E-2
6.651984050E-1,9.422588944E-1,-4.706713259E-1,1.835648715E-1
6.751984050E-1,7.504473925E-1,-5.568032265E-1,2.904661894E-1
6.851984050E-1,4.773908257E-1,-5.317577720E-1,4.010327160E-1
6.951984050E-1,1.682932526E-1,-4.352411628E-1,4.584540129E-1
7.051984050E-1,-1.224783882E-1,-3.087921441E-1,4.584540129E-1
7.151984050E-1,-3.460549116E-1,-1.169806048E-1,3.985892832E-1
7.251984050E-1,-5.366446972E-1,4.645626545E-1,1.597411335E-1
7.351984050E-1,-5.170970559E-1,7.614429593E-1,-3.359756200E-3
7.451984050E-1,-4.236347377E-1,9.862411618E-1,-1.438586563E-1
7.551984050E-1,-2.709185183E-1,1.075427413E0,-2.525925934E-1
7.651984050E-1,-6.688969582E-2,1.062599301E0,-3.472766280E-1
7.751984050E-1,1.475238502E-1,9.862411618E-1,-3.979783952E-1
7.851984050E-1,3.313941360E-1,8.836159110E-1,-4.144717455E-1
7.951984050E-1,5.470294356E-1,7.699950337E-1,-4.010327160E-1
8.051984050E-1,5.836812854E-1,7.742711306E-1,-3.448331654E-1
8.151984050E-1,5.714640021E-1,7.693842053E-1,-2.672533393E-1
8.251984050E-1,5.158752799E-1,7.278453708E-1,-2.159406990E-1
8.351984050E-1,4.462367296E-1,7.058542371E-1,-1.536324918E-1
8.451984050E-1,3.790415823E-1,6.600393653E-1,-7.483093441E-2
8.551984050E-1,3.448331654E-1,6.007854939E-1,-7.024944760E-3
8.651984050E-1,3.448331654E-1,6.007854939E-1,-7.024944760E-3
8.751984050E-1,3.448331654E-1,6.007854939E-1,-7.024944760E-3
8.851984050E-1,3.448331654E-1,6.007854939E-1,-7.024944760E-3
8.951984050E-1,3.448331654E-1,6.007854939E-1,-7.024944760E-3
9.051984050E-1,3.451386094E-2,3.008508980E-1,9.376774728E-2
9.151984050E-1,-3.970621154E-3,1.401934624E-1,5.283980444E-2
9.251984050E-1,-4.489856213E-2,-7.422006875E-2,5.803215317E-3
9.351984050E-1,-4.489856213E-2,-7.422006875E-2,5.803215317E-3
9.451984050E-1,-4.489856213E-2,-7.422006875E-2,5.803215317E-3
9.551984050E-1,-4.489856213E-2,-7.422006875E-2,5.803215317E-3
9.651984050E-1,-2.025016695E-1,-3.368919194E-1,-2.046396956E-2
9.751984050E-1,-1.902843714E-1,-7.483093441E-2,-1.679878123E-2
9.851984050E-1,-1.591302752E-1,1.175914705E-1,-4.581485875E-3
9.951984050E-1,-1.249218509E-1,1.835648715E-1,2.657261863E-2
1.005198405E0,-1.249218509E-1,1.835648715E-1,2.657261863E-2
1.015198405E0,-9.437860548E-2,-8.704823256E-2,1.579085439E-1
1.025198405E0,-9.437860548E-2,-8.704823256E-2,1.579085439E-1
1.035198405E0,-1.841757298E-1,-3.466657698E-1,2.513708472E-1
1.045198405E0,-2.483165264E-1,-4.193586707E-1,2.898553312E-1
1.055198405E0,-3.283398151E-1,-4.248564541E-1,2.947422564E-1
1.065198405E0,-4.303542376E-1,-3.130682111E-1,2.764163017E-1
1.075198405E0,-4.303542376E-1,-3.130682111E-1,2.764163017E-1
1.085198405E0,-6.918043494E-1,1.701258421E-1,3.955349326E-1
1.095198405E0,-7.608320713E-1,1.982256174E-1,4.651735425E-1
1.105198405E0,-8.329141140E-1,7.360920310E-2,5.085449219E-1
1.115198405E0,-9.257655740E-1,-3.179551065E-1,5.366446972E-1
1.125198405E0,-9.935715795E-1,-9.428697824E-1,5.592467189E-1
1.135198405E0,-9.764673710E-1,-1.572060466E0,5.885682106E-1
1.145198405E0,-6.814196706E-1,-1.915366530E0,6.252201200E-1
1.155198405E0,-4.291325212E-1,-1.535408616E0,5.940660238E-1
1.165198405E0,-1.646280587E-1,-1.017395258E0,4.755582213E-1
1.175198405E0,4.673115537E-2,-4.871646762E-1,2.409861535E-1
1.185198405E0,1.939495653E-1,1.130099874E-2,-9.468403645E-3
1.195198405E0,2.666424811E-1,3.210094273E-1,-1.194240674E-1
1.205198405E0,3.289506733E-1,3.643808365E-1,-1.609628648E-1
1.215198405E0,3.863719702E-1,1.090393662E-1,-1.255327165E-1
1.225198405E0,3.747655451E-1,1.383608729E-1,-9.254601598E-2
1.235198405E0,3.735437989E-1,3.387245238E-1,-8.093958348E-2
1.245198405E0,4.040870368E-1,5.910117030E-1,-7.422006875E-2
1.255198405E0,4.382954836E-1,7.559451461E-1,-5.833758786E-2
1.265198405E0,4.413498044E-1,8.035926223E-1,-3.573558852E-2
1.275198405E0,3.930914998E-1,7.370083332E-1,-1.802051067E-2
1.285198405E0,1.744018942E-1,3.063486814E-1,4.612028971E-2
1.295198405E0,4.734202102E-2,1.863137633E-2,8.521563560E-2
1.305198405E0,4.734202102E-2,1.863137633E-2,8.521563560E-2
1.315198405E0,4.734202102E-2,1.863137633E-2,8.521563560E-2
1.325198405E0,4.734202102E-2,1.863137633E-2,8.521563560E-2
1.335198405E0,-2.739728391E-1,6.627883017E-2,1.163697392E-1
1.345198405E0,-2.513708472E-1,3.185659945E-1,1.298087686E-1
1.355198405E0,-2.513708472E-1,3.185659945E-1,1.298087686E-1
1.365198405E0,-2.513708472E-1,3.185659945E-1,1.298087686E-1
1.375198405E0,-2.513708472E-1,3.185659945E-1,1.298087686E-1
1.385198405E0,8.277218044E-2,3.075704277E-1,1.426369250E-1
1.395198405E0,9.743293375E-2,3.023780696E-2,1.817322671E-1
1.405198405E0,4.673115537E-2,-2.232710719E-1,1.640172005E-1
1.415198405E0,-7.116574794E-2,-3.973675370E-1,1.010981202E-1
1.425198405E0,-7.116574794E-2,-3.973675370E-1,1.010981202E-1
1.435198405E0,-7.116574794E-2,-3.973675370E-1,1.010981202E-1
1.445198405E0,-7.116574794E-2,-3.973675370E-1,1.010981202E-1
1.455198405E0,-2.025016695E-1,1.102610901E-1,-1.970038861E-1
1.465198405E0,-1.175914705E-1,9.376774728E-2,-2.177732885E-1
1.475198405E0,-3.268126398E-2,-1.985310577E-2,-2.086103261E-1
1.485198405E0,2.779434808E-2,-1.524107605E-1,-1.945604384E-1
1.495198405E0,2.779434808E-2,-1.524107605E-1,-1.945604384E-1
1.505198405E0,1.114828214E-1,-7.177661359E-2,-2.226602137E-1
1.515198405E0,1.823431402E-1,4.062250629E-2,-2.342666388E-1
1.525198405E0,2.751945853E-1,1.774562150E-1,-2.208276242E-1
1.535198405E0,3.857611120E-1,3.185659945E-1,-2.025016695E-1
1.545198405E0,4.981602132E-1,4.266890585E-1,-1.890626550E-1
1.555198405E0,5.965094566E-1,4.663952589E-1,-1.872300506E-1
1.565198405E0,6.203331947E-1,1.872300506E-1,-2.495382577E-1
1.575198405E0,5.183187723E-1,-8.460476995E-2,-2.910770774E-1
1.585198405E0,3.527744114E-1,-3.643808365E-1,-3.240637779E-1
1.595198405E0,1.530216336E-1,-5.671879649E-1,-3.460549116E-1
1.605198405E0,-5.345066637E-2,-6.258309484E-1,-3.613265157E-1
1.615198405E0,-2.251036763E-1,-5.464185476E-1,-3.802633286E-1
1.625198405E0,-3.368919194E-1,-3.686569035E-1,-4.132500291E-1
1.635198405E0,-4.352411628E-1,-6.414080039E-3,-4.767799675E-1
1.645198405E0,-4.480693042E-1,1.707367003E-1,-4.743365049E-1
1.655198405E0,-4.376846254E-1,3.478874862E-1,-4.670061171E-1
1.665198405E0,-3.930914998E-1,4.883863926E-1,-4.670061171E-1
1.675198405E0,-2.977965772E-1,6.038398147E-1,-4.731147587E-1
1.685198405E0,-1.664606482E-1,6.789761782E-1,-4.419606626E-1
1.695198405E0,-1.007926930E-2,7.070759535E-1,-3.674351573E-1
1.705198405E0,3.601047993E-1,4.517345130E-1,-1.744018942E-1
1.715198405E0,3.601047993E-1,4.517345130E-1,-1.744018942E-1
1.725198405E0,3.601047993E-1,4.517345130E-1,-1.744018942E-1
1.735198405E0,3.601047993E-1,4.517345130E-1,-1.744018942E-1
1.745198405E0,5.360338688E-1,-7.938187718E-1,3.313941360E-1
1.755198405E0,4.364628792E-1,-9.990693331E-1,3.747655451E-1
1.765198405E0,3.252854943E-1,-1.165835381E0,3.778198659E-1
1.775198405E0,3.252854943E-1,-1.165835381E0,3.778198659E-1
1.785198405E0,3.252854943E-1,-1.165835381E0,3.778198659E-1
1.795198405E0,3.252854943E-1,-1.165835381E0,3.778198659E-1
1.805198405E0,1.206457913E-1,-1.145676851E0,-3.552178741E-1
1.815198405E0,1.328630894E-1,-8.585704565E-1,-5.091558099E-1
1.825198405E0,1.188132018E-1,-4.602866173E-1,-5.928442478E-1
1.835198405E0,9.254601598E-2,-2.474002354E-2,-6.105593443E-1
1.845198405E0,9.254601598E-2,-2.474002354E-2,-6.105593443E-1
1.855198405E0,9.254601598E-2,-2.474002354E-2,-6.105593443E-1
1.865198405E0,-1.188132018E-1,5.955931544E-2,-6.643154621E-1
1.875198405E0,-1.676823795E-1,-4.795288667E-2,-6.759218574E-1
1.885198405E0,-2.043342739E-1,-1.740964688E-2,-6.875283122E-1
1.895198405E0,-2.116646469E-1,1.963930279E-1,-6.618719697E-1
1.905198405E0,-1.994473487E-1,5.054906011E-1,-5.671879649E-1
1.915198405E0,-1.438586563E-1,8.469640017E-1,-3.637699783E-1
1.925198405E0,-1.438586563E-1,8.469640017E-1,-3.637699783E-1
1.935198405E0,-3.451386094E-2,7.260127664E-1,-2.159406990E-1
1.945198405E0,4.123337194E-2,5.641336441E-1,-1.444695145E-1
1.955198405E0,1.053741723E-1,4.022544622E-1,-8.032871783E-2
1.965198405E0,1.401934624E-1,2.971857190E-1,-3.451386094E-2
1.975198405E0,1.322522312E-1,2.886336148E-1,-1.130099874E-2
1.985198405E0,1.618791744E-2,4.150826037E-1,-3.756818548E-2
1.995198405E0,-6.811141968E-2,4.309650958E-1,-8.032871783E-2
2.005198405E0,-1.756236255E-1,3.460549116E-1,-1.371391416E-1
2.015198405E0,-3.020726442E-1,1.505781710E-1,-1.927278340E-1
2.025198405E0,-4.163043499E-1,-9.987638891E-2,-2.299905866E-1
2.035198405E0,-4.902189970E-1,-3.179551065E-1,-2.464839369E-1
2.045198405E0,-5.146535635E-1,-4.346303046E-1,-2.385426909E-1
2.055198405E0,-4.065304995E-1,-3.411679864E-1,-1.536324918E-1
2.065198405E0,-3.228420317E-1,-2.538143098E-1,-8.826996386E-2
2.075198405E0,-2.440404743E-1,-1.713475734E-1,3.970621154E-3
2.085198405E0,-1.988364905E-1,-1.206457913E-1,7.727439702E-2
2.095198405E0,-1.988364905E-1,-1.206457913E-1,7.727439702E-2
2.105198405E0,-2.495382577E-1,-3.063486814E-1,1.499672979E-1
2.115198405E0,-3.796524704E-1,-4.877755344E-1,2.110537887E-1
2.125198405E0,-3.796524704E-1,-4.877755344E-1,2.110537887E-1
2.135198405E0,-3.796524704E-1,-4.877755344E-1,2.110537887E-1
2.145198405E0,-3.796524704E-1,-4.877755344E-1,2.110537887E-1
2.155198405E0,-4.767799675E-1,-1.034499526E0,7.015781999E-1
2.165198405E0,-4.156934917E-1,-8.994984031E-1,7.816014886E-1
2.175198405E0,-3.668242991E-1,-6.911935210E-1,8.762855530E-1
2.185198405E0,-3.857611120E-1,-4.645626545E-1,1.002123713E0
2.195198405E0,-3.857611120E-1,-4.645626545E-1,1.002123713E0
2.205198405E0,-3.857611120E-1,-4.645626545E-1,1.002123713E0
2.215198405E0,-1.885434151E0,-1.927278340E-1,8.390227556E-1
2.225198405E0,-2.148106098E0,-5.342012644E-1,7.290670872E-1
2.235198405E0,-2.199418545E0,-7.082977295E-1,5.787943602E-1
2.245198405E0,-1.987448573E0,-5.549706817E-1,3.039052188E-1
2.255198405E0,-1.518304467E0,-4.053087831E-1,4.062250629E-2
2.265198405E0,-1.518304467E0,-4.053087831E-1,4.062250629E-2
2.275198405E0,7.119628787E-1,-5.833758786E-2,-3.069595397E-1
2.285198405E0,1.303890824E0,2.641990185E-1,-4.511236250E-1
2.295198405E0,1.645364285E0,5.580250025E-1,-5.604684353E-1
2.305198405E0,1.787695765E0,6.777544618E-1,-5.543597937E-1
2.315198405E0,1.710115910E0,6.844739914E-1,-5.213730931E-1
2.325198405E0,1.452331066E0,6.337721944E-1,-4.792234302E-1
2.335198405E0,1.452331066E0,6.337721944E-1,-4.792234302E-1
2.335198405E0,6.185005903E-1,4.059196413E-1,-3.839285076E-1
2.355198405E0,-8.521563560E-2,2.962694131E-2,-2.678641975E-1
2.365198405E0,-2.587012351E-1,-1.615737379E-1,-2.348775119E-1
2.375198405E0,-3.039052188E-1,-3.063486814E-1,-2.251036763E-1
2.385198405E0,-2.379318327E-1,-3.918697536E-1,-2.086103261E-1
2.395198405E0,-7.788526267E-2,-4.334085584E-1,-1.701258421E-1
2.405198405E0,3.191768527E-1,-3.393353820E-1,-1.744018942E-1
2.415198405E0,4.981602132E-1,-2.067777216E-1,-1.786779463E-1
2.425198405E0,6.362156868E-1,-2.901607752E-2,-1.676823795E-1
2.435198405E0,7.119628787E-1,1.744018942E-1,-1.463021189E-1
2.445198405E0,7.223476171E-1,3.484983444E-1,-1.340848207E-1
2.455198405E0,6.771436334E-1,4.468475878E-1,-1.182023361E-1
2.465198405E0,6.032289863E-1,5.201513767E-1,-1.010981202E-1
2.475198405E0,4.676169753E-1,5.213730931E-1,-1.310304999E-1
2.485198405E0,4.676169753E-1,5.213730931E-1,-1.310304999E-1
2.495198405E0,4.676169753E-1,5.213730931E-1,-1.310304999E-1
2.505198405E0,4.676169753E-1,5.213730931E-1,-1.310304999E-1
2.515198405E0,4.248564541E-1,-1.627954692E-1,-2.947422564E-1
2.525198405E0,4.401280880E-1,-2.593120933E-1,-3.240637779E-1
2.535198405E0,4.505127668E-1,-2.843575478E-1,-3.735437989E-1
2.545198405E0,4.505127668E-1,-2.843575478E-1,-3.735437989E-1
2.555198405E0,4.505127668E-1,-2.843575478E-1,-3.735437989E-1
2.565198405E0,4.505127668E-1,-2.843575478E-1,-3.735437989E-1
2.575198405E0,4.028653204E-1,-5.500837564E-1,-4.205803871E-1
2.585198405E0,3.484983444E-1,-7.180715203E-1,-3.723220825E-1
2.595198405E0,3.118464649E-1,-8.897245526E-1,-3.051269650E-1
2.605198405E0,2.764163017E-1,-1.000291109E0,-2.226602137E-1
2.615198405E0,2.764163017E-1,-1.000291109E0,-2.226602137E-1
2.625198405E0,2.764163017E-1,-1.000291109E0,-2.226602137E-1
2.635198405E0,9.254601598E-2,-2.971857190E-1,-7.422006875E-2
2.645198405E0,7.666353136E-2,-6.811141968E-2,-9.315688163E-2
2.655198405E0,6.078104675E-2,1.359174103E-1,-1.304196268E-1
2.665198405E0,4.123337194E-2,2.733619809E-1,-1.872300506E-1
2.675198405E0,2.107483521E-2,3.283398151E-1,-2.434296161E-1
2.685198405E0,2.107483521E-2,3.283398151E-1,-2.434296161E-1
2.695198405E0,-7.116574794E-2,1.230892539E-1,-2.367101014E-1
2.705198405E0,-1.273653060E-1,1.527161920E-3,-2.281579971E-1
2.715198405E0,-1.676823795E-1,-1.560759544E-1,-2.287688553E-1
2.725198405E0,-1.878409237E-1,-3.527744114E-1,-2.348775119E-1
2.735198405E0,-2.232710719E-1,-5.244274139E-1,-2.367101014E-1
2.745198405E0,-2.959639728E-1,-6.404917240E-1,-2.220493406E-1
2.755198405E0,-4.963276386E-1,-6.765327454E-1,-1.609628648E-1
2.765198405E0,-5.934551358E-1,-4.993819594E-1,-1.359174103E-1
2.775198405E0,-6.637045741E-1,-1.701258421E-1,-1.261435747E-1
2.785198405E0,-6.899717450E-1,2.196058929E-1,-1.261435747E-1
2.795198405E0,-6.013963819E-1,5.195404887E-1,-1.554650813E-1
2.805198405E0,-3.631591201E-1,6.527090073E-1,-1.762344837E-1
2.815198405E0,-2.351829410E-2,6.569850445E-1,-1.823431402E-1
2.825198405E0,6.368265152E-1,5.714640021E-1,-2.147189677E-1
2.835198405E0,8.842267394E-1,5.164861679E-1,-2.196058929E-1
2.845198405E0,1.023503900E0,4.187478125E-1,-2.018908113E-1
2.855198405E0,1.069318771E0,2.745837271E-1,-1.627954692E-1
2.865198405E0,1.022282243E0,4.856374860E-2,-1.084285006E-1
2.875198405E0,8.909462690E-1,-2.568686306E-1,-5.894844979E-2
2.885198405E0,6.911935210E-1,-5.183187723E-1,-1.252272818E-2
2.895198405E0,1.371391416E-1,-7.901535630E-1,-4.001164436E-2
2.905198405E0,-1.475238502E-1,-7.480039001E-1,-1.218675226E-1
2.915198405E0,-4.437932670E-1,-5.922334194E-1,-1.860083193E-1
2.925198405E0,-6.973021626E-1,-3.784307241E-1,-2.073885947E-1
2.935198405E0,-8.500183225E-1,-1.450803876E-1,-2.293797284E-1
2.945198405E0,-8.836159110E-1,9.071341902E-2,-2.556469142E-1
2.955198405E0,-7.968730927E-1,3.032943606E-1,-2.819140851E-1
2.965198405E0,-7.968730927E-1,3.032943606E-1,-2.819140851E-1
2.975198405E0,-7.968730927E-1,3.032943606E-1,-2.819140851E-1
2.985198405E0,-7.968730927E-1,3.032943606E-1,-2.819140851E-1
2.995198405E0,-7.968730927E-1,3.032943606E-1,-2.819140851E-1
3.005198405E0,3.460549116E-1,6.759218574E-1,-1.707367003E-1
3.015198405E0,3.735437989E-1,6.649262905E-1,-1.658497900E-1
3.025198405E0,3.375027776E-1,6.117810607E-1,-1.689041108E-1
3.035198405E0,3.375027776E-1,6.117810607E-1,-1.689041108E-1
3.045198405E0,3.375027776E-1,6.117810607E-1,-1.689041108E-1
3.055198405E0,3.375027776E-1,6.117810607E-1,-1.689041108E-1
3.065198405E0,3.451386094E-2,5.140427351E-1,-1.579085439E-1
3.075198405E0,1.863137633E-2,5.818486810E-1,-1.175914705E-1
3.085198405E0,1.435532235E-2,6.038398147E-1,-7.177661359E-2
3.095198405E0,1.679878123E-2,5.971203446E-1,-2.535088919E-2
3.105198405E0,1.679878123E-2,5.971203446E-1,-2.535088919E-2
3.115198405E0,1.679878123E-2,5.971203446E-1,-2.535088919E-2
3.125198405E0,-1.585194170E-1,-2.690859437E-1,9.132428467E-2
3.135198405E0,-2.501491308E-1,-3.711003661E-1,9.743293375E-2
3.145198405E0,-3.191768527E-1,-3.576613367E-1,9.010255337E-2
3.155198405E0,-3.558287323E-1,-2.861901522E-1,7.605266571E-2
3.165198405E0,-3.588830531E-1,-2.159406990E-1,6.139190868E-2
3.175198405E0,-3.588830531E-1,-2.159406990E-1,6.139190868E-2
3.185198405E0,-1.915061027E-1,-1.579085439E-1,-8.246674202E-3
3.195198405E0,-1.151480079E-1,-2.208276242E-1,-3.145953640E-2
3.205198405E0,-6.383536756E-2,-2.788597643E-1,-3.573558852E-2
3.215198405E0,-5.772672221E-2,-2.800815105E-1,-2.290742844E-2
3.225198405E0,-8.949168772E-2,-2.183841616E-1,2.138026757E-3
3.235198405E0,-1.401934624E-1,-1.255327165E-1,3.451386094E-2
3.245198405E0,-1.927278340E-1,3.054323897E-4,4.978547990E-2
3.255198405E0,-1.707367003E-1,8.521563560E-2,6.078104675E-2
3.265198405E0,-1.212566569E-1,1.237001196E-1,1.072067693E-1
3.275198405E0,-1.029307172E-1,4.550942779E-2,1.963930279E-1
3.285198405E0,-1.933387071E-1,-1.591302752E-1,2.941313982E-1
3.295198405E0,-4.187478125E-1,-4.663952589E-1,3.582721949E-1
3.305198405E0,-7.382301092E-1,-7.767145634E-1,3.961458206E-1
3.315198405E0,-1.385746717E0,-1.076649189E0,4.553996921E-1
3.325198405E0,-1.616653681E0,-1.069318771E0,4.627300799E-1
3.335198405E0,-1.662468553E0,-1.004567146E0,4.871646762E-1
3.345198405E0,-1.475543857E0,-9.001092315E-1,5.006036758E-1
3.355198405E0,-1.082147002E0,-7.229584455E-1,4.596757591E-1
3.365198405E0,-5.543597937E-1,-4.578431547E-1,3.381136656E-1
3.375198405E0,1.252272818E-2,-1.970038861E-1,1.505781710E-1
3.385198405E0,1.007621408E0,3.527744114E-1,-2.779434808E-2
3.395198405E0,1.261130333E0,6.374374032E-1,-9.193515033E-2
3.405198405E0,1.350927472E0,8.903354406E-1,-1.200349256E-1
3.415198405E0,1.336877584E0,1.085201263E0,-1.279761642E-1
3.425198405E0,1.280678034E0,1.172554970E0,-1.200349256E-1
3.435198405E0,1.176831007E0,1.132848740E0,-1.072067693E-1
3.445198405E0,1.017395258E0,1.014340997E0,-6.750056148E-2
3.455198405E0,5.232056975E-1,7.064651251E-1,5.222893879E-2
3.465198405E0,2.244928032E-1,5.714640021E-1,1.127045527E-1
3.475198405E0,2.244928032E-1,5.714640021E-1,1.127045527E-1
3.485198405E0,2.244928032E-1,5.714640021E-1,1.127045527E-1
3.495198405E0,-4.584540129E-1,2.593120933E-1,2.953531146E-1
3.505198405E0,-5.085449219E-1,9.865466505E-2,3.607156575E-1
3.515198405E0,-4.566214085E-1,-3.817904741E-2,4.193586707E-1
3.525198405E0,-4.566214085E-1,-3.817904741E-2,4.193586707E-1
3.535198405E0,-4.566214085E-1,-3.817904741E-2,4.193586707E-1
3.545198405E0,-4.566214085E-1,-3.817904741E-2,4.193586707E-1
3.555198405E0,-3.023780696E-2,-2.623664141E-1,4.260781705E-1
3.565198405E0,3.054323897E-4,-2.403752953E-1,3.973675370E-1
3.575198405E0,4.428769648E-2,-1.517999023E-1,3.350593448E-1
3.585198405E0,1.194240674E-1,-6.933315098E-2,2.532034516E-1
3.595198405E0,1.194240674E-1,-6.933315098E-2,2.532034516E-1
3.605198405E0,1.194240674E-1,-6.933315098E-2,2.532034516E-1
3.615198405E0,2.758054435E-1,-1.200349256E-1,7.360920310E-2
3.625198405E0,1.670715213E-1,-1.249218509E-1,5.467239767E-2
3.635198405E0,2.412915789E-2,-1.114828214E-1,3.695731983E-2
3.645198405E0,-1.023198515E-1,-7.849612087E-2,2.535088919E-2
3.655198405E0,-1.817322671E-1,-6.505709887E-2,5.803215317E-3
3.665198405E0,-1.817322671E-1,-6.505709887E-2,5.803215317E-3
3.675198405E0,-1.029307172E-1,-2.962694131E-2,-7.483093441E-2
3.685198405E0,8.857538924E-3,-1.618791744E-2,-1.010981202E-1
3.695198405E0,1.346956789E-1,-1.374445762E-2,-1.188132018E-1
3.705198405E0,2.446513474E-1,8.246674202E-3,-1.200349256E-1
3.715198405E0,2.953531146E-1,5.039634556E-2,-1.163697392E-1
3.725198405E0,2.733619809E-1,1.047633067E-1,-1.310304999E-1
3.735198405E0,1.041524485E-1,3.124573231E-1,-1.676823795E-1
3.745198405E0,1.130099874E-2,3.149007857E-1,-1.835648715E-1
3.755198405E0,-6.078104675E-2,2.525925934E-1,-1.701258421E-1
3.765198405E0,-9.621120244E-2,1.713475734E-1,-1.450803876E-1
3.775198405E0,-9.865466505E-2,9.132428467E-2,-1.078176349E-1
3.785198405E0,-8.704823256E-2,1.863137633E-2,-6.994401664E-2
3.795198405E0,-7.116574794E-2,-5.711585656E-2,-4.795288667E-2
3.805198405E0,1.007926930E-2,-1.542433500E-1,-1.130099874E-2
3.815198405E0,1.401934624E-1,-1.945604384E-1,-2.962694131E-2
3.825198405E0,1.719584316E-1,-2.037234008E-1,-6.505709887E-2
3.835198405E0,1.340848207E-1,-1.188132018E-1,-6.688969582E-2
3.845198405E0,5.833758786E-2,1.530216336E-1,-3.940077871E-2
3.855198405E0,-3.695731983E-2,5.042688847E-1,-6.383536756E-2
3.865198405E0,-1.579085439E-1,8.518509269E-1,-8.643736690E-2
3.875198405E0,-1.579085439E-1,8.518509269E-1,-8.643736690E-2
3.885198405E0,-1.579085439E-1,8.518509269E-1,-8.643736690E-2
3.895198405E0,-1.579085439E-1,8.518509269E-1,-8.643736690E-2
3.905198405E0,-1.579085439E-1,8.518509269E-1,-8.643736690E-2
3.915198405E0,4.230238497E-1,2.183841616E-1,1.438586563E-1
3.925198405E0,6.178897023E-1,1.359174103E-1,2.092211843E-1
3.935198405E0,7.877101302E-1,7.635809947E-3,2.819140851E-1
3.945198405E0,7.877101302E-1,7.635809947E-3,2.819140851E-1
3.955198405E0,7.877101302E-1,7.635809947E-3,2.819140851E-1
3.965198405E0,7.877101302E-1,7.635809947E-3,2.819140851E-1
3.975198405E0,5.781835318E-1,-1.441335440E0,5.561923981E-1
3.985198405E0,3.619373739E-1,-1.466991782E0,4.920515716E-1
3.995198405E0,1.505781710E-1,-1.303890824E0,3.741546869E-1
4.005198405E0,-4.184423760E-2,-9.593631625E-1,2.159406990E-1
4.015198405E0,-4.184423760E-2,-9.593631625E-1,2.159406990E-1
4.025198405E0,-4.184423760E-2,-9.593631625E-1,2.159406990E-1
4.035198405E0,3.512472659E-2,6.001746655E-1,-3.643808365E-1
4.045198405E0,1.853974611E-1,7.632755637E-1,-4.364628792E-1
4.055198405E0,3.087921441E-1,7.351757884E-1,-4.578431547E-1
4.065198405E0,3.845393658E-1,5.806269646E-1,-4.224129915E-1
4.075198405E0,4.004218578E-1,4.114174247E-1,-3.515526950E-1
4.085198405E0,4.004218578E-1,4.114174247E-1,-3.515526950E-1
4.095198405E0,4.004218578E-1,4.114174247E-1,-3.515526950E-1
4.105198405E0,1.615737379E-1,5.073232055E-1,-3.878991306E-2
4.115198405E0,1.249218509E-1,6.142245531E-1,1.252272818E-2
4.125198405E0,1.224783882E-1,7.064651251E-1,4.489856213E-2
4.135198405E0,1.572976857E-1,7.809906006E-1,5.467239767E-2
4.145198405E0,2.189950198E-1,8.200859427E-1,4.978547990E-2
4.155198405E0,2.189950198E-1,8.200859427E-1,4.978547990E-2
4.165198405E0,3.411679864E-1,4.578431547E-1,3.359756200E-3
4.175198405E0,2.532034516E-1,2.403752953E-1,2.535088919E-2
4.185198405E0,1.102610901E-1,5.955931544E-2,5.161807314E-2
4.195198405E0,-4.062250629E-2,-3.390299529E-2,6.139190868E-2
4.205198405E0,-1.762344837E-1,-3.329212964E-2,5.894844979E-2
4.215198405E0,-2.916879356E-1,5.803215317E-3,5.589412898E-2
4.225198405E0,-4.126391709E-1,-6.261363626E-2,3.878991306E-2
4.235198405E0,-4.095848203E-1,-1.365282834E-1,4.062250629E-2
4.245198405E0,-3.772090077E-1,-2.043342739E-1,3.878991306E-2
4.255198405E0,-3.216203153E-1,-2.751945853E-1,3.817904741E-2
4.265198405E0,-2.422078848E-1,-3.136790693E-1,4.734202102E-2
4.275198405E0,-1.597411335E-1,-2.678641975E-1,5.039634556E-2
4.285198405E0,-7.788526267E-2,-1.212566569E-1,5.711585656E-2
4.295198405E0,3.512472659E-2,2.470948100E-1,8.949168772E-2
4.305198405E0,3.940077871E-2,3.411679864E-1,9.682206810E-2
4.315198405E0,3.970621154E-3,2.898553312E-1,1.065959036E-1
4.325198405E0,-5.833758786E-2,1.249218509E-1,1.408043355E-1
4.335198405E0,-1.487455666E-1,-6.811141968E-2,1.682932526E-1
4.345198405E0,-2.843575478E-1,-2.690859437E-1,1.792888194E-1
4.355198405E0,-3.753764033E-1,-4.407389462E-1,1.951712966E-1
4.365198405E0,-4.077522457E-1,-5.769617558E-1,2.012799382E-1
4.375198405E0,-4.254673123E-1,-5.244274139E-1,2.513708472E-1
4.385198405E0,-4.938841760E-1,-5.348120928E-1,3.295615613E-1
4.395198405E0,-7.205150127E-1,-5.403099060E-1,4.083631039E-1
4.405198405E0,-1.064431906E0,-5.403099060E-1,4.560105503E-1
4.415198405E0,-1.384525061E0,-6.459894776E-1,4.792234302E-1
4.425198405E0,-1.557399750E0,-8.616247773E-1,4.957167804E-1
4.435198405E0,-1.531743407E0,-9.654718041E-1,4.670061171E-1
4.445198405E0,-1.361312151E0,-7.382301092E-1,3.918697536E-1
4.455198405E0,-1.062599301E0,-4.315759540E-1,2.312123179E-1
4.465198405E0,-6.215549111E-1,-1.701258421E-1,9.437860548E-2
4.475198405E0,-6.933315098E-2,-1.007926930E-2,-1.069013402E-2
4.485198405E0,4.944950342E-1,1.053741723E-1,-1.310304999E-1
4.495198405E0,1.292284489E0,3.527744114E-1,-4.089739621E-1
4.505198405E0,1.466991782E0,4.682278633E-1,-4.627300799E-1
4.515198405E0,1.492037177E0,5.714640021E-1,-4.761691093E-1
4.525198405E0,1.492037177E0,5.714640021E-1,-4.761691093E-1
4.535198405E0,1.492037177E0,5.714640021E-1,-4.761691093E-1
4.545198405E0,1.057101488E0,9.819651246E-1,-4.437932670E-1
4.555198405E0,8.701768517E-1,9.563088417E-1,-4.144717455E-1
4.565198405E0,8.701768517E-1,9.563088417E-1,-4.144717455E-1
4.575198405E0,8.701768517E-1,9.563088417E-1,-4.144717455E-1
4.585198405E0,8.701768517E-1,9.563088417E-1,-4.144717455E-1
4.595198405E0,8.701768517E-1,9.563088417E-1,-4.144717455E-1
4.605198405E0,8.521563560E-2,-3.940077871E-2,-1.572976857E-1
4.615198405E0,8.521563560E-2,-3.940077871E-2,-1.572976857E-1
4.625198405E0,8.521563560E-2,-3.940077871E-2,-1.572976857E-1
4.635198405E0,8.521563560E-2,-3.940077871E-2,-1.572976857E-1
4.671624999E0,-2.596175298E-2,-7.003564835E-1,1.249218509E-1
4.681624999E0,-3.656025827E-1,-9.630283117E-1,5.161807314E-2
4.691624999E0,-5.867356062E-1,-1.148731232E0,-4.581485875E-3
4.701624999E0,-6.649262905E-1,-1.244026065E0,-6.566796452E-2
4.711624999E0,-5.818486810E-1,-1.259908557E0,-1.218675226E-1
4.721624999E0,-3.814850450E-1,-1.215926290E0,-2.354883701E-1
4.731624999E0,-1.811214089E-1,-1.081536055E0,-3.466657698E-1
4.741624999E0,-1.029307172E-1,-7.480039001E-1,-4.285216331E-1
4.751624999E0,-6.627883017E-2,-2.397644222E-1,-5.360338688E-1
4.761624999E0,-9.926552325E-2,9.987638891E-2,-5.506945848E-1
4.771624999E0,-1.811214089E-1,4.101957083E-1,-5.274817348E-1
4.781624999E0,-2.373209596E-1,5.470294356E-1,-5.177078843E-1
4.791624999E0,-2.886336148E-1,5.421425104E-1,-4.663952589E-1
4.801624999E0,-3.020726442E-1,3.002400398E-1,-3.527744114E-1
4.811624999E0,-3.008508980E-1,1.191186346E-2,-2.538143098E-1
4.821624999E0,-3.228420317E-1,-3.533852696E-1,-1.304196268E-1
4.831624999E0,-3.839285076E-1,-5.317577720E-1,-2.412915789E-2
4.841624999E0,-5.122101307E-1,-5.659661889E-1,6.627883017E-2
4.851624999E0,-6.404917240E-1,-4.230238497E-1,1.200349256E-1
4.861624999E0,-7.480039001E-1,-2.470948100E-1,1.627954692E-1
4.871624999E0,-7.968730927E-1,-1.566868126E-1,1.957821548E-1
4.881624999E0,-7.809906006E-1,-1.041524485E-1,1.994473487E-1
4.891624999E0,-6.930260658E-1,-9.560033679E-2,1.982256174E-1
4.901624999E0,-6.307178736E-1,-9.804379940E-2,2.031125426E-1
4.911624999E0,-5.842921734E-1,5.833758786E-2,2.092211843E-1
4.921624999E0,-5.305360556E-1,2.660316229E-1,1.774562150E-1
4.931624999E0,-3.949240744E-1,3.588830531E-1,1.420260668E-1
4.941624999E0,-2.251036763E-1,4.419606626E-1,1.151480079E-1
4.951624999E0,-9.193515033E-2,4.944950342E-1,1.041524485E-1
4.961624999E0,2.657261863E-2,6.423243284E-1,1.078176349E-1
4.971624999E0,4.856374860E-2,7.205150127E-1,1.053741723E-1
4.981624999E0,4.978547990E-2,6.704241037E-1,8.093958348E-2
4.991624999E0,8.888082206E-2,5.018253922E-1,1.252272818E-2
5.001624999E0,1.634063274E-1,3.161225319E-1,-1.047633067E-1
5.011624999E0,2.025016695E-1,2.880227566E-1,-1.866191924E-1
5.021624999E0,2.049451321E-1,3.100138903E-1,-2.171624303E-1
5.031624999E0,1.988364905E-1,2.880227566E-1,-2.134972364E-1
5.041624999E0,1.707367003E-1,2.635881603E-1,-1.780670881E-1
5.051624999E0,4.978547990E-2,2.098320574E-1,-1.304196268E-1
5.061624999E0,-8.704823256E-2,9.865466505E-2,-8.399390429E-2
5.071624999E0,-2.922987938E-1,-6.994401664E-2,7.360920310E-2
5.081624999E0,-4.156934917E-1,-3.521635532E-1,2.984074354E-1
5.091624999E0,-5.244274139E-1,-7.296779752E-1,4.046979249E-1
5.101624999E0,-4.242455959E-1,-1.036332130E0,5.403099060E-1
5.111624999E0,-3.020726442E-1,-1.020449638E0,6.050615907E-1
5.121624999E0,-1.456912458E-1,-7.968730927E-1,5.989528894E-1
5.131624999E0,-7.971785218E-2,-5.610793233E-1,5.488619804E-1
5.141624999E0,-6.017018110E-2,-3.912588954E-1,5.109884143E-1
5.151624999E0,-9.926552325E-2,-3.741546869E-1,5.073232055E-1
5.161624999E0,-1.408043355E-1,-4.181369543E-1,5.024362803E-1
5.171624999E0,-2.092211843E-1,-4.694495797E-1,5.073232055E-1
5.181624999E0,-2.996291816E-1,-4.621191919E-1,5.207622051E-1
5.191624999E0,-4.584540129E-1,-3.533852696E-1,4.902189970E-1
5.201624999E0,-5.867356062E-1,-1.701258421E-1,4.340194166E-1
5.211624999E0,-7.247910500E-1,1.792888194E-1,4.010327160E-1
5.221624999E0,-8.689551353E-1,7.730493546E-1,3.790415823E-1
5.231624999E0,-8.994984031E-1,1.045495033E0,3.802633286E-1
5.241624999E0,-8.408553600E-1,6.056724191E-1,5.696313977E-1
5.251624999E0,-8.200859427E-1,1.182023361E-1,7.492256761E-1
5.261624999E0,-8.701768517E-1,-3.558287323E-1,8.897245526E-1
5.271624999E0,-9.825760126E-1,-7.699950337E-1,9.471458197E-1
5.281624999E0,-9.471458197E-1,-1.225700140E0,1.008232355E0
5.291624999E0,-6.013963819E-1,-1.330768943E0,1.091309905E0
5.301624999E0,-2.128863782E-1,-1.142622590E0,9.996802211E-1
5.311624999E0,1.890626550E-1,-6.575959325E-1,6.221657991E-1
5.321624999E0,3.662134409E-1,-2.519817352E-1,2.214384824E-1
5.331624999E0,4.456258714E-1,1.780670881E-1,-1.316413581E-1
5.341624999E0,4.773908257E-1,5.690205693E-1,-2.330449075E-1
5.351624999E0,4.578431547E-1,8.524618149E-1,-2.684750557E-1
5.361624999E0,4.627300799E-1,9.624174833E-1,-3.124573231E-1
5.371624999E0,5.238165259E-1,9.392045736E-1,-2.745837271E-1
5.381624999E0,6.301070452E-1,8.268054724E-1,-1.609628648E-1
5.391624999E0,7.400626540E-1,7.082977295E-1,-9.010255337E-2
5.401624999E0,8.500183225E-1,5.836812854E-1,-3.268126398E-2
5.411624999E0,8.952223063E-1,5.677987933E-1,-5.803215317E-3
5.421624999E0,9.624174833E-1,6.740893126E-1,2.474002354E-2
5.431624999E0,9.831868410E-1,8.695660233E-1,6.872228533E-2
5.441624999E0,9.367611408E-1,1.028390884E0,4.428769648E-2
5.451624999E0,8.206968307E-1,1.067486167E0,1.007926930E-2
5.461624999E0,7.302888632E-1,1.024725676E0,2.474002354E-2
5.471624999E0,6.142245531E-1,9.440914989E-1,1.090393662E-1
5.481624999E0,4.896081090E-1,9.049961567E-1,1.811214089E-1
5.491624999E0,3.026835024E-1,9.147700071E-1,2.226602137E-1
5.501624999E0,1.511890292E-1,9.330959320E-1,2.629773021E-1
5.511624999E0,1.108719558E-1,1.005177975E0,2.935205400E-1
5.521624999E0,1.731801629E-1,1.123685718E0,3.106247485E-1
5.531624999E0,2.684750557E-1,1.054047227E0,3.411679864E-1
5.541624999E0,4.040870368E-1,8.035926223E-1,4.230238497E-1
5.551624999E0,5.030471683E-1,6.423243284E-1,4.816668928E-1
5.561624999E0,5.958985686E-1,6.130027771E-1,4.841103256E-1
5.571624999E0,6.252201200E-1,5.922334194E-1,4.499019086E-1
5.581624999E0,5.751292109E-1,4.761691093E-1,4.205803871E-1
5.591624999E0,4.309650958E-1,5.030471683E-1,3.888154328E-1
5.601624999E0,2.489273995E-1,5.433642268E-1,3.558287323E-1
5.611624999E0,-4.673115537E-2,4.822777510E-1,3.069595397E-1
5.621624999E0,-2.202167511E-1,4.553996921E-1,2.666424811E-1
5.631624999E0,-3.228420317E-1,4.126391709E-1,1.945604384E-1
5.641624999E0,-2.434296161E-1,2.061668634E-1,1.432477981E-1
5.651624999E0,-5.772672221E-2,-1.252272818E-2,1.408043355E-1
5.661624999E0,2.782489061E-1,-1.786779463E-1,1.237001196E-1
5.671624999E0,5.128209591E-1,-2.275471240E-1,9.682206810E-2
5.681624999E0,6.484329700E-1,-2.837466896E-1,1.017089859E-1
5.691624999E0,5.910117030E-1,-2.776380479E-1,1.029307172E-1
5.701624999E0,3.857611120E-1,-1.627954692E-1,4.428769648E-2
5.711624999E0,1.646280587E-1,-1.579085439E-1,-1.191186346E-2
5.721624999E0,4.734202102E-2,-2.532034516E-1,-2.535088919E-2
5.731624999E0,-2.474002354E-2,-4.340194166E-1,-3.634645417E-2
5.741624999E0,-5.039634556E-2,-5.781835318E-1,-5.803215317E-3
5.751624999E0,-7.727439702E-2,-7.211259007E-1,-3.359756200E-3
5.761624999E0,-9.804379940E-2,-8.139773011E-1,-3.634645417E-2
5.771624999E0,-1.285870373E-1,-8.652899861E-1,-8.155044913E-2
5.781624999E0,-2.055560052E-1,-8.982766867E-1,-1.389717311E-1
5.791624999E0,-2.776380479E-1,-8.054252267E-1,-1.756236255E-1
5.801624999E0,-3.326158822E-1,-5.549706817E-1,-1.927278340E-1
5.811624999E0,-3.216203153E-1,-2.751945853E-1,-1.976147592E-1
5.821624999E0,-2.299905866E-1,8.765909821E-2,-1.927278340E-1
5.831624999E0,-7.727439702E-2,4.444041252E-1,-1.353065521E-1
5.841624999E0,9.162971983E-4,7.583886385E-1,-4.489856213E-2
5.851624999E0,2.657261863E-2,1.038164735E0,2.107483521E-2
5.861624999E0,7.299833745E-2,1.085812092E0,8.338304609E-2
5.871624999E0,1.890626550E-1,9.917389750E-1,2.165515572E-1
5.881624999E0,2.428187430E-1,7.302888632E-1,3.375027776E-1
5.891624999E0,3.356702030E-1,2.941313982E-1,4.254673123E-1
5.901624999E0,3.625482321E-1,-1.982256174E-1,5.256491303E-1
5.911624999E0,3.271180987E-1,-5.671879649E-1,6.075050235E-1
5.921624999E0,2.367101014E-1,-9.043853283E-1,6.563742161E-1
5.931624999E0,1.463021189E-1,-1.097418547E0,6.380482912E-1
5.941624999E0,1.069013402E-2,-1.228143692E0,5.305360556E-1
5.951624999E0,-1.334739476E-1,-1.267238975E0,3.814850450E-1
5.961624999E0,-3.289506733E-1,-1.279456258E0,1.615737379E-1
5.971624999E0,-4.108065665E-1,-1.071762204E0,-5.100720748E-2
5.981624999E0,-3.765981495E-1,-7.284562588E-1,-1.682932526E-1
5.991624999E0,-2.507599890E-1,-1.798996776E-1,-2.806923687E-1
6.001624999E0,-1.090393662E-1,1.915061027E-1,-3.637699783E-1
6.011624999E0,1.157588735E-1,5.433642268E-1,-4.236347377E-1
6.021624999E0,2.684750557E-1,6.496546865E-1,-4.101957083E-1
6.031624999E0,4.321868420E-1,6.386591196E-1,-3.747655451E-1
6.041624999E0,5.348120928E-1,5.604684353E-1,-3.417788446E-1
6.051624999E0,5.616901517E-1,4.944950342E-1,-3.271180987E-1
6.061624999E0,5.238165259E-1,4.468475878E-1,-3.283398151E-1
6.071624999E0,4.492910504E-1,4.444041252E-1,-3.344484568E-1
6.081624999E0,3.491092324E-1,4.004218578E-1,-3.161225319E-1
6.091624999E0,3.002400398E-1,2.990183234E-1,-2.990183234E-1
6.101624999E0,2.868010104E-1,1.744018942E-1,-2.733619809E-1
6.111624999E0,3.063486814E-1,8.277218044E-2,-2.415970266E-1
6.121624999E0,3.210094273E-1,1.557705179E-2,-2.098320574E-1
6.131624999E0,3.063486814E-1,-7.483093441E-2,-1.609628648E-1
6.141624999E0,2.696968019E-1,-1.224783882E-1,-1.157588735E-1
6.151624999E0,2.379318327E-1,-1.383608729E-1,-6.322450191E-2
6.161624999E0,1.878409237E-1,-1.371391416E-1,-3.268126398E-2
6.171624999E0,2.535088919E-2,-1.408043355E-1,-9.162971983E-4
6.181624999E0,-1.725693047E-1,-1.285870373E-1,3.084867075E-2
6.191624999E0,-2.959639728E-1,-7.238747925E-2,4.917461425E-2
6.201624999E0,-4.156934917E-1,3.756818548E-2,4.550942779E-2
6.211624999E0,-4.792234302E-1,1.670715213E-1,4.795288667E-2
6.221624999E0,-4.780016840E-1,2.342666388E-1,6.627883017E-2
6.231624999E0,-3.839285076E-1,1.414151937E-1,9.804379940E-2
6.241624999E0,-2.336557806E-1,4.856374860E-2,1.676823795E-1
6.251624999E0,-1.469129771E-1,2.535088919E-2,2.409861535E-1
6.261624999E0,-1.334739476E-1,1.023198515E-1,2.837466896E-1
6.271624999E0,-2.006690800E-1,3.246746361E-1,3.032943606E-1
6.281624999E0,-3.142899275E-1,5.897899270E-1,3.069595397E-1
6.291624999E0,-4.963276386E-1,9.025527239E-1,2.360992432E-1
6.301624999E0,-6.307178736E-1,1.133459568E0,1.102610901E-1
6.311624999E0,-7.235693336E-1,1.298393130E0,-8.643736690E-2
6.321624999E0,-8.481857181E-1,1.421787739E0,-2.367101014E-1
6.331624999E0,-9.789108038E-1,1.311832070E0,-2.806923687E-1
6.341624999E0,-1.218369842E0,9.673043489E-1,-2.391535640E-1
6.351624999E0,-1.406516194E0,7.241802216E-1,-1.951712966E-1
6.361624999E0,-1.506698012E0,4.847212136E-1,-1.536324918E-1
6.371624999E0,-1.432172418E0,3.992001414E-1,-1.707367003E-1
6.381624999E0,-1.141400814E0,3.588830531E-1,-2.159406990E-1
6.391624999E0,-6.575959325E-1,2.806923687E-1,-2.208276242E-1
6.401624999E0,-2.214384824E-1,1.328630894E-1,-1.963930279E-1
6.411624999E0,2.782489061E-1,-7.727439702E-2,-1.695149690E-1
6.421624999E0,4.908298552E-1,-2.409861535E-1,-1.548542231E-1
6.431624999E0,5.115992427E-1,-3.106247485E-1,-1.560759544E-1
6.441624999E0,3.930914998E-1,-2.593120933E-1,-1.597411335E-1
6.451624999E0,1.463021189E-1,-2.336557806E-1,-1.560759544E-1
6.461624999E0,-7.849612087E-2,-2.128863782E-1,-1.853974611E-1
6.471624999E0,-2.043342739E-1,-2.397644222E-1,-2.196058929E-1
6.481624999E0,-2.629773021E-1,-2.996291816E-1,-2.415970266E-1
6.491624999E0,-2.373209596E-1,-3.436114490E-1,-2.501491308E-1
6.501624999E0,-1.298087686E-1,-3.008508980E-1,-2.513708472E-1
6.511624999E0,-5.192350596E-3,-1.188132018E-1,-2.354883701E-1
6.521624999E0,1.609628648E-1,1.536324918E-1,-2.208276242E-1
6.531624999E0,3.332267404E-1,4.065304995E-1,-2.086103261E-1
6.541624999E0,4.590648711E-1,5.653553605E-1,-1.976147592E-1
6.551624999E0,5.995637774E-1,6.447677612E-1,-1.634063274E-1
6.561624999E0,6.679806113E-1,6.447677612E-1,-1.463021189E-1
6.571624999E0,6.411026120E-1,5.458076596E-1,-1.450803876E-1
6.581624999E0,5.641336441E-1,4.615083337E-1,-1.401934624E-1
6.591624999E0,4.590648711E-1,3.869828284E-1,-1.646280587E-1
6.601624999E0,3.039052188E-1,2.648098767E-1,-1.389717311E-1
6.611624999E0,2.672533393E-1,1.304196268E-1,-1.609628648E-1
6.621624999E0,1.731801629E-1,-7.605266571E-2,-1.194240674E-1
6.631624999E0,1.817322671E-1,-2.959639728E-1,-1.304196268E-1
6.641624999E0,1.988364905E-1,-5.146535635E-1,-1.035415828E-1
6.651624999E0,2.293797284E-1,-6.832522750E-1,-9.132428467E-2
6.661624999E0,2.965748608E-1,-7.907644510E-1,-8.643736690E-2
6.671624999E0,4.004218578E-1,-7.040216327E-1,-9.132428467E-2
6.681624999E0,5.140427351E-1,-6.209440231E-1,-1.218675226E-1
6.691624999E0,6.606502533E-1,-5.378664136E-1,-1.426369250E-1
6.701624999E0,7.681624889E-1,-4.816668928E-1,-1.194240674E-1
6.711624999E0,9.025527239E-1,-4.474584460E-1,-6.566796452E-2
6.721624999E0,1.011286616E0,-4.572322965E-1,-9.468403645E-3
6.731624999E0,1.095585942E0,-4.743365049E-1,5.894844979E-2
6.741624999E0,1.105359793E0,-4.523453712E-1,7.727439702E-2
6.751624999E0,1.046716809E0,-4.462367296E-1,5.406153202E-2
6.761624999E0,8.878919482E-1,-5.293143392E-1,-2.046396956E-2
6.771624999E0,7.449495792E-1,-6.368265152E-1,-1.059850380E-1
6.781624999E0,5.543597937E-1,-7.614429593E-1,-2.086103261E-1
6.791624999E0,4.114174247E-1,-8.213077188E-1,-2.684750557E-1
6.801624999E0,2.819140851E-1,-8.359684348E-1,-3.075704277E-1
6.811624999E0,1.902843714E-1,-8.127555847E-1,-2.977965772E-1
6.821624999E0,1.023198515E-1,-7.761036754E-1,-2.538143098E-1
6.831624999E0,-1.618791744E-2,-7.345649004E-1,-2.086103261E-1
6.841624999E0,-1.139262840E-1,-7.553343177E-1,-2.159406990E-1
6.851624999E0,-2.348775119E-1,-9.080504775E-1,-3.002400398E-1
6.861624999E0,-4.279107749E-1,-1.091309905E0,-3.711003661E-1
6.871624999E0,-6.649262905E-1,-1.054658055E0,-3.601047993E-1
6.881624999E0,-9.642500281E-1,-6.869174242E-1,-3.149007857E-1
6.891624999E0,-1.075427413E0,-3.313941360E-1,-3.014617562E-1
6.901624999E0,-1.033888698E0,7.024944760E-3,-2.831358314E-1
6.911624999E0,-9.581413865E-1,2.281579971E-1,-3.149007857E-1
6.921624999E0,-8.897245526E-1,4.395172000E-1,-4.028653204E-1
6.931624999E0,-6.856957078E-1,3.796524704E-1,-5.030471683E-1
6.941624999E0,-5.488619804E-1,2.367101014E-1,-4.712821841E-1
6.951624999E0,-3.008508980E-1,-5.192350596E-3,-4.566214085E-1
6.961624999E0,-8.460476995E-2,-2.067777216E-1,-4.285216331E-1
6.971624999E0,1.365282834E-1,-3.863719702E-1,-3.662134409E-1
6.981624999E0,2.538143098E-1,-4.987711012E-1,-3.026835024E-1
6.991624999E0,3.210094273E-1,-6.123919487E-1,-2.110537887E-1
7.001624999E0,2.843575478E-1,-6.832522750E-1,-1.010981202E-1
7.011624999E0,1.951712966E-1,-6.453786492E-1,-3.359756200E-3
7.021624999E0,6.933315098E-2,-5.989528894E-1,9.926552325E-2
7.031624999E0,-1.252272818E-2,-5.830704570E-1,1.591302752E-1
7.041624999E0,-6.505709887E-2,-5.598575473E-1,2.177732885E-1
7.051624999E0,-9.926552325E-2,-4.767799675E-1,2.348775119E-1
7.061624999E0,-9.071341902E-2,-3.460549116E-1,2.043342739E-1
7.071624999E0,-1.985310577E-2,-1.933387071E-1,1.310304999E-1
7.081624999E0,7.544180006E-2,-1.029307172E-1,6.994401664E-2
7.091624999E0,2.012799382E-1,-6.414080039E-3,-1.557705179E-2
7.101624999E0,2.721402645E-1,1.096502244E-1,-6.933315098E-2
7.111624999E0,3.295615613E-1,2.892444730E-1,-1.145371497E-1
7.121624999E0,3.662134409E-1,4.040870368E-1,-1.389717311E-1
7.131624999E0,3.747655451E-1,5.103775263E-1,-1.450803876E-1
7.141624999E0,3.454440236E-1,5.763509274E-1,-1.511890292E-1
7.151624999E0,3.149007857E-1,6.349939108E-1,-1.548542231E-1
7.161624999E0,2.574795187E-1,7.400626540E-1,-1.157588735E-1
7.171624999E0,2.049451321E-1,8.659008145E-1,-9.010255337E-2
7.181624999E0,1.243109852E-1,1.028390884E0,-7.055488229E-2
7.191624999E0,5.467239767E-2,1.030834317E0,-3.878991306E-2
7.201624999E0,-1.863137633E-2,9.013310075E-1,-4.581485875E-3
7.211624999E0,-1.065959036E-1,6.496546865E-1,5.528326333E-2
7.221624999E0,-1.713475734E-1,3.674351573E-1,9.437860548E-2
7.231624999E0,-2.666424811E-1,4.123337194E-2,1.542433500E-1
7.241624999E0,-3.228420317E-1,-1.212566569E-1,2.214384824E-1
7.251624999E0,-3.582721949E-1,-1.872300506E-1,3.203985691E-1
7.261624999E0,-3.484983444E-1,-1.603520066E-1,4.181369543E-1
7.271624999E0,-3.142899275E-1,-1.725693047E-1,5.048797131E-1
7.281624999E0,-3.265072107E-1,-2.251036763E-1,5.647444725E-1
7.291624999E0,-4.120282829E-1,-2.251036763E-1,5.476402640E-1
7.301624999E0,-5.158752799E-1,-1.237001196E-1,4.951058924E-1
7.311624999E0,-5.867356062E-1,-1.860083193E-1,4.657844007E-1
7.321624999E0,-6.441569328E-1,-3.717112243E-1,4.437932670E-1
7.331624999E0,-6.869174242E-1,-5.659661889E-1,4.608974755E-1
7.341624999E0,-8.139773011E-1,-7.113520503E-1,5.219839811E-1
7.351624999E0,-9.764673710E-1,-7.308996916E-1,5.134318471E-1
7.361624999E0,-1.047327638E0,-5.085449219E-1,4.877755344E-1
7.371624999E0,-1.063210130E0,-6.414080039E-3,3.607156575E-1
7.381624999E0,-9.495893121E-1,3.344484568E-1,2.715294063E-1
7.391624999E0,-7.724385262E-1,6.643154621E-1,3.277289569E-1
7.401624999E0,-6.710349321E-1,8.414662480E-1,4.474584460E-1
7.411624999E0,-6.026180983E-1,6.435460448E-1,5.867356062E-1
7.421624999E0,-5.122101307E-1,1.572976857E-1,6.685914993E-1
7.431624999E0,-3.998109996E-1,-1.102610901E-1,6.808087826E-1
7.441624999E0,-2.128863782E-1,-2.287688553E-1,6.551524997E-1
7.451624999E0,-2.474002354E-2,-2.474002354E-2,6.221657991E-1
7.461624999E0,2.599229515E-1,2.391535640E-1,4.156934917E-1
7.471624999E0,5.128209591E-1,2.208276242E-1,1.994473487E-1
7.481624999E0,8.243620396E-1,1.340848207E-1,4.306596518E-2
7.491624999E0,1.044273376E0,2.904661894E-1,-7.666353136E-2
7.501624999E0,1.096807718E0,4.578431547E-1,-1.780670881E-1
7.511624999E0,1.030834317E0,7.131846547E-1,-2.489273995E-1
7.521624999E0,9.025527239E-1,1.000291109E0,-2.831358314E-1
7.531624999E0,6.679806113E-1,1.165224552E0,-3.295615613E-1
7.541624999E0,4.480693042E-1,1.162781119E0,-3.515526950E-1
7.551624999E0,1.841757298E-1,1.094364285E0,-3.576613367E-1
7.561624999E0,-4.428769648E-2,1.014951825E0,-2.806923687E-1
7.571624999E0,-2.104429156E-1,9.954041839E-1,-1.548542231E-1
7.581624999E0,-4.413498044E-1,1.036942959E0,-4.245510325E-2
7.591624999E0,-6.075050235E-1,1.045495033E0,-1.679878123E-2
7.601624999E0,-7.858775258E-1,9.245438576E-1,-3.023780696E-2
7.611624999E0,-8.860593438E-1,7.583886385E-1,-5.711585656E-2
7.621624999E0,-9.068287611E-1,4.651735425E-1,1.863137633E-2
7.631624999E0,-8.616247773E-1,2.562577724E-1,4.062250629E-2
7.641624999E0,-7.785471678E-1,1.475238502E-1,2.962694131E-2
7.651624999E0,-6.417134404E-1,1.145371497E-1,-2.046396956E-2
7.661624999E0,-5.293143392E-1,9.621120244E-2,-5.100720748E-2
7.671624999E0,-3.778198659E-1,-5.650499091E-2,1.496618707E-2
7.681624999E0,-2.971857190E-1,-3.130682111E-1,1.114828214E-1
7.691624999E0,-2.348775119E-1,-8.213077188E-1,2.800815105E-1
7.701624999E0,-1.261435747E-1,-6.881392002E-1,3.619373739E-1
7.711624999E0,-2.718348242E-2,-4.547888339E-1,4.083631039E-1
7.721624999E0,4.734202102E-2,-1.860083193E-1,3.888154328E-1
7.731624999E0,7.910698652E-2,1.069013402E-2,3.252854943E-1
7.741624999E0,5.222893879E-2,2.110537887E-1,1.847866029E-1
7.751624999E0,-3.940077871E-2,3.711003661E-1,9.560033679E-2
7.761624999E0,-2.251036763E-1,5.995637774E-1,1.252272818E-2
7.771624999E0,-4.572322965E-1,7.938187718E-1,-9.865466505E-2
7.781624999E0,-6.331613660E-1,9.074396491E-1,-2.122755051E-1
7.791624999E0,-7.956513762E-1,1.024725676E0,-3.674351573E-1
7.801624999E0,-8.848376274E-1,1.035721183E0,-4.883863926E-1
7.811624999E0,-9.581413865E-1,9.697478414E-1,-6.068941355E-1
7.821624999E0,-9.996802211E-1,9.294307828E-1,-6.520981789E-1
7.831624999E0,-1.037553787E0,9.257655740E-1,-6.166679859E-1
7.841624999E0,-1.037553787E0,9.453132749E-1,-5.006036758E-1
7.851624999E0,-9.703587294E-1,9.062178731E-1,-3.637699783E-1
7.861624999E0,-7.651081085E-1,8.842267394E-1,-1.401934624E-1
7.871624999E0,-5.268708467E-1,8.145881891E-1,4.550942779E-2
7.881624999E0,-2.006690800E-1,6.081159115E-1,2.251036763E-1
7.891624999E0,2.901607752E-2,3.381136656E-1,2.886336148E-1
7.901624999E0,2.196058929E-1,-7.360920310E-2,2.153298408E-1
7.911624999E0,2.868010104E-1,-4.462367296E-1,-8.246674202E-3
7.921624999E0,2.806923687E-1,-6.294961572E-1,-2.025016695E-1
7.931624999E0,1.963930279E-1,-6.930260658E-1,-4.224129915E-1
7.941624999E0,1.096502244E-1,-6.698132157E-1,-5.299251676E-1
7.951624999E0,-8.857538924E-3,-5.207622051E-1,-5.641336441E-1
7.961624999E0,-1.346956789E-1,-3.668242991E-1,-4.944950342E-1
7.971624999E0,-2.409861535E-1,-3.423897028E-1,-3.918697536E-1
7.981624999E0,-3.326158822E-1,-3.790415823E-1,-2.562577724E-1
7.991624999E0,-3.497200906E-1,-4.352411628E-1,-1.805105358E-1
8.001624999E0,-2.947422564E-1,-4.706713259E-1,-1.377500147E-1
8.011624999E0,-2.079994529E-1,-4.780016840E-1,-1.255327165E-1
8.021624999E0,-7.360920310E-2,-4.780016840E-1,-1.206457913E-1
8.031624999E0,6.566796452E-2,-4.205803871E-1,-1.475238502E-1
8.041624999E0,1.634063274E-1,-3.045161068E-1,-1.988364905E-1
8.051624999E0,2.464839369E-1,-1.261435747E-1,-2.758054435E-1
8.061624999E0,2.770271897E-1,-1.863137633E-2,-3.075704277E-1
8.071624999E0,3.063486814E-1,9.498947114E-2,-2.721402645E-1
8.081624999E0,3.344484568E-1,1.927278340E-1,-2.037234008E-1
8.091624999E0,3.478874862E-1,3.197877109E-1,-1.304196268E-1
8.101624999E0,3.039052188E-1,4.285216331E-1,-8.765909821E-2
8.111624999E0,2.220493406E-1,4.663952589E-1,-8.765909821E-2
8.121624999E0,7.910698652E-2,4.456258714E-1,-1.304196268E-1
8.131624999E0,-3.329212964E-2,3.894262910E-1,-1.768453568E-1
8.141624999E0,-1.334739476E-1,2.452622056E-1,-2.330449075E-1
8.151624999E0,-1.676823795E-1,8.399390429E-2,-2.709185183E-1
8.161624999E0,-1.420260668E-1,-3.329212964E-2,-2.916879356E-1
8.171624999E0,-6.994401664E-2,-7.483093441E-2,-2.477056682E-1
8.181624999E0,-3.054323897E-4,-2.962694131E-2,-1.915061027E-1
8.191624999E0,5.589412898E-2,1.191186346E-2,-1.169806048E-1
8.201624999E0,5.833758786E-2,5.803215317E-3,-5.345066637E-2
8.211624999E0,2.535088919E-2,-1.004872546E-1,1.374445762E-2
8.221624999E0,-1.527161920E-3,-2.959639728E-1,4.673115537E-2
8.231624999E0,-8.857538924E-3,-5.879573226E-1,8.216131479E-2
8.241624999E0,2.535088919E-2,-7.944296598E-1,1.212566569E-1
8.251624999E0,4.978547990E-2,-8.115338683E-1,1.224783882E-1
8.261624999E0,5.833758786E-2,-6.197223067E-1,9.437860548E-2
8.271624999E0,8.246674202E-3,-3.619373739E-1,4.184423760E-2
8.281624999E0,-1.493564397E-1,-3.329212964E-2,-8.032871783E-2
8.291624999E0,-3.106247485E-1,2.501491308E-1,-2.049451321E-1
8.301624999E0,-4.914407134E-1,6.447677612E-1,-3.222311735E-1
8.311624999E0,-6.062833071E-1,9.782999158E-1,-3.747655451E-1
8.321624999E0,-6.612611413E-1,1.155450702E0,-3.894262910E-1
8.331624999E0,-7.272345424E-1,1.271515012E0,-3.930914998E-1
8.341624999E0,-7.638863921E-1,1.286175847E0,-4.089739621E-1
8.351624999E0,-7.565560341E-1,1.255632520E0,-4.627300799E-1
8.361624999E0,-7.015781999E-1,1.204319954E0,-4.957167804E-1
8.371624999E0,-5.647444725E-1,1.144455194E0,-4.444041252E-1
8.381624999E0,-3.472766280E-1,1.218980670E0,-2.391535640E-1
8.391624999E0,-1.640172005E-1,1.429118156E0,7.360920310E-2
8.401624999E0,2.168569900E-2,1.862832189E0,6.453786492E-1
8.411624999E0,1.120936871E-1,2.083965302E0,1.130405307E0
8.421624999E0,1.096502244E-1,1.954461813E0,1.499367595E0
8.431624999E0,3.268126398E-2,1.486539483E0,1.449276686E0
8.441624999E0,8.246674202E-3,8.011491299E-1,1.021671295E0
8.451624999E0,1.108719558E-1,3.014617562E-1,4.804451466E-1
8.461624999E0,2.477056682E-1,2.073885947E-1,1.676823795E-1
8.471624999E0,4.517345130E-1,4.505127668E-1,1.252272818E-2
8.481624999E0,5.873464942E-1,7.877101302E-1,3.451386094E-2
8.491624999E0,6.630937457E-1,1.021060467E0,1.908952445E-1
8.501624999E0,6.386591196E-1,1.000291109E0,3.656025827E-1
8.511624999E0,5.543597937E-1,7.938187718E-1,5.842921734E-1
8.521624999E0,4.211912751E-1,4.309650958E-1,7.651081085E-1
8.531624999E0,2.990183234E-1,3.634645417E-2,8.445205688E-1
8.541624999E0,1.829539984E-1,-5.781835318E-1,8.213077188E-1
8.551624999E0,1.328630894E-1,-1.049771070E0,6.918043494E-1
8.561624999E0,9.376774728E-2,-1.472489595E0,4.376846254E-1
8.571624999E0,3.145953640E-2,-1.627649188E0,2.104429156E-1
8.581624999E0,-1.004872546E-1,-1.598327637E0,-5.711585656E-2
8.591624999E0,-2.397644222E-1,-1.316108227E0,-3.039052188E-1
8.601624999E0,-3.179551065E-1,-1.046105981E0,-4.822777510E-1
8.611624999E0,-3.900371492E-1,-7.089085579E-1,-6.643154621E-1
8.621624999E0,-4.450149834E-1,-5.708531141E-1,-7.473930717E-1
8.631624999E0,-5.109884143E-1,-6.331613660E-1,-7.852666974E-1
8.641624999E0,-5.561923981E-1,-8.029817343E-1,-7.620537877E-1
8.651624999E0,-6.209440231E-1,-1.099861979E0,-7.449495792E-1
8.661624999E0,-6.111702323E-1,-1.383303285E0,-7.486147881E-1
8.671624999E0,-5.342012644E-1,-1.542128086E0,-7.278453708E-1
8.681624999E0,-4.266890585E-1,-1.757152557E0,-6.973021626E-1
8.691624999E0,-3.790415823E-1,-1.904981852E0,-7.095194459E-1
8.701624999E0,-3.558287323E-1,-1.901316643E0,-7.522799969E-1
8.711624999E0,-3.277289569E-1,-1.786473989E0,-8.035926223E-1
8.721624999E0,-2.568686306E-1,-1.669188023E0,-9.159917235E-1
8.731624999E0,-2.434296161E-1,-1.566562772E0,-1.072373152E0
8.741624999E0,-2.629773021E-1,-1.319773316E0,-1.095585942E0
8.751624999E0,-2.055560052E-1,-9.837977290E-1,-9.135482907E-1
8.761624999E0,-1.615737379E-1,-4.242455959E-1,-7.131846547E-1
8.771624999E0,-8.216131479E-2,4.395172000E-1,-4.138608873E-1
8.781624999E0,1.069013402E-2,1.060155869E0,-1.536324918E-1
8.791624999E0,1.023198515E-1,1.304501772E0,1.469129771E-1
8.801624999E0,1.169806048E-1,6.496546865E-1,3.839285076E-1
8.811624999E0,1.120936871E-1,-1.151480079E-1,4.486801922E-1
8.821624999E0,9.376774728E-2,-6.490437984E-1,2.837466896E-1
8.831624999E0,6.566796452E-2,-6.930260658E-1,1.017089859E-1
8.841624999E0,-5.283980444E-2,-6.307178736E-1,-3.634645417E-2
8.851624999E0,-2.202167511E-1,-6.673697829E-1,-6.566796452E-2
8.861624999E0,-4.963276386E-1,-7.480039001E-1,4.062250629E-2
8.871624999E0,-6.563742161E-1,-2.703076601E-1,2.568686306E-1
8.881624999E0,-7.699950337E-1,-2.312123179E-1,3.827067912E-1
8.891624999E0,-8.286380768E-1,-3.817904741E-2,5.170970559E-1
8.901624999E0,-8.127555847E-1,1.499672979E-1,6.111702323E-1
8.911624999E0,-7.577777505E-1,3.478874862E-1,6.563742161E-1
8.921624999E0,-7.272345424E-1,3.564395905E-1,5.476402640E-1
8.931624999E0,-7.394518256E-1,2.293797284E-1,1.957821548E-1
8.941624999E0,-7.504473925E-1,9.987638891E-2,-1.719584316E-1
8.951624999E0,-7.150171995E-1,9.743293375E-2,-3.234528899E-1
8.961624999E0,-6.539307237E-1,2.049451321E-1,-3.588830531E-1
8.971624999E0,-6.013963819E-1,3.332267404E-1,-3.136790693E-1
8.981624999E0,-5.757400393E-1,4.211912751E-1,-2.147189677E-1
8.991624999E0,-5.989528894E-1,3.124573231E-1,-1.401934624E-1
9.001624999E0,-6.380482912E-1,-1.496618707E-2,-9.132428467E-2
9.011624999E0,-6.233875155E-1,-5.073232055E-1,-1.047633067E-1
9.021624999E0,-5.549706817E-1,-1.009454012E0,-1.426369250E-1
9.031624999E0,-4.083631039E-1,-1.456607103E0,-1.621845961E-1
9.041624999E0,-2.861901522E-1,-1.650862098E0,-1.475238502E-1
9.051624999E0,-1.359174103E-1,-1.667966247E0,-1.719584316E-1
9.061624999E0,2.138026757E-3,-1.580001712E0,-2.330449075E-1
9.071624999E0,7.055488229E-2,-1.515250087E0,-2.684750557E-1
9.081624999E0,1.108719558E-1,-1.361312151E0,-3.087921441E-1
9.091624999E0,1.255327165E-1,-1.109635830E0,-3.454440236E-1
9.101624999E0,1.169806048E-1,-7.565560341E-1,-4.077522457E-1
9.111624999E0,9.132428467E-2,-5.170970559E-1,-4.578431547E-1
9.121624999E0,5.100720748E-2,-2.959639728E-1,-4.847212136E-1
9.131624999E0,-1.007926930E-2,-2.043342739E-1,-4.883863926E-1
9.141624999E0,-7.605266571E-2,-1.994473487E-1,-4.749473631E-1
9.151624999E0,-1.823431402E-1,-2.605338395E-1,-4.382954836E-1
9.161624999E0,-2.776380479E-1,-3.607156575E-1,-3.918697536E-1
9.171624999E0,-3.875937164E-1,-4.364628792E-1,-3.356702030E-1
9.181624999E0,-4.596757591E-1,-4.804451466E-1,-2.843575478E-1
9.191624999E0,-4.938841760E-1,-5.280926228E-1,-2.183841616E-1
9.201624999E0,-4.572322965E-1,-5.109884143E-1,-1.646280587E-1
9.211624999E0,-3.778198659E-1,-5.085449219E-1,-1.414151937E-1
9.221624999E0,-2.373209596E-1,-4.523453712E-1,-1.328630894E-1
9.231624999E0,-1.212566569E-1,-3.741546869E-1,-1.621845961E-1
9.241624999E0,-4.306596518E-2,-4.193586707E-1,-2.330449075E-1
9.251624999E0,-8.216131479E-2,-5.427533388E-1,-3.222311735E-1
9.261624999E0,-2.312123179E-1,-7.870992422E-1,-4.541779757E-1
9.271624999E0,-3.741546869E-1,-9.471458197E-1,-5.775726438E-1
9.281624999E0,-4.254673123E-1,-8.921679854E-1,-6.569850445E-1
9.291624999E0,-4.242455959E-1,-6.013963819E-1,-7.217367291E-1
9.301624999E0,-4.071413875E-1,-2.006690800E-1,-7.498365045E-1
9.311624999E0,-4.120282829E-1,4.138608873E-1,-7.229584455E-1
9.321624999E0,-4.657844007E-1,8.585704565E-1,-6.618719697E-1
9.331624999E0,-6.148353815E-1,1.165224552E0,-5.849030018E-1
9.341624999E0,-8.054252267E-1,1.222645879E0,-5.201513767E-1
9.351624999E0,-9.080504775E-1,1.243415236E0,-4.883863926E-1
9.361624999E0,-9.300416112E-1,1.327714562E0,-5.006036758E-1
9.371624999E0,-8.677334189E-1,1.388801098E0,-5.189296007E-1
9.381624999E0,-7.211259007E-1,1.386357665E0,-4.993819594E-1
9.391624999E0,-5.708531141E-1,1.316719055E0,-4.334085584E-1
9.401624999E0,-3.717112243E-1,1.192102671E0,-2.904661894E-1
9.411624999E0,-1.713475734E-1,1.151785493E0,-6.811141968E-2
9.421624999E0,-3.084867075E-2,1.080925226E0,1.786779463E-1
9.431624999E0,7.910698652E-2,8.084795475E-1,4.596757591E-1
9.441624999E0,5.833758786E-2,3.857611120E-1,5.207622051E-1
9.451624999E0,-7.605266571E-2,-2.092211843E-1,3.888154328E-1
9.461624999E0,-1.603520066E-1,-4.914407134E-1,1.896735132E-1
9.471624999E0,-1.664606482E-1,-4.657844007E-1,-1.463021189E-1
9.481624999E0,-4.673115537E-2,-2.275471240E-1,-3.894262910E-1
9.491624999E0,9.010255337E-2,-8.704823256E-2,-3.796524704E-1
9.501624999E0,2.477056682E-1,-9.437860548E-2,-2.171624303E-1
9.511624999E0,3.759872615E-1,-2.580903769E-1,-5.100720748E-2
9.521624999E0,5.323686600E-1,-6.038398147E-1,1.652389169E-1
9.531624999E0,6.704241037E-1,-8.420770764E-1,3.020726442E-1
9.541624999E0,8.451313972E-1,-1.046105981E0,4.022544622E-1
9.551624999E0,9.844086170E-1,-1.213482857E0,4.450149834E-1
9.561624999E0,1.047938585E0,-1.322216868E0,4.401280880E-1
9.571624999E0,1.069929719E0,-1.378416419E0,3.888154328E-1
9.581624999E0,1.055268884E0,-1.324660301E0,3.118464649E-1
9.591624999E0,9.892954826E-1,-1.127961874E0,1.689041108E-1
9.601624999E0,8.854485154E-1,-9.324851036E-1,2.351829410E-2
9.611624999E0,6.997455955E-1,-7.443387508E-1,-1.353065521E-1
9.621624999E0,5.201513767E-1,-6.429351568E-1,-2.110537887E-1
9.631624999E0,4.224129915E-1,-5.977311730E-1,-2.122755051E-1
9.641624999E0,3.784307241E-1,-5.244274139E-1,-1.609628648E-1
9.651624999E0,3.930914998E-1,-4.254673123E-1,-1.023198515E-1
9.661624999E0,4.285216331E-1,-2.678641975E-1,-2.046396956E-2
9.671624999E0,4.395172000E-1,-1.053741723E-1,4.795288667E-2
9.681624999E0,3.882045746E-1,8.155044913E-2,1.188132018E-1
9.691624999E0,2.696968019E-1,1.426369250E-1,1.481347084E-1
9.701624999E0,1.572976857E-1,9.621120244E-2,1.224783882E-1
9.711624999E0,5.100720748E-2,-5.161807314E-2,5.772672221E-2
9.721624999E0,7.024944760E-3,-9.804379940E-2,1.985310577E-2
9.731624999E0,1.924224012E-2,-5.650499091E-2,3.695731983E-2
9.741624999E0,5.589412898E-2,2.779434808E-2,8.826996386E-2
9.751624999E0,1.206457913E-1,2.073885947E-1,1.408043355E-1
9.761624999E0,1.597411335E-1,3.222311735E-1,1.261435747E-1
9.771624999E0,1.206457913E-1,3.344484568E-1,3.695731983E-2
9.781624999E0,-1.496618707E-2,3.772090077E-1,-7.666353136E-2
9.791624999E0,-1.212566569E-1,4.175260663E-1,-1.377500147E-1
9.801624999E0,-1.896735132E-1,5.189296007E-1,-1.548542231E-1
9.811624999E0,-1.908952445E-1,5.739074349E-1,-1.634063274E-1
9.821624999E0,-1.249218509E-1,6.545416117E-1,-1.707367003E-1
9.831624999E0,-1.007926930E-2,6.288852692E-1,-2.354883701E-1
9.841624999E0,8.155044913E-2,6.472112536E-1,-3.258963525E-1
9.851624999E0,1.585194170E-1,6.655371785E-1,-3.857611120E-1
9.861624999E0,1.585194170E-1,6.435460448E-1,-3.735437989E-1
9.871624999E0,1.634063274E-1,7.388409376E-1,-2.599229515E-1
9.881624999E0,2.049451321E-1,7.046325207E-1,-1.389717311E-1
9.891624999E0,2.916879356E-1,6.252201200E-1,1.252272818E-2
9.901624999E0,3.662134409E-1,5.934551358E-1,1.982256174E-1
9.911624999E0,3.918697536E-1,5.885682106E-1,3.704894781E-1
9.921624999E0,2.733619809E-1,5.922334194E-1,4.303542376E-1
9.931624999E0,4.734202102E-2,5.849030018E-1,3.484983444E-1
9.941624999E0,-2.874118686E-1,6.276635528E-1,1.884517819E-1
9.951624999E0,-5.390881896E-1,7.486147881E-1,5.894844979E-2
9.961624999E0,-7.394518256E-1,9.318742156E-1,-4.001164436E-2
9.971624999E0,-7.785471678E-1,1.118798852E0,-3.145953640E-2
9.981624999E0,-7.418952584E-1,1.248302221E0,1.130099874E-2
9.991624999E0,-5.916225314E-1,1.347262263E0,1.750127524E-1
1.000162500E1,-5.916225314E-1,1.347262263E0,1.750127524E-1
1.001162500E1,-1.908952445E-1,7.742711306E-1,6.356047988E-1
1.002162500E1,1.679878123E-2,4.822777510E-1,8.323032856E-1
1.003162500E1,2.525925934E-1,4.612028971E-2,9.691369534E-1
1.004162500E1,3.857611120E-1,-2.336557806E-1,9.019418359E-1
1.005162500E1,4.578431547E-1,-3.289506733E-1,7.858775258E-1
1.006162500E1,5.482511520E-1,-3.399462402E-1,6.478220820E-1
1.007162500E1,6.362156868E-1,-2.458730787E-1,5.610793233E-1
1.008162500E1,8.280271888E-1,3.756818548E-2,4.450149834E-1
1.009162500E1,1.003956318E0,7.910698652E-2,3.729329407E-1
1.010162500E1,1.185993910E0,5.711585656E-2,3.460549116E-1
1.011162500E1,1.300836563E0,-5.283980444E-2,3.252854943E-1
1.012162500E1,1.346040487E0,-1.774562150E-1,3.008508980E-1
1.013162500E1,1.337488413E0,-2.519817352E-1,2.751945853E-1
1.014162500E1,1.269071579E0,-2.666424811E-1,2.275471240E-1
1.015162500E1,1.131016135E0,-3.546070158E-1,1.664606482E-1
1.016162500E1,1.017395258E0,-2.519817352E-1,1.505781710E-1
1.017162500E1,9.282090068E-1,-1.007926930E-2,1.456912458E-1
1.018162500E1,7.559451461E-1,2.501491308E-1,1.566868126E-1
1.019162500E1,5.971203446E-1,4.615083337E-1,1.933387071E-1
1.020162500E1,3.869828284E-1,4.089739621E-1,1.994473487E-1
1.021162500E1,2.587012351E-1,1.194240674E-1,2.177732885E-1
1.022162500E1,1.915061027E-1,-2.226602137E-1,2.336557806E-1
1.023162500E1,2.183841616E-1,-5.610793233E-1,2.128863782E-1
1.024162500E1,2.684750557E-1,-8.200859427E-1,2.018908113E-1
1.025162500E1,3.772090077E-1,-9.593631625E-1,1.933387071E-1
1.026162500E1,4.834994674E-1,-8.909462690E-1,1.860083193E-1
1.027162500E1,5.739074349E-1,-6.832522750E-1,1.921169758E-1
1.028162500E1,5.702422857E-1,-5.170970559E-1,2.202167511E-1
1.029162500E1,4.382954836E-1,-3.985892832E-1,2.470948100E-1
1.030162500E1,2.269362658E-1,-2.849684060E-1,2.202167511E-1
1.031162500E1,4.245510325E-2,-6.383536756E-2,1.774562150E-1
1.032162500E1,-1.493564397E-1,3.649916947E-1,1.579085439E-1
1.033162500E1,-2.189950198E-1,7.278453708E-1,1.469129771E-1
1.034162500E1,-2.617555559E-1,1.413235664E0,1.004872546E-1
1.035162500E1,-3.057378232E-1,1.975231290E0,3.451386094E-2
1.036162500E1,-3.008508980E-1,2.490801096E0,-1.487455666E-1
1.037162500E1,-2.874118686E-1,2.489579439E0,-3.246746361E-1
1.038162500E1,-2.568686306E-1,2.072969675E0,-3.869828284E-1
1.039162500E1,-1.017089859E-1,1.390022755E0,-4.040870368E-1
1.040162500E1,1.120936871E-1,8.976657987E-1,-3.869828284E-1
1.041162500E1,3.967566788E-1,3.723220825E-1,-3.222311735E-1
1.042162500E1,5.555815101E-1,8.643736690E-2,-2.391535640E-1
1.043162500E1,6.349939108E-1,1.927278340E-1,-7.788526267E-2
1.044162500E1,5.543597937E-1,5.421425104E-1,1.603520066E-1
1.045162500E1,3.197877109E-1,6.411026120E-1,2.813032269E-1
1.046162500E1,-1.811214089E-1,2.806923687E-1,2.617555559E-1
1.047162500E1,-6.343830824E-1,-2.751945853E-1,1.261435747E-1
1.048162500E1,-8.323032856E-1,-5.439751148E-1,-1.194240674E-1
1.049162500E1,-7.247910500E-1,-5.439751148E-1,-3.210094273E-1
1.050162500E1,-4.254673123E-1,-4.071413875E-1,-5.103775263E-1
1.051162500E1,-1.065959036E-1,-1.908952445E-1,-4.932733178E-1
1.052162500E1,1.059850380E-1,-2.229656465E-2,-3.723220825E-1
1.053162500E1,2.562577724E-1,1.609628648E-1,-1.646280587E-1
1.054162500E1,2.794706225E-1,2.440404743E-1,4.550942779E-2
1.055162500E1,2.428187430E-1,1.182023361E-1,3.949240744E-1
1.056162500E1,1.560759544E-1,-1.395826042E-1,7.101303339E-1
1.057162500E1,3.145953640E-2,-5.085449219E-1,1.007010579E0
1.058162500E1,2.138026757E-3,-8.530726433E-1,1.083979607E0
1.059162500E1,2.535088919E-2,-1.098640323E0,1.018006206E0
1.060162500E1,4.612028971E-2,-1.264795542E0,8.359684348E-1
1.061162500E1,4.581485875E-3,-1.308777809E0,6.294961572E-1
1.062162500E1,-1.163697392E-1,-1.253799915E0,3.350593448E-1
1.063162500E1,-2.519817352E-1,-1.103527188E0,9.560033679E-2
1.064162500E1,-4.108065665E-1,-8.432988524E-1,-1.206457913E-1
1.065162500E1,-5.207622051E-1,-5.537489057E-1,-2.428187430E-1
1.066162500E1,-5.610793233E-1,-3.362810612E-1,-2.831358314E-1
1.067162500E1,-5.549706817E-1,-1.774562150E-1,-2.550360560E-1
1.068162500E1,-5.012145638E-1,-1.273653060E-1,-1.853974611E-1
1.069162500E1,-3.900371492E-1,-4.917461425E-2,-7.422006875E-2
1.070162500E1,-2.959639728E-1,3.756818548E-2,2.748891478E-3
1.071162500E1,-1.970038861E-1,1.169806048E-1,8.338304609E-2
1.072162500E1,-1.408043355E-1,1.463021189E-1,6.994401664E-2
1.073162500E1,-1.249218509E-1,1.401934624E-1,1.130099874E-2
1.074162500E1,-1.322522312E-1,1.841757298E-1,-7.177661359E-2
1.075162500E1,-1.456912458E-1,2.977965772E-1,-1.108719558E-1
1.076162500E1,-1.823431402E-1,4.639517963E-1,-1.157588735E-1
1.077162500E1,-2.593120933E-1,5.641336441E-1,-1.096502244E-1
1.078162500E1,-3.790415823E-1,7.327322960E-1,-3.634645417E-2
1.079162500E1,-4.841103256E-1,9.367611408E-1,3.573558852E-2
1.080162500E1,-5.610793233E-1,1.050382018E0,5.161807314E-2
1.081162500E1,-6.209440231E-1,1.161559343E0,4.917461425E-2
1.082162500E1,-6.466003656E-1,1.195767760E0,3.573558852E-2
1.083162500E1,-6.294961572E-1,1.211650252E0,7.635809947E-3
1.084162500E1,-5.696313977E-1,1.266628146E0,-1.679878123E-2
1.085162500E1,-4.596757591E-1,1.386357665E0,-7.177661359E-2
1.086162500E1,-3.594939113E-1,1.399796605E0,-1.401934624E-1
1.087162500E1,-2.825249732E-1,1.292284489E0,-1.768453568E-1
1.088162500E1,-2.043342739E-1,1.277623653E0,-1.902843714E-1
1.089162500E1,-1.945604384E-1,1.229976177E0,-1.829539984E-1
1.090162500E1,-2.165515572E-1,1.155450702E0,-1.548542231E-1
1.091162500E1,-2.226602137E-1,1.105359793E0,-1.438586563E-1
1.092162500E1,-2.092211843E-1,1.068707943E0,-1.682932526E-1
1.093162500E1,-2.141081095E-1,1.041829824E0,-2.244928032E-1
1.094162500E1,-2.935205400E-1,8.988875151E-1,-3.112356067E-1
1.095162500E1,-4.902189970E-1,5.054906011E-1,-5.274817348E-1
1.096162500E1,-6.649262905E-1,1.817322671E-1,-7.547234297E-1
1.097162500E1,-8.481857181E-1,-4.306596518E-2,-1.012508392E0
1.098162500E1,-9.508110285E-1,-6.750056148E-2,-1.104138136E0
1.099162500E1,-1.002123713E0,6.811141968E-2,-1.040608168E0
1.100162500E1,-9.850194454E-1,2.623664141E-1,-8.060360551E-1
1.101162500E1,-9.129374027E-1,3.649916947E-1,-5.067123175E-1
1.102162500E1,-6.771436334E-1,3.955349326E-1,-8.521563560E-2
1.103162500E1,-3.888154328E-1,2.733619809E-1,1.921169758E-1
1.104162500E1,-1.130099874E-2,-4.062250629E-2,4.218021333E-1
1.105162500E1,3.014617562E-1,-2.971857190E-1,5.354229808E-1
1.106162500E1,6.239983439E-1,-5.842921734E-1,6.136136651E-1
1.107162500E1,8.194751143E-1,-7.956513762E-1,6.380482912E-1
1.108162500E1,9.049961567E-1,-8.994984031E-1,6.429351568E-1
1.109162500E1,9.587522745E-1,-9.422588944E-1,6.270527244E-1
1.110162500E1,9.819651246E-1,-9.385937452E-1,5.806269646E-1
1.111162500E1,1.030834317E0,-9.239329696E-1,4.951058924E-1
1.112162500E1,1.101694584E0,-9.031635523E-1,4.205803871E-1
1.113162500E1,1.216537237E0,-8.127555847E-1,3.032943606E-1
1.114162500E1,1.288619280E0,-6.136136651E-1,1.127045527E-1
1.115162500E1,1.273958445E0,-4.169152081E-1,-7.422006875E-2
1.116162500E1,1.153007269E0,-1.689041108E-1,-2.904661894E-1
1.117162500E1,1.012508392E0,1.069013402E-2,-4.187478125E-1
1.118162500E1,8.341358304E-1,2.293797284E-1,-4.896081090E-1
1.119162500E1,7.144063711E-1,3.882045746E-1,-4.627300799E-1
1.120162500E1,5.958985686E-1,5.189296007E-1,-3.576613367E-1
1.121162500E1,5.018253922E-1,5.653553605E-1,-2.293797284E-1
1.122162500E1,4.224129915E-1,5.616901517E-1,-1.389717311E-1
1.123162500E1,3.149007857E-1,4.957167804E-1,-5.589412898E-2
1.124162500E1,2.440404743E-1,3.845393658E-1,-1.435532235E-2
1.125162500E1,2.147189677E-1,2.501491308E-1,3.970621154E-3
1.126162500E1,2.269362658E-1,8.521563560E-2,3.970621154E-3
1.127162500E1,2.110537887E-1,-1.053741723E-1,-2.168569900E-2
1.128162500E1,1.524107605E-1,-1.750127524E-1,-3.634645417E-2
1.129162500E1,5.222893879E-2,-2.666424811E-1,-6.444623321E-2
1.130162500E1,-7.605266571E-2,-3.631591201E-1,-1.304196268E-1
1.131162500E1,-1.517999023E-1,-3.704894781E-1,-1.707367003E-1
1.132162500E1,-2.800815105E-1,-3.558287323E-1,-1.890626550E-1
1.133162500E1,-4.291325212E-1,-2.238819450E-1,-1.682932526E-1
1.134162500E1,-5.329795480E-1,-1.017089859E-1,-1.695149690E-1
1.135162500E1,-6.441569328E-1,1.414151937E-1,-2.037234008E-1
1.136162500E1,-7.040216327E-1,4.187478125E-1,-2.806923687E-1
1.137162500E1,-7.125737667E-1,7.131846547E-1,-4.260781705E-1
1.138162500E1,-6.820304990E-1,8.390227556E-1,-4.798342884E-1
1.139162500E1,-5.830704570E-1,8.671225309E-1,-4.175260663E-1
1.140162500E1,-4.523453712E-1,7.034108043E-1,-2.061668634E-1
1.141162500E1,-3.643808365E-1,5.103775263E-1,7.971785218E-2
1.142162500E1,-2.861901522E-1,3.112356067E-1,4.584540129E-1
1.143162500E1,-2.287688553E-1,2.440404743E-1,6.795870662E-1
1.144162500E1,-1.530216336E-1,3.442223072E-1,8.213077188E-1
1.145162500E1,-1.334739476E-1,3.955349326E-1,7.944296598E-1
1.146162500E1,-1.566868126E-1,3.063486814E-1,5.378664136E-1
1.147162500E1,-2.153298408E-1,4.856374860E-2,6.750056148E-2
1.148162500E1,-2.519817352E-1,-1.786779463E-1,-3.564395905E-1
1.149162500E1,-2.507599890E-1,-3.436114490E-1,-8.316923976E-1
1.150162500E1,-1.908952445E-1,-2.837466896E-1,-1.088255644E0
1.151162500E1,-7.605266571E-2,-4.306596518E-2,-1.218980670E0
1.152162500E1,2.412915789E-2,1.572976857E-1,-1.183550477E0
1.153162500E1,1.634063274E-1,2.953531146E-1,-9.929606915E-1
1.154162500E1,2.990183234E-1,2.367101014E-1,-7.070759535E-1
1.155162500E1,3.894262910E-1,7.422006875E-2,-4.700604379E-1
1.156162500E1,4.834994674E-1,-1.847866029E-1,-1.609628648E-1
1.157162500E1,5.201513767E-1,-3.448331654E-1,4.550942779E-2
1.158162500E1,5.360338688E-1,-4.169152081E-1,1.689041108E-1
1.159162500E1,5.115992427E-1,-4.572322965E-1,1.786779463E-1
1.160162500E1,4.065304995E-1,-5.549706817E-1,1.151480079E-1
1.161162500E1,2.208276242E-1,-6.624828577E-1,-6.933315098E-2
1.162162500E1,7.177661359E-2,-7.223476171E-1,-2.758054435E-1
1.163162500E1,-8.826996386E-2,-7.260127664E-1,-5.250383019E-1
1.164162500E1,-2.397644222E-1,-7.052434087E-1,-6.863065958E-1
1.165162500E1,-4.462367296E-1,-5.855138898E-1,-8.329141140E-1
1.166162500E1,-5.867356062E-1,-4.315759540E-1,-8.964440823E-1
1.167162500E1,-6.966912746E-1,-2.959639728E-1,-8.744529486E-1
1.168162500E1,-7.113520503E-1,-2.898553312E-1,-7.559451461E-1
1.169162500E1,-6.490437984E-1,-2.922987938E-1,-6.374374032E-1
1.170162500E1,-5.048797131E-1,-1.725693047E-1,-4.700604379E-1
1.171162500E1,-3.851502538E-1,-2.718348242E-2,-3.246746361E-1
1.172162500E1,-2.690859437E-1,9.743293375E-2,-1.707367003E-1
1.173162500E1,-2.202167511E-1,9.987638891E-2,-7.299833745E-2
1.174162500E1,-1.945604384E-1,-6.414080039E-3,-8.246674202E-3
1.175162500E1,-1.823431402E-1,-2.018908113E-1,-4.489856213E-2
1.176162500E1,-1.725693047E-1,-3.497200906E-1,-1.401934624E-1
1.177162500E1,-1.603520066E-1,-4.743365049E-1,-2.904661894E-1
1.178162500E1,-1.383608729E-1,-4.682278633E-1,-4.004218578E-1
1.179162500E1,-1.078176349E-1,-3.130682111E-1,-5.164861679E-1
1.180162500E1,-1.053741723E-1,-6.139190868E-2,-5.971203446E-1
1.181162500E1,-1.383608729E-1,2.990183234E-1,-6.594285369E-1
1.182162500E1,-2.153298408E-1,5.629118681E-1,-6.423243284E-1
1.183162500E1,-2.654207349E-1,6.716458201E-1,-5.751292109E-1
1.184162500E1,-2.568686306E-1,6.838631034E-1,-4.773908257E-1
1.185162500E1,-1.994473487E-1,6.203331947E-1,-4.431824088E-1
1.186162500E1,-1.139262840E-1,4.932733178E-1,-4.932733178E-1
1.187162500E1,-5.528326333E-2,3.576613367E-1,-5.971203446E-1
1.188162500E1,7.024944760E-3,1.609628648E-1,-7.864884138E-1
1.189162500E1,4.367683083E-2,5.955931544E-2,-1.008843184E0
1.190162500E1,1.679878123E-2,6.322450191E-2,-1.159115911E0
1.191162500E1,-6.872228533E-2,1.731801629E-1,-1.233641386E0
1.192162500E1,-1.481347084E-1,3.112356067E-1,-1.178663611E0
1.193162500E1,-1.957821548E-1,4.468475878E-1,-9.673043489E-1
1.194162500E1,-1.530216336E-1,4.346303046E-1,-7.449495792E-1
1.195162500E1,-8.582650125E-2,8.032871783E-2,-6.032289863E-1
1.196162500E1,-2.840521187E-2,-4.242455959E-1,-6.667588949E-1
1.197162500E1,2.046396956E-2,-6.710349321E-1,-8.475748897E-1
1.198162500E1,6.566796452E-2,-6.417134404E-1,-1.131016135E0
1.199162500E1,8.643736690E-2,-3.888154328E-1,-1.298393130E0
1.200162500E1,1.096502244E-1,1.304196268E-1,-1.336266756E0
1.201162500E1,9.376774728E-2,5.433642268E-1,-1.247080445E0
1.202162500E1,4.489856213E-2,8.817833066E-1,-9.966259003E-1
1.203162500E1,1.313359290E-2,9.770781994E-1,-6.081159115E-1
1.204162500E1,2.657261863E-2,8.866702318E-1,-2.550360560E-1
1.205162500E1,1.572976857E-1,5.409207344E-1,2.348775119E-1
1.206162500E1,3.393353820E-1,1.438586563E-1,5.745183229E-1
1.207162500E1,6.288852692E-1,-4.364628792E-1,8.713986278E-1
1.208162500E1,8.830050230E-1,-8.481857181E-1,9.544762373E-1
1.209162500E1,1.162781119E0,-1.178052783E0,8.481857181E-1
1.210162500E1,1.330158114E0,-1.253799915E0,5.745183229E-1
1.211162500E1,1.374140263E0,-1.147509456E0,3.375027776E-1
1.212162500E1,1.419344306E0,-8.323032856E-1,1.517999023E-1
1.213162500E1,1.495091558E0,-5.891790986E-1,1.078176349E-1
1.214162500E1,1.580612659E0,-4.071413875E-1,2.006690800E-1
1.215162500E1,1.609934092E0,-2.751945853E-1,3.619373739E-1
1.216162500E1,1.561064959E0,-9.682206810E-2,5.879573226E-1
1.217162500E1,1.413235664E0,4.612028971E-2,8.017600179E-1
1.218162500E1,1.200654745E0,1.157588735E-1,8.762855530E-1
1.219162500E1,8.891136646E-1,2.147189677E-1,8.103121519E-1
1.220162500E1,6.679806113E-1,3.320049942E-1,6.575959325E-1
1.221162500E1,4.199695289E-1,4.541779757E-1,4.413498044E-1
1.222162500E1,2.892444730E-1,5.482511520E-1,3.045161068E-1
1.223162500E1,1.597411335E-1,5.592467189E-1,2.385426909E-1
1.224162500E1,7.422006875E-2,4.700604379E-1,3.032943606E-1
1.225162500E1,4.123337194E-2,3.051269650E-1,4.083631039E-1
1.226162500E1,1.924224012E-2,1.069013402E-2,5.146535635E-1
1.227162500E1,-3.054323897E-4,-3.265072107E-1,5.195404887E-1
1.228162500E1,-1.985310577E-2,-8.139773011E-1,4.352411628E-1
1.229162500E1,-2.351829410E-2,-1.116966248E0,3.240637779E-1
1.230162500E1,3.359756200E-3,-1.316108227E0,1.627954692E-1
1.231162500E1,1.435532235E-2,-1.345429659E0,-1.069013402E-2
1.232162500E1,-2.229656465E-2,-1.220813274E0,-1.609628648E-1
1.233162500E1,-1.298087686E-1,-8.677334189E-1,-3.625482321E-1
1.234162500E1,-2.507599890E-1,-4.926624298E-1,-5.299251676E-1
1.235162500E1,-4.059196413E-1,3.390299529E-2,-7.254019380E-1
1.236162500E1,-5.513054729E-1,4.529562294E-1,-8.878919482E-1
1.237162500E1,-6.282744408E-1,6.398808360E-1,-9.587522745E-1
1.238162500E1,-6.478220820E-1,7.217367291E-1,-9.685261250E-1
1.239162500E1,-6.087267399E-1,7.547234297E-1,-9.453132749E-1
1.240162500E1,-5.305360556E-1,8.475748897E-1,-9.123265743E-1
1.241162500E1,-4.621191919E-1,1.012508392E0,-8.781180978E-1
1.242162500E1,-3.888154328E-1,1.300836563E0,-7.767145634E-1
1.243162500E1,-3.313941360E-1,1.651472926E0,-5.580250025E-1
1.244162500E1,-3.301724195E-1,1.834732413E0,-3.173442483E-1
1.245162500E1,-4.144717455E-1,1.688124776E0,-5.467239767E-2
1.246162500E1,-5.451968312E-1,1.229976177E0,1.863137633E-2
1.247162500E1,-6.808087826E-1,3.869828284E-1,-4.245510325E-2
1.248162500E1,-6.600393653E-1,-2.287688553E-1,-6.811141968E-2
1.249162500E1,-4.401280880E-1,-7.003564835E-1,1.740964688E-2
1.250162500E1,-8.460476995E-2,-7.394518256E-1,1.933387071E-1
1.251162500E1,2.012799382E-1,-5.134318471E-1,3.839285076E-1
1.252162500E1,3.869828284E-1,-1.322522312E-1,6.075050235E-1
1.253162500E1,3.332267404E-1,1.389717311E-1,7.528908253E-1
1.254162500E1,7.544180006E-2,3.869828284E-1,9.202677608E-1
1.255162500E1,-1.737910360E-1,4.639517963E-1,1.063210130E0
1.256162500E1,-3.949240744E-1,4.053087831E-1,1.176831007E0
1.257162500E1,-4.706713259E-1,1.939495653E-1,1.120631456E0
1.258162500E1,-4.364628792E-1,-1.130099874E-2,9.459241033E-1
1.259162500E1,-3.436114490E-1,-2.996291816E-1,6.136136651E-1
1.260162500E1,-2.678641975E-1,-5.085449219E-1,3.460549116E-1
1.261162500E1,-1.957821548E-1,-6.734784245E-1,1.249218509E-1
1.262162500E1,-1.615737379E-1,-7.137954831E-1,5.772672221E-2
1.263162500E1,-1.615737379E-1,-6.832522750E-1,7.727439702E-2
1.264162500E1,-1.957821548E-1,-5.842921734E-1,1.554650813E-1
1.265162500E1,-2.360992432E-1,-4.999928176E-1,2.348775119E-1
1.266162500E1,-2.800815105E-1,-3.863719702E-1,3.265072107E-1
1.267162500E1,-3.411679864E-1,-3.142899275E-1,3.533852696E-1
1.268162500E1,-4.425715208E-1,-2.971857190E-1,2.947422564E-1
1.269162500E1,-4.767799675E-1,-3.130682111E-1,2.067777216E-1
1.270162500E1,-4.144717455E-1,-3.362810612E-1,1.298087686E-1
1.271162500E1,-2.935205400E-1,-4.364628792E-1,9.071341902E-2
1.272162500E1,-1.554650813E-1,-5.977311730E-1,1.114828214E-1
1.273162500E1,3.756818548E-2,-8.542944193E-1,1.237001196E-1
1.274162500E1,1.609628648E-1,-1.098640323E0,6.872228533E-2
1.275162500E1,2.929096520E-1,-1.371086001E0,-4.245510325E-2
1.276162500E1,4.004218578E-1,-1.487150311E0,-1.059850380E-1
1.277162500E1,5.482511520E-1,-1.505476236E0,-1.316413581E-1
1.278162500E1,6.801979542E-1,-1.456607103E0,-1.218675226E-1
1.279162500E1,7.131846547E-1,-1.432172418E0,-1.487455666E-1
1.280162500E1,6.997455955E-1,-1.302669168E0,-2.660316229E-1
1.281162500E1,7.021890879E-1,-9.837977290E-1,-3.845393658E-1
1.282162500E1,6.801979542E-1,-4.352411628E-1,-5.018253922E-1
1.283162500E1,6.264418364E-1,-4.306596518E-2,-5.506945848E-1
1.284162500E1,5.506945848E-1,2.428187430E-1,-5.714640021E-1
1.285162500E1,4.883863926E-1,3.014617562E-1,-5.372555852E-1
1.286162500E1,4.505127668E-1,2.806923687E-1,-4.517345130E-1
1.287162500E1,4.211912751E-1,3.405571282E-1,-2.721402645E-1
1.288162500E1,4.040870368E-1,4.456258714E-1,-9.010255337E-2
1.289162500E1,3.967566788E-1,5.958985686E-1,8.704823256E-2
1.290162500E1,3.515526950E-1,6.398808360E-1,1.065959036E-1
1.291162500E1,2.098320574E-1,4.896081090E-1,-5.955931544E-2
1.292162500E1,-1.496618707E-2,2.049451321E-1,-3.271180987E-1
1.293162500E1,-2.104429156E-1,1.313359290E-2,-5.091558099E-1
1.294162500E1,-4.389063418E-1,-9.560033679E-2,-6.484329700E-1
1.295162500E1,-5.965094566E-1,-7.971785218E-2,-6.545416117E-1
1.296162500E1,-7.480039001E-1,1.731801629E-1,-5.629118681E-1
1.297162500E1,-8.323032856E-1,5.323686600E-1,-4.578431547E-1
1.298162500E1,-9.679152369E-1,8.084795475E-1,-3.295615613E-1
1.299162500E1,-1.096196890E0,7.547234297E-1,-1.780670881E-1
1.300162500E1,-1.148731232E0,4.859429300E-1,-5.955931544E-2
1.301162500E1,-1.109635830E0,-6.383536756E-2,9.193515033E-2
1.302162500E1,-9.556979537E-1,-5.940660238E-1,1.884517819E-1
1.303162500E1,-5.732966065E-1,-1.168278933E0,2.849684060E-1
1.304162500E1,-1.640172005E-1,-1.410181284E0,3.741546869E-1
1.305162500E1,3.051269650E-1,-1.383303285E0,4.499019086E-1
1.306162500E1,4.822777510E-1,-9.630283117E-1,3.582721949E-1
1.307162500E1,3.197877109E-1,-5.488619804E-1,1.737910360E-1
1.308162500E1,-7.116574794E-2,7.422006875E-2,-1.243109852E-1
1.309162500E1,-3.827067912E-1,6.130027771E-1,-3.271180987E-1
1.310162500E1,-6.905826330E-1,1.006399751E0,-4.224129915E-1
1.311162500E1,-8.237511516E-1,9.966259003E-1,-3.515526950E-1
1.312162500E1,-7.870992422E-1,6.594285369E-1,-1.145371497E-1
1.313162500E1,-5.280926228E-1,1.072067693E-1,2.861901522E-1
1.314162500E1,-2.458730787E-1,-5.342012644E-1,6.795870662E-1
1.315162500E1,1.340848207E-1,-1.329547167E0,1.186604857E0
1.316162500E1,4.676169753E-1,-1.687513947E0,1.509141445E0
1.317162500E1,8.585704565E-1,-1.633757830E0,1.672853231E0
1.318162500E1,1.005177975E0,-1.561675787E0,1.647196889E0
1.319162500E1,9.269872904E-1,-1.461493969E0,1.463937402E0
1.320162500E1,7.290670872E-1,-1.187826514E0,1.228143692E0
1.321162500E1,5.543597937E-1,-9.190460443E-1,1.069318771E0
1.322162500E1,3.002400398E-1,-6.575959325E-1,9.312633276E-1
1.323162500E1,8.643736690E-2,-5.280926228E-1,8.738420606E-1
1.324162500E1,-1.273653060E-1,-4.389063418E-1,8.200859427E-1
1.325162500E1,-2.018908113E-1,-3.558287323E-1,7.724385262E-1
1.326162500E1,-1.615737379E-1,-2.079994529E-1,6.991347671E-1
1.327162500E1,3.359756200E-3,-2.718348242E-2,6.123919487E-1
1.328162500E1,1.426369250E-1,5.711585656E-2,5.232056975E-1
1.329162500E1,2.342666388E-1,-7.635809947E-3,4.071413875E-1
1.330162500E1,2.623664141E-1,-1.408043355E-1,3.375027776E-1
1.331162500E1,2.868010104E-1,-2.715294063E-1,2.727511227E-1
1.332162500E1,3.051269650E-1,-2.666424811E-1,1.933387071E-1
1.333162500E1,3.210094273E-1,-5.406153202E-2,2.962694131E-2
1.334162500E1,2.550360560E-1,3.307832778E-1,-1.890626550E-1
1.335162500E1,1.255327165E-1,6.239983439E-1,-3.808741868E-1
1.336162500E1,-1.371391416E-1,7.351757884E-1,-6.325504780E-1
1.337162500E1,-3.460549116E-1,7.730493546E-1,-8.292489648E-1
1.338162500E1,-4.889972508E-1,8.084795475E-1,-1.028390884E0
1.339162500E1,-5.158752799E-1,7.302888632E-1,-1.085812092E0
1.340162500E1,-4.572322965E-1,5.800161362E-1,-1.011286616E0
1.341162500E1,-3.191768527E-1,4.981602132E-1,-8.255837560E-1
1.342162500E1,-1.970038861E-1,5.225948095E-1,-6.606502533E-1
1.343162500E1,-9.804379940E-2,6.178897023E-1,-4.505127668E-1
1.344162500E1,-8.949168772E-2,6.936369538E-1,-2.464839369E-1
1.345162500E1,-1.053741723E-1,8.500183225E-1,4.306596518E-2
1.346162500E1,-2.107483521E-2,1.182328820E0,2.886336148E-1
1.347162500E1,-2.596175298E-2,1.281288862E0,4.022544622E-1
1.348162500E1,-1.701258421E-1,1.066264510E0,4.108065665E-1
1.349162500E1,-3.069595397E-1,6.997455955E-1,2.996291816E-1
1.350162500E1,-4.108065665E-1,9.132428467E-2,5.894844979E-2
1.351162500E1,-3.888154328E-1,-3.680460155E-1,-1.072067693E-1
1.352162500E1,-2.214384824E-1,-7.040216327E-1,-1.805105358E-1
1.353162500E1,3.390299529E-2,-7.626646757E-1,-1.316413581E-1
1.354162500E1,2.477056682E-1,-6.466003656E-1,-4.001164436E-2
1.355162500E1,4.773908257E-1,-3.607156575E-1,1.273653060E-1
1.356162500E1,5.763509274E-1,-1.090393662E-1,2.532034516E-1
1.357162500E1,5.506945848E-1,1.682932526E-1,3.362810612E-1
1.358162500E1,4.370737374E-1,3.368919194E-1,3.521635532E-1
1.359162500E1,2.232710719E-1,4.834994674E-1,3.289506733E-1
1.360162500E1,-2.840521187E-2,5.091558099E-1,2.703076601E-1
1.361162500E1,-1.982256174E-1,3.674351573E-1,2.348775119E-1
1.362162500E1,-3.338375986E-1,3.390299529E-2,2.263254076E-1
1.363162500E1,-3.814850450E-1,-3.142899275E-1,2.409861535E-1
1.364162500E1,-3.778198659E-1,-7.553343177E-1,2.397644222E-1
1.365162500E1,-3.472766280E-1,-1.027779937E0,2.153298408E-1
1.366162500E1,-3.057378232E-1,-1.200043917E0,1.737910360E-1
1.367162500E1,-2.617555559E-1,-1.165835381E0,1.114828214E-1
1.368162500E1,-2.189950198E-1,-9.899063706E-1,7.116574794E-2
1.369162500E1,-1.689041108E-1,-6.881392002E-1,4.673115537E-2
1.370162500E1,-1.285870373E-1,-4.474584460E-1,6.017018110E-2
1.371162500E1,-7.116574794E-2,-1.725693047E-1,9.071341902E-2
1.372162500E1,-3.573558852E-2,9.162971983E-4,9.682206810E-2
1.373162500E1,-1.374445762E-2,1.389717311E-1,3.207040206E-2
1.374162500E1,-2.840521187E-2,2.550360560E-1,-1.096502244E-1
1.375162500E1,-8.949168772E-2,3.381136656E-1,-2.696968019E-1
1.376162500E1,-1.823431402E-1,4.456258714E-1,-4.688387215E-1
1.377162500E1,-2.324340492E-1,5.115992427E-1,-5.897899270E-1
1.378162500E1,-2.519817352E-1,5.103775263E-1,-6.533198953E-1
1.379162500E1,-2.348775119E-1,4.468475878E-1,-6.215549111E-1
1.380162500E1,-1.957821548E-1,2.916879356E-1,-4.627300799E-1
1.381162500E1,-1.823431402E-1,4.856374860E-2,-2.513708472E-1
1.382162500E1,-1.884517819E-1,-1.444695145E-1,-1.096502244E-1
1.383162500E1,-1.884517819E-1,-2.690859437E-1,1.618791744E-2
1.384162500E1,-1.517999023E-1,-2.886336148E-1,7.483093441E-2
1.385162500E1,-6.994401664E-2,-2.593120933E-1,8.826996386E-2
1.386162500E1,1.313359290E-2,-2.312123179E-1,7.605266571E-2
1.387162500E1,1.377500147E-1,-1.652389169E-1,7.849612087E-2
1.388162500E1,1.866191924E-1,-4.795288667E-2,9.315688163E-2
1.389162500E1,1.133154184E-1,2.901607752E-2,1.127045527E-1
1.390162500E1,-6.261363626E-2,9.498947114E-2,1.542433500E-1
1.391162500E1,-2.116646469E-1,1.426369250E-1,1.811214089E-1
1.392162500E1,-3.509418070E-1,1.988364905E-1,2.202167511E-1
1.393162500E1,-4.071413875E-1,2.293797284E-1,2.715294063E-1
1.394162500E1,-4.303542376E-1,1.939495653E-1,3.167333901E-1
1.395162500E1,-4.266890585E-1,1.096502244E-1,2.959639728E-1
1.396162500E1,-4.266890585E-1,3.390299529E-2,2.532034516E-1
1.397162500E1,-4.327977002E-1,-6.139190868E-2,2.226602137E-1
1.398162500E1,-4.437932670E-1,-1.383608729E-1,2.373209596E-1
1.399162500E1,-4.547888339E-1,-2.397644222E-1,2.739728391E-1
1.400162500E1,-4.462367296E-1,-2.764163017E-1,2.996291816E-1
1.401162500E1,-4.046979249E-1,-1.725693047E-1,3.521635532E-1
1.402162500E1,-3.289506733E-1,1.072067693E-1,4.022544622E-1
1.403162500E1,-2.751945853E-1,4.163043499E-1,3.753764033E-1
1.404162500E1,-2.813032269E-1,7.449495792E-1,2.593120933E-1
1.405162500E1,-3.448331654E-1,8.768963814E-1,1.554650813E-1
1.406162500E1,-4.120282829E-1,7.999274135E-1,2.962694131E-2
1.407162500E1,-3.729329407E-1,6.252201200E-1,-6.444623321E-2
1.408162500E1,-1.640172005E-1,3.601047993E-1,-9.987638891E-2
1.409162500E1,1.719584316E-1,1.414151937E-1,3.054323897E-4
1.410162500E1,4.663952589E-1,1.035415828E-1,1.701258421E-1
1.411162500E1,7.779362798E-1,2.232710719E-1,4.450149834E-1
1.412162500E1,9.709695578E-1,5.629118681E-1,6.233875155E-1
1.413162500E1,1.107803226E0,1.060155869E0,7.528908253E-1
1.414162500E1,1.109025002E0,1.408348799E0,7.895427346E-1
1.415162500E1,9.685261250E-1,1.547625899E0,7.394518256E-1
1.416162500E1,7.730493546E-1,1.446222425E0,4.902189970E-1
1.417162500E1,5.958985686E-1,1.244637012E0,2.532034516E-1
1.418162500E1,4.321868420E-1,9.294307828E-1,1.957821548E-1
1.419162500E1,4.016436040E-1,8.035926223E-1,2.788597643E-1
1.420162500E1,4.615083337E-1,7.925970554E-1,4.034761786E-1
1.421162500E1,5.824595690E-1,9.892954826E-1,5.024362803E-1
1.422162500E1,8.072578311E-1,1.430339932E0,6.050615907E-1
1.423162500E1,1.055268884E0,1.955683589E0,6.258309484E-1
1.424162500E1,1.243415236E0,2.154825449E0,5.928442478E-1
1.425162500E1,1.464548349E0,2.171929836E0,5.684096813E-1
1.426162500E1,1.647807717E0,2.009439707E0,5.830704570E-1
1.427162500E1,1.873827696E0,1.672242284E0,6.148353815E-1
1.428162500E1,2.026543856E0,1.390022755E0,6.404917240E-1
1.429162500E1,2.102291107E0,9.502001405E-1,6.563742161E-1
1.430162500E1,2.102291107E0,2.134972364E-1,6.136136651E-1
1.431162500E1,2.081521749E0,-5.427533388E-1,4.682278633E-1
1.432162500E1,2.081521749E0,-1.593440771E0,2.409861535E-1
1.433162500E1,2.196364403E0,-2.325256824E0,7.116574794E-2
1.434162500E1,2.383288860E0,-2.980103731E0,-1.145371497E-1
1.435162500E1,2.407723427E0,-3.390604973E0,-3.112356067E-1
1.436162500E1,2.162155867E0,-4.088212490E0,-7.290670872E-1
1.437162500E1,1.622151375E0,-4.917767048E0,-1.200654745E0
1.438162500E1,1.146898627E0,-4.832245827E0,-1.414457440E0
1.439162500E1,7.376192212E-1,-3.881740332E0,-1.454774499E0
1.440162500E1,4.395172000E-1,-2.293491840E0,-1.441335440E0
1.441162500E1,-3.054323897E-4,-4.327977002E-1,-1.451109290E0
1.442162500E1,-3.814850450E-1,3.002400398E-1,-1.431561589E0
1.443162500E1,-8.469640017E-1,4.260781705E-1,-9.770781994E-1
1.444162500E1,-1.160948515E0,7.177661359E-2,7.238747925E-2
1.445162500E1,-1.295338750E0,-2.715294063E-1,9.728021622E-1
1.446162500E1,-1.352760077E0,-5.842921734E-1,1.417511702E0
1.447162500E1,-1.350316644E0,-1.130405307E0,1.467602611E0
1.448162500E1,-1.253799915E0,-2.160323381E0,1.399185777E0
1.449162500E1,-1.061988473E0,-2.921460867E0,1.406516194E0
1.450162500E1,-7.944296598E-1,-3.283092737E0,1.708283305E0
1.451162500E1,-6.710349321E-1,-2.046702385E0,2.122449636E0
1.452162500E1,-7.101303339E-1,-1.021671295E0,2.321591616E0
1.453162500E1,-8.542944193E-1,-2.287688553E-1,2.275165796E0
1.454162500E1,-1.091309905E0,-2.373209596E-1,1.955072761E0
1.455162500E1,-1.449276686E0,-1.094975114E0,1.344208002E0
1.456162500E1,-1.619097114E0,-1.634979606E0,9.508110285E-1
1.457162500E1,-1.566562772E0,-1.548236728E0,8.115338683E-1
1.458162500E1,-1.353981733E0,-1.041218996E0,6.038398147E-1
1.459162500E1,-1.152396441E0,-6.087267399E-1,2.678641975E-1
1.460162500E1,-9.850194454E-1,-6.404917240E-1,-9.254601598E-2
1.461162500E1,-1.009454012E0,-1.212261200E0,-5.467239767E-2
1.462162500E1,-1.115744472E0,-1.757152557E0,2.141081095E-1
1.463162500E1,-1.445611477E0,-2.099236727E0,4.706713259E-1
1.464162500E1,-1.896429658E0,-2.377791166E0,5.268708467E-1
1.465162500E1,-2.547611475E0,-2.696662664E0,4.401280880E-1
1.466162500E1,-2.911686897E0,-2.744310141E0,4.767799675E-1
1.467162500E1,-2.868926525E0,-2.377791166E0,6.918043494E-1
1.468162500E1,-2.518290043E0,-2.116341114E0,8.237511516E-1
1.469162500E1,-1.950185776E0,-1.995389819E0,9.618065953E-1
1.470162500E1,-1.437059402E0,-1.736383080E0,1.063210130E0
1.471162500E1,-1.181717873E0,-1.606879830E0,1.024114847E0
1.472162500E1,-9.092722535E-1,-1.763261199E0,1.020449638E0
1.473162500E1,-6.441569328E-1,-1.768148065E0,1.061988473E0
1.474162500E1,-3.888154328E-1,-1.573893070E0,8.885028362E-1
1.475162500E1,-1.908952445E-1,-1.539684653E0,8.408553600E-1
1.476162500E1,2.049451321E-1,-1.257465124E0,9.801325202E-1
1.477162500E1,6.814196706E-1,-9.715804458E-1,1.154839873E0
1.478162500E1,1.087033868E0,-6.856957078E-1,1.241582632E0
1.479162500E1,1.501200199E0,-3.753764033E-1,1.263573766E0
1.480162500E1,1.657581568E0,-2.409861535E-1,1.231808782E0
1.481162500E1,1.673464060E0,-6.139190868E-2,1.259908557E0
1.482162500E1,1.551291108E0,3.405571282E-1,1.311221242E0
1.483162500E1,1.275180221E0,9.990693331E-1,1.422398686E0
1.484162500E1,9.123265743E-1,1.705229044E0,1.532354355E0
1.485162500E1,6.276635528E-1,2.159712315E0,1.544571638E0
1.486162500E1,4.004218578E-1,2.576322317E0,1.467602611E0
1.487162500E1,2.550360560E-1,2.923293352E0,1.346651435E0
1.488162500E1,-6.017018110E-2,2.930623770E0,1.099861979E0
1.489162500E1,-4.486801922E-1,2.421162605E0,7.956513762E-1
1.490162500E1,-9.556979537E-1,1.262962937E0,3.692677617E-1
1.491162500E1,-1.397964001E0,9.254601598E-2,-4.367683083E-2
1.492162500E1,-1.622762322E0,-6.466003656E-1,-2.745837271E-1
1.493162500E1,-1.708283305E0,-1.198822141E0,-4.761691093E-1
1.494162500E1,-1.571449637E0,-1.360090375E0,-6.203331947E-1
1.495162500E1,-1.159726739E0,-1.164613724E0,-6.997455955E-1
1.496162500E1,-7.394518256E-1,-6.893609166E-1,-5.494728684E-1
1.497162500E1,-1.823431402E-1,-4.795288667E-2,-1.572976857E-1
1.498162500E1,3.344484568E-1,1.560759544E-1,1.053741723E-1
1.499162500E1,7.217367291E-1,-3.084867075E-2,1.371391416E-1
1.500162500E1,1.105359793E0,-4.499019086E-1,-6.322450191E-2
1.501162500E1,1.269071579E0,-5.708531141E-1,-4.395172000E-1
1.502162500E1,1.144455194E0,-2.617555559E-1,-1.013730049E0
1.503162500E1,5.971203446E-1,5.589412898E-2,-1.499978423E0
1.504162500E1,-6.099484563E-1,4.114174247E-1,-1.997222424E0
1.505162500E1,-2.010050535E0,9.330959320E-1,-2.261116028E0
1.506162500E1,-2.900691509E0,1.322827697E0,-2.225685835E0
1.507162500E1,-3.247662544E0,1.580612659E0,-1.895818830E0
1.508162500E1,-2.881143808E0,1.404683590E0,-1.452331066E0
1.509162500E1,-1.792582750E0,7.070759535E-1,-7.877101302E-1
1.510162500E1,-6.209440231E-1,-5.772672221E-2,-3.320049942E-1
1.511162500E1,7.620537877E-1,-1.311221242E0,1.603520066E-1
1.512162500E1,1.733328819E0,-2.426660299E0,4.645626545E-1
1.513162500E1,2.146273375E0,-2.973995209E0,5.647444725E-1
1.514162500E1,2.180481911E0,-2.945895433E0,4.486801922E-1
1.515162500E1,1.818849921E0,-2.436434269E0,2.116646469E-1
1.516162500E1,1.120020628E0,-1.515250087E0,-1.304196268E-1
1.517162500E1,6.093376279E-1,-7.663298845E-1,-3.820959330E-1
1.518162500E1,2.574795187E-1,-2.229656465E-2,-5.677987933E-1
1.519162500E1,1.976147592E-1,4.456258714E-1,-6.081159115E-1
1.520162500E1,2.929096520E-1,6.215549111E-1,-5.800161362E-1
1.521162500E1,4.920515716E-1,6.081159115E-1,-5.140427351E-1
1.522162500E1,6.459894776E-1,4.688387215E-1,-4.786125422E-1
1.523162500E1,8.048143387E-1,2.721402645E-1,-5.018253922E-1
1.524162500E1,9.086613655E-1,1.805105358E-1,-5.751292109E-1
1.525162500E1,9.856303334E-1,1.805105358E-1,-6.997455955E-1
1.526162500E1,9.416480660E-1,2.232710719E-1,-8.536835313E-1
1.527162500E1,7.974839807E-1,3.185659945E-1,-9.477567077E-1
1.528162500E1,5.482511520E-1,4.993819594E-1,-1.006399751E0
1.529162500E1,3.173442483E-1,6.484329700E-1,-9.954041839E-1
1.530162500E1,2.046396956E-2,8.145881891E-1,-8.964440823E-1
1.531162500E1,-1.505781710E-1,9.367611408E-1,-8.158099055E-1
1.532162500E1,-1.786779463E-1,1.128572702E0,-7.425061464E-1
1.533162500E1,-7.483093441E-2,1.339931846E0,-6.911935210E-1
1.534162500E1,-1.527161920E-3,1.403461814E0,-6.447677612E-1
1.535162500E1,-1.863137633E-2,1.377805471E0,-6.130027771E-1
1.536162500E1,-1.029307172E-1,1.300836563E0,-6.264418364E-1
1.537162500E1,-4.144717455E-1,9.355394244E-1,-7.315105796E-1
1.538162500E1,-7.626646757E-1,4.957167804E-1,-8.964440823E-1
1.539162500E1,-1.082757831E0,7.910698652E-2,-1.058934093E0
1.540162500E1,-1.180496216E0,-1.701258421E-1,-1.126129270E0
1.541162500E1,-1.046105981E0,-1.310304999E-1,-1.051603675E0
1.542162500E1,-6.294961572E-1,1.939495653E-1,-8.097012639E-1
1.543162500E1,-2.739728391E-1,5.091558099E-1,-5.531380773E-1
1.544162500E1,-8.582650125E-2,7.363975048E-1,-2.696968019E-1
1.545162500E1,-1.872300506E-1,7.583886385E-1,-8.643736690E-2
1.546162500E1,-4.987711012E-1,5.482511520E-1,3.573558852E-2
1.547162500E1,-8.555161357E-1,9.865466505E-2,6.414080039E-3
1.548162500E1,-1.061988473E0,-3.167333901E-1,-7.299833745E-2
1.549162500E1,-1.141400814E0,-7.675516009E-1,-9.621120244E-2
1.550162500E1,-1.060766697E0,-9.642500281E-1,-8.765909821E-2
1.551162500E1,-8.420770764E-1,-8.652899861E-1,-2.046396956E-2
1.552162500E1,-6.710349321E-1,-5.451968312E-1,9.071341902E-2
1.553162500E1,-5.708531141E-1,8.246674202E-3,2.568686306E-1
1.554162500E1,-6.502655745E-1,5.006036758E-1,3.643808365E-1
1.555162500E1,-8.164207935E-1,6.520981789E-1,3.521635532E-1
1.556162500E1,-1.064431906E0,4.859429300E-1,1.530216336E-1
1.557162500E1,-1.211039424E0,1.976147592E-1,-1.963930279E-1
1.558162500E1,-1.655748963E0,3.625482321E-1,-8.097012639E-1
1.559162500E1,-1.678961873E0,5.201513767E-1,-1.273958445E0
1.560162500E1,-1.605658054E0,6.948586702E-1,-1.844506145E0
1.561162500E1,-1.382081509E0,7.987056971E-1,-1.964235663E0
1.562162500E1,-1.213482857E0,8.622356653E-1,-1.817628145E0
1.563162500E1,-1.052214622E0,7.816014886E-1,-1.369253397E0
1.564162500E1,-8.604030609E-1,5.225948095E-1,-8.133664727E-1
1.565162500E1,-4.865537882E-1,1.133154184E-1,-9.254601598E-2
1.566162500E1,-1.310304999E-1,-3.216203153E-1,4.046979249E-1
1.567162500E1,3.268126398E-2,-5.451968312E-1,5.647444725E-1
1.568162500E1,1.133154184E-1,-6.612611413E-1,5.342012644E-1
1.569162500E1,1.010981202E-1,-6.698132157E-1,4.303542376E-1
1.570162500E1,-1.200349256E-1,-5.366446972E-1,2.458730787E-1
1.571162500E1,-3.106247485E-1,-3.692677617E-1,1.188132018E-1
1.572162500E1,-5.317577720E-1,-2.202167511E-1,1.985310577E-2
1.573162500E1,-7.040216327E-1,-1.139262840E-1,-2.168569900E-2
1.574162500E1,-7.602212429E-1,-5.894844979E-2,2.748891478E-3
1.575162500E1,-7.137954831E-1,-3.695731983E-2,7.116574794E-2
1.576162500E1,-6.075050235E-1,-1.130099874E-2,1.285870373E-1
1.577162500E1,-4.327977002E-1,1.435532235E-2,1.847866029E-1
1.578162500E1,-2.617555559E-1,2.779434808E-2,2.434296161E-1
1.579162500E1,-9.560033679E-2,4.856374860E-2,2.959639728E-1
1.580162500E1,-4.428769648E-2,1.679878123E-2,3.057378232E-1
1.581162500E1,-7.727439702E-2,-4.550942779E-2,2.788597643E-1
1.582162500E1,-1.273653060E-1,-5.406153202E-2,2.483165264E-1
1.583162500E1,-2.825249732E-1,-1.676823795E-1,2.031125426E-1
1.584162500E1,-4.902189970E-1,-2.666424811E-1,1.847866029E-1
1.585162500E1,-5.781835318E-1,-2.654207349E-1,1.713475734E-1
1.586162500E1,-5.769617558E-1,-2.031125426E-1,9.193515033E-2
1.587162500E1,-4.938841760E-1,-7.971785218E-2,-1.313359290E-2
1.588162500E1,-4.376846254E-1,2.901607752E-2,-8.765909821E-2
1.589162500E1,-4.279107749E-1,1.096502244E-1,-1.389717311E-1
1.590162500E1,-5.158752799E-1,5.467239767E-2,-1.890626550E-1
1.591162500E1,-7.052434087E-1,-2.840521187E-2,-3.772090077E-1
1.592162500E1,-8.885028362E-1,-2.474002354E-2,-6.105593443E-1
1.593162500E1,-1.138957381E0,1.353065521E-1,-9.404263496E-1
1.594162500E1,-1.371086001E0,4.468475878E-1,-1.187215686E0
1.595162500E1,-1.512806654E0,7.315105796E-1,-1.244637012E0
1.596162500E1,-1.625205755E0,9.245438576E-1,-1.096807718E0
1.597162500E1,-1.677740097E0,9.392045736E-1,-8.817833066E-1
1.598162500E1,-1.730274439E0,7.632755637E-1,-6.191114783E-1
1.599162500E1,-1.770591617E0,4.602866173E-1,-5.067123175E-1
1.600162500E1,-1.770591617E0,-8.582650125E-2,-4.077522457E-1
1.601162500E1,-1.625205755E0,-4.401280880E-1,-2.892444730E-1
1.602162500E1,-1.411403060E0,-5.525271893E-1,-1.805105358E-1
1.603162500E1,-8.811724186E-1,-4.144717455E-1,-1.585194170E-1
1.604162500E1,-3.607156575E-1,-2.739728391E-1,-2.257145345E-1
1.605162500E1,1.939495653E-1,-1.985310577E-2,-3.808741868E-1
1.606162500E1,4.847212136E-1,9.743293375E-2,-4.822777510E-1
1.607162500E1,6.765327454E-1,1.230892539E-1,-5.225948095E-1
1.608162500E1,7.009673119E-1,6.200277433E-2,-4.651735425E-1
1.609162500E1,6.740893126E-1,1.924224012E-2,-3.711003661E-1
1.610162500E1,6.569850445E-1,-6.994401664E-2,-1.988364905E-1
1.611162500E1,6.692023873E-1,-1.200349256E-1,-7.299833745E-2
1.612162500E1,6.973021626E-1,-2.238819450E-1,2.229656465E-2
1.613162500E1,7.730493546E-1,-3.045161068E-1,6.261363626E-2
1.614162500E1,9.502001405E-1,-3.717112243E-1,8.460476995E-2
1.615162500E1,1.228754520E0,-2.922987938E-1,5.161807314E-2
1.616162500E1,1.481652498E0,-1.102610901E-1,6.414080039E-3
1.617162500E1,1.740659237E0,1.902843714E-1,-3.878991306E-2
1.618162500E1,1.846949697E0,4.407389462E-1,-6.078104675E-2
1.619162500E1,1.853058338E0,6.789761782E-1,-3.268126398E-2
1.620162500E1,1.788306594E0,7.816014886E-1,1.496618707E-2
1.621162500E1,1.653916359E0,7.913753390E-1,6.139190868E-2
1.622162500E1,1.469435215E0,7.229584455E-1,3.695731983E-2
1.623162500E1,1.269071579E0,6.423243284E-1,-7.024944760E-3
1.624162500E1,9.929606915E-1,5.115992427E-1,-5.100720748E-2
1.625162500E1,7.925970554E-1,3.808741868E-1,-6.566796452E-2
1.626162500E1,6.056724191E-1,2.354883701E-1,-7.666353136E-2
1.627162500E1,4.993819594E-1,1.792888194E-1,-8.155044913E-2
1.628162500E1,4.114174247E-1,1.511890292E-1,-8.888082206E-2
1.629162500E1,3.698786199E-1,1.438586563E-1,-7.177661359E-2
1.630162500E1,3.466657698E-1,1.218675226E-1,-3.145953640E-2
1.631162500E1,3.185659945E-1,6.444623321E-2,3.451386094E-2
1.632162500E1,2.806923687E-1,-6.414080039E-3,8.216131479E-2
1.633162500E1,2.306014597E-1,-8.338304609E-2,6.505709887E-2
1.634162500E1,1.829539984E-1,-1.041524485E-1,8.857538924E-3
1.635162500E1,7.910698652E-2,-7.605266571E-2,-7.055488229E-2
1.636162500E1,-7.238747925E-2,-2.840521187E-2,-1.169806048E-1
1.637162500E1,-1.774562150E-1,2.535088919E-2,-1.597411335E-1
1.638162500E1,-3.094030023E-1,2.901607752E-2,-1.768453568E-1
1.639162500E1,-4.474584460E-1,-3.940077871E-2,-1.670715213E-1
1.640162500E1,-6.050615907E-1,-1.884517819E-1,-1.585194170E-1
1.641162500E1,-7.186824083E-1,-3.191768527E-1,-1.463021189E-1
1.642162500E1,-8.518509269E-1,-4.266890585E-1,-1.145371497E-1
1.643162500E1,-9.459241033E-1,-4.364628792E-1,-4.123337194E-2
1.644162500E1,-1.036332130E0,-4.902189970E-1,2.351829410E-2
1.645162500E1,-1.165835381E0,-5.916225314E-1,9.071341902E-2
1.646162500E1,-1.235473990E0,-6.392700076E-1,1.408043355E-1
1.647162500E1,-1.299003959E0,-7.125737667E-1,1.456912458E-1
1.648162500E1,-1.277012825E0,-6.551524997E-1,1.591302752E-1
1.649162500E1,-1.152396441E0,-4.816668928E-1,2.165515572E-1
1.650162500E1,-9.618065953E-1,-2.544251680E-1,2.629773021E-1
1.651162500E1,-7.663298845E-1,-8.826996386E-2,3.203985691E-1
1.652162500E1,-4.792234302E-1,6.200277433E-2,4.511236250E-1
1.653162500E1,-2.348775119E-1,2.061668634E-1,5.500837564E-1
1.654162500E1,9.468403645E-3,3.430005610E-1,6.185005903E-1
1.655162500E1,7.788526267E-2,4.725039005E-1,6.062833071E-1
1.656162500E1,-1.527161920E-3,6.533198953E-1,5.061014891E-1
1.657162500E1,-1.273653060E-1,7.486147881E-1,3.692677617E-1
1.658162500E1,-1.029307172E-1,7.449495792E-1,2.397644222E-1
1.659162500E1,1.817322671E-1,6.252201200E-1,3.084867075E-2
1.660162500E1,4.651735425E-1,5.873464942E-1,-1.817322671E-1
1.661162500E1,6.948586702E-1,6.276635528E-1,-4.431824088E-1
1.662162500E1,7.840449214E-1,6.508764029E-1,-5.702422857E-1
1.663162500E1,8.048143387E-1,5.641336441E-1,-5.543597937E-1
1.664162500E1,8.732311726E-1,2.965748608E-1,-3.833176494E-1
1.665162500E1,9.611957073E-1,6.322450191E-2,-2.232710719E-1
1.666162500E1,1.176220179E0,-2.495382577E-1,6.383536756E-2
1.667162500E1,1.314275622E0,-4.034761786E-1,3.814850450E-1
1.668162500E1,1.258076072E0,-5.097666383E-1,6.111702323E-1
1.669162500E1,8.915571570E-1,-5.232056975E-1,7.406735420E-1
1.670162500E1,4.272999167E-1,-4.816668928E-1,8.017600179E-1
1.671162500E1,-1.517999023E-1,-3.973675370E-1,8.213077188E-1
1.672162500E1,-4.804451466E-1,-3.607156575E-1,8.078686595E-1
1.673162500E1,-6.685914993E-1,-4.046979249E-1,8.017600179E-1
1.674162500E1,-6.673697829E-1,-4.987711012E-1,8.090903759E-1
1.675162500E1,-5.158752799E-1,-6.001746655E-1,8.261946440E-1
1.676162500E1,-2.324340492E-1,-6.392700076E-1,8.457422853E-1
1.677162500E1,7.544180006E-2,-6.869174242E-1,8.701768517E-1
1.678162500E1,3.833176494E-1,-7.394518256E-1,8.994984031E-1
1.679162500E1,5.152644515E-1,-7.357866168E-1,9.324851036E-1
1.680162500E1,5.653553605E-1,-6.820304990E-1,9.581413865E-1
1.681162500E1,5.653553605E-1,-6.527090073E-1,9.459241033E-1
1.682162500E1,5.445859432E-1,-6.075050235E-1,8.921679854E-1
1.683162500E1,4.957167804E-1,-5.476402640E-1,8.042035103E-1
1.684162500E1,4.334085584E-1,-4.889972508E-1,7.186824083E-1
1.685162500E1,3.002400398E-1,-4.218021333E-1,6.148353815E-1
1.686162500E1,1.401934624E-1,-3.875937164E-1,5.183187723E-1
1.687162500E1,-7.971785218E-2,-3.570504785E-1,4.059196413E-1
1.688162500E1,-2.507599890E-1,-3.607156575E-1,3.277289569E-1
1.689162500E1,-4.547888339E-1,-3.949240744E-1,1.884517819E-1
1.690162500E1,-6.026180983E-1,-4.120282829E-1,1.007926930E-2
1.691162500E1,-6.478220820E-1,-4.095848203E-1,-1.206457913E-1
1.692162500E1,-6.844739914E-1,-3.582721949E-1,-2.342666388E-1
1.693162500E1,-7.553343177E-1,-3.167333901E-1,-3.149007857E-1
1.694162500E1,-8.616247773E-1,-2.922987938E-1,-3.747655451E-1
1.695162500E1,-9.654718041E-1,-3.607156575E-1,-3.845393658E-1
1.696162500E1,-1.097418547E0,-4.938841760E-1,-3.576613367E-1
1.697162500E1,-1.151174664E0,-5.537489057E-1,-2.501491308E-1
1.698162500E1,-1.130405307E0,-5.146535635E-1,-1.670715213E-1
1.699162500E1,-1.041218996E0,-3.582721949E-1,-1.010981202E-1
1.700162500E1,-9.605848789E-1,-1.908952445E-1,-2.901607752E-2
1.701162500E1,-8.567378521E-1,-4.795288667E-2,1.163697392E-1
1.702162500E1,-7.345649004E-1,-2.107483521E-2,2.593120933E-1
1.703162500E1,-5.232056975E-1,-1.469129771E-1,4.059196413E-1
1.704162500E1,-2.519817352E-1,-2.507599890E-1,4.694495797E-1
1.705162500E1,2.290742844E-2,-3.460549116E-1,4.792234302E-1
1.706162500E1,3.320049942E-1,-3.191768527E-1,3.937023580E-1
1.707162500E1,5.067123175E-1,-1.982256174E-1,2.018908113E-1
1.708162500E1,5.677987933E-1,1.634063274E-1,-1.145371497E-1
1.709162500E1,5.971203446E-1,4.993819594E-1,-3.356702030E-1
1.710162500E1,7.266236544E-1,7.107411623E-1,-5.201513767E-1
1.711162500E1,8.952223063E-1,6.386591196E-1,-5.616901517E-1
1.712162500E1,1.080925226E0,4.211912751E-1,-4.920515716E-1
1.713162500E1,1.379027247E0,1.435532235E-2,-3.588830531E-1
1.714162500E1,1.631925225E0,-3.240637779E-1,-2.709185183E-1
1.715162500E1,1.921475172E0,-6.808087826E-1,-2.489273995E-1
1.716162500E1,2.101069450E0,-8.445205688E-1,-3.039052188E-1
1.717162500E1,2.228129387E0,-9.043853283E-1,-4.028653204E-1
1.718162500E1,2.209803343E0,-7.858775258E-1,-4.737256467E-1
1.719162500E1,2.049756765E0,-5.268708467E-1,-5.054906011E-1
1.720162500E1,1.706450820E0,-1.212566569E-1,-4.651735425E-1
1.721162500E1,1.306945205E0,2.037234008E-1,-3.882045746E-1
1.722162500E1,6.618719697E-1,6.068941355E-1,-2.855792940E-1
1.723162500E1,1.841757298E-1,8.927788734E-1,-2.122755051E-1
1.724162500E1,-1.322522312E-1,1.010064960E0,-2.000582218E-1
1.725162500E1,-1.496618707E-2,7.254019380E-1,-3.161225319E-1
1.726162500E1,7.788526267E-2,6.117810607E-1,-3.515526950E-1
1.727162500E1,2.623664141E-1,3.833176494E-1,-4.358520210E-1
1.728162500E1,3.894262910E-1,1.927278340E-1,-4.688387215E-1
1.729162500E1,5.348120928E-1,2.901607752E-2,-4.651735425E-1
1.730162500E1,6.215549111E-1,-5.528326333E-2,-4.309650958E-1
1.731162500E1,6.679806113E-1,-1.420260668E-1,-3.601047993E-1
1.732162500E1,6.117810607E-1,-1.713475734E-1,-3.295615613E-1
1.733162500E1,5.470294356E-1,-1.285870373E-1,-3.173442483E-1
1.734162500E1,5.030471683E-1,-1.985310577E-2,-2.794706225E-1
1.735162500E1,4.847212136E-1,6.444623321E-2,-2.281579971E-1
1.736162500E1,4.627300799E-1,1.548542231E-1,-1.414151937E-1
1.737162500E1,4.297433794E-1,1.817322671E-1,-5.955931544E-2
1.738162500E1,3.185659945E-1,1.377500147E-1,1.496618707E-2
1.739162500E1,6.566796452E-2,1.191186346E-2,-3.634645417E-2
1.740162500E1,-2.202167511E-1,-8.704823256E-2,-1.768453568E-1
1.741162500E1,-5.977311730E-1,-2.605338395E-1,-4.163043499E-1
1.742162500E1,-8.445205688E-1,-4.462367296E-1,-6.191114783E-1
1.743162500E1,-9.728021622E-1,-6.270527244E-1,-7.718276381E-1
1.744162500E1,-9.117156863E-1,-6.368265152E-1,-7.107411623E-1
1.745162500E1,-7.443387508E-1,-4.938841760E-1,-4.272999167E-1
1.746162500E1,-6.441569328E-1,-2.263254076E-1,-6.933315098E-2
1.747162500E1,-6.563742161E-1,3.359756200E-3,1.261435747E-1
1.748162500E1,-7.162389755E-1,2.513708472E-1,1.921169758E-1
1.749162500E1,-7.211259007E-1,3.869828284E-1,1.505781710E-1
1.750162500E1,-6.441569328E-1,4.211912751E-1,1.175914705E-1
1.751162500E1,-5.012145638E-1,3.686569035E-1,1.481347084E-1
1.752162500E1,-2.141081095E-1,3.100138903E-1,2.690859437E-1
1.753162500E1,1.084285006E-1,3.295615613E-1,4.242455959E-1
1.754162500E1,2.452622056E-1,4.737256467E-1,5.500837564E-1
1.755162500E1,8.032871783E-2,7.254019380E-1,5.965094566E-1
1.756162500E1,-2.275471240E-1,8.903354406E-1,5.317577720E-1
1.757162500E1,-6.966912746E-1,1.038164735E0,2.654207349E-1
1.758162500E1,-8.432988524E-1,1.046716809E0,-4.123337194E-2
1.759162500E1,-6.734784245E-1,9.184352160E-1,-3.662134409E-1
1.760162500E1,-3.594939113E-1,9.049961567E-1,-5.421425104E-1
1.761162500E1,-2.718348242E-2,7.657189965E-1,-5.103775263E-1
1.762162500E1,5.177078843E-1,4.187478125E-1,-2.904661894E-1
1.763162500E1,9.941824079E-1,4.001164436E-2,1.252272818E-2
1.764162500E1,1.474322200E0,-3.851502538E-1,4.437932670E-1
1.765162500E1,1.684459686E0,-6.881392002E-1,7.443387508E-1
1.766162500E1,1.696676970E0,-9.117156863E-1,9.618065953E-1
1.767162500E1,1.300836563E0,-8.066469431E-1,9.605848789E-1
1.768162500E1,8.426879644E-1,-6.502655745E-1,8.176425099E-1
1.769162500E1,2.611446977E-1,-4.132500291E-1,5.732966065E-1
1.770162500E1,-1.627954692E-1,-1.627954692E-1,4.218021333E-1
1.771162500E1,-5.036579967E-1,1.218675226E-1,3.411679864E-1
1.772162500E1,-6.197223067E-1,2.965748608E-1,3.460549116E-1
1.773162500E1,-5.647444725E-1,3.539961278E-1,4.169152081E-1
1.774162500E1,-3.289506733E-1,2.758054435E-1,5.244274139E-1
1.775162500E1,-7.483093441E-2,1.524107605E-1,6.197223067E-1
1.776162500E1,2.171624303E-1,-3.084867075E-2,7.296779752E-1
1.777162500E1,3.772090077E-1,-1.456912458E-1,7.834340930E-1
1.778162500E1,4.969384968E-1,-2.348775119E-1,8.066469431E-1
1.779162500E1,5.250383019E-1,-2.751945853E-1,8.103121519E-1
1.780162500E1,4.859429300E-1,-2.666424811E-1,7.883210182E-1
1.781162500E1,3.833176494E-1,-1.872300506E-1,7.504473925E-1
1.782162500E1,2.501491308E-1,-1.102610901E-1,7.406735420E-1
1.783162500E1,1.679878123E-2,2.779434808E-2,7.113520503E-1
1.784162500E1,-1.701258421E-1,1.389717311E-1,6.637045741E-1
1.785162500E1,-3.570504785E-1,2.403752953E-1,5.855138898E-1
1.786162500E1,-4.682278633E-1,3.124573231E-1,4.877755344E-1
1.787162500E1,-5.122101307E-1,3.405571282E-1,3.949240744E-1
1.788162500E1,-5.904008150E-1,2.660316229E-1,2.788597643E-1
1.789162500E1,-7.027999163E-1,7.177661359E-2,1.811214089E-1
1.790162500E1,-8.261946440E-1,-2.177732885E-1,5.283980444E-2
1.791162500E1,-8.616247773E-1,-4.071413875E-1,-2.290742844E-2
1.792162500E1,-7.773254514E-1,-4.987711012E-1,-5.711585656E-2
1.793162500E1,-4.865537882E-1,-3.973675370E-1,-4.612028971E-2
1.794162500E1,-1.689041108E-1,-2.153298408E-1,-5.803215317E-3
1.795162500E1,1.450803876E-1,5.803215317E-3,1.017089859E-1
1.796162500E1,2.220493406E-1,9.498947114E-2,2.128863782E-1
1.797162500E1,1.255327165E-1,2.168569900E-2,2.532034516E-1
1.798162500E1,2.412915789E-2,-1.249218509E-1,1.420260668E-1
1.799162500E1,-6.994401664E-2,-3.228420317E-1,-1.133154184E-1
1.800162500E1,-1.334739476E-1,-3.533852696E-1,-3.258963525E-1
1.801162500E1,-1.627954692E-1,-2.165515572E-1,-3.246746361E-1
1.802162500E1,-2.104429156E-1,1.557705179E-2,-1.756236255E-1
1.803162500E1,-2.141081095E-1,1.524107605E-1,-4.978547990E-2
1.804162500E1,-3.069595397E-1,1.609628648E-1,-2.138026757E-3
1.805162500E1,-3.998109996E-1,2.183841616E-1,-4.001164436E-2
1.806162500E1,-3.961458206E-1,1.768453568E-1,-9.010255337E-2
1.807162500E1,-2.593120933E-1,1.304196268E-1,-1.780670881E-1
1.808162500E1,-1.496618707E-2,-7.971785218E-2,-2.012799382E-1
1.809162500E1,3.820959330E-1,-5.073232055E-1,-1.096502244E-1
1.810162500E1,7.730493546E-1,-9.740238786E-1,3.084867075E-2
1.811162500E1,1.421787739E0,-1.471267819E0,1.310304999E-1
1.812162500E1,1.989892006E0,-1.741270065E0,1.053741723E-1
1.813162500E1,2.627634764E0,-1.914755702E0,-8.277218044E-2
1.814162500E1,3.018588305E0,-1.845117092E0,-3.637699783E-1
1.815162500E1,3.105331182E0,-1.648418665E0,-5.396990180E-1
1.816162500E1,2.940397501E0,-1.251356483E0,-6.801979542E-1
1.817162500E1,2.620304585E0,-9.202677608E-1,-7.229584455E-1
1.818162500E1,2.063195705E0,-4.889972508E-1,-7.229584455E-1
1.819162500E1,1.536630392E0,-1.395826042E-1,-7.119628787E-1
1.820162500E1,8.536835313E-1,2.635881603E-1,-7.095194459E-1
1.821162500E1,2.354883701E-1,5.690205693E-1,-7.290670872E-1
1.822162500E1,-1.432477981E-1,7.412844300E-1,-7.302888632E-1
1.823162500E1,-4.254673123E-1,9.477567077E-1,-7.351757884E-1
1.824162500E1,-5.305360556E-1,1.072373152E0,-7.486147881E-1
1.825162500E1,-5.525271893E-1,1.174998403E0,-7.669407129E-1
1.826162500E1,-5.219839811E-1,1.199432969E0,-7.877101302E-1
1.827162500E1,-4.718930423E-1,1.190880895E0,-7.962622643E-1
1.828162500E1,-4.584540129E-1,1.153007269E0,-7.828232050E-1
1.829162500E1,-4.951058924E-1,1.127350926E0,-7.925970554E-1
1.830162500E1,-5.757400393E-1,1.063820958E0,-8.329141140E-1
1.831162500E1,-6.197223067E-1,1.016173601E0,-8.646790981E-1
1.832162500E1,-6.600393653E-1,9.453132749E-1,-8.756746650E-1
1.833162500E1,-7.125737667E-1,8.940005898E-1,-8.597921729E-1
1.834162500E1,-7.724385262E-1,8.610138893E-1,-8.023709059E-1
1.835162500E1,-8.066469431E-1,8.414662480E-1,-7.510582209E-1
1.836162500E1,-8.347467184E-1,7.901535630E-1,-7.315105796E-1
1.837162500E1,-8.799507022E-1,7.302888632E-1,-7.351757884E-1
1.838162500E1,-9.373720288E-1,6.753110290E-1,-7.522799969E-1
1.839162500E1,-1.038775563E0,6.166679859E-1,-7.779362798E-1
1.840162500E1,-1.109635830E0,6.301070452E-1,-7.852666974E-1
1.841162500E1,-1.180496216E0,6.288852692E-1,-7.327322960E-1
1.842162500E1,-1.246469617E0,6.056724191E-1,-5.824595690E-1
1.843162500E1,-1.320995092E0,4.993819594E-1,-4.700604379E-1
1.844162500E1,-1.393077135E0,2.330449075E-1,-4.114174247E-1
1.845162500E1,-1.401629210E0,-6.383536756E-2,-4.382954836E-1
1.846162500E1,-1.292895317E0,-3.362810612E-1,-5.189296007E-1
1.847162500E1,-1.125518322E0,-3.375027776E-1,-5.470294356E-1
1.848162500E1,-9.654718041E-1,-1.175914705E-1,-4.492910504E-1
1.849162500E1,-8.542944193E-1,3.100138903E-1,-2.134972364E-1
1.850162500E1,-7.357866168E-1,7.180715203E-1,2.229656465E-2
1.851162500E1,-5.122101307E-1,1.123685718E0,2.825249732E-1
1.852162500E1,-2.947422564E-1,1.251967311E0,4.401280880E-1
1.853162500E1,-6.139190868E-2,1.189659119E0,5.488619804E-1
1.854162500E1,4.123337194E-2,9.905172586E-1,4.474584460E-1
1.855162500E1,4.978547990E-2,6.398808360E-1,6.261363626E-2
1.856162500E1,8.643736690E-2,4.163043499E-1,-3.992001414E-1
1.857162500E1,8.888082206E-2,4.725039005E-1,-6.960803866E-1
1.858162500E1,1.133154184E-1,6.239983439E-1,-9.697478414E-1
1.859162500E1,1.365282834E-1,8.133664727E-1,-1.060155869E0
1.860162500E1,2.232710719E-1,9.685261250E-1,-1.032056093E0
1.861162500E1,3.515526950E-1,9.587522745E-1,-8.683443069E-1
1.862162500E1,5.616901517E-1,8.084795475E-1,-5.287034512E-1
1.863162500E1,8.268054724E-1,3.992001414E-1,-1.069013402E-2
1.864162500E1,1.061377525E0,-3.054323897E-4,4.315759540E-1
1.865162500E1,1.337488413E0,-4.804451466E-1,8.445205688E-1
1.866162500E1,1.421787739E0,-7.809906006E-1,1.042440772E0
1.867162500E1,1.248302221E0,-1.018006206E0,1.101083755E0
1.868162500E1,8.952223063E-1,-1.130405307E0,1.008232355E0
1.869162500E1,3.711003661E-1,-1.171944022E0,7.932079434E-1
1.870162500E1,-7.238747925E-2,-1.143844247E0,5.476402640E-1
1.871162500E1,-2.483165264E-1,-1.059544921E0,3.900371492E-1
1.872162500E1,-1.994473487E-1,-8.958331943E-1,2.996291816E-1
1.873162500E1,-1.527161920E-3,-7.150171995E-1,3.313941360E-1
1.874162500E1,3.173442483E-1,-4.584540129E-1,4.645626545E-1
1.875162500E1,5.225948095E-1,-2.678641975E-1,5.879573226E-1
1.876162500E1,6.472112536E-1,-6.872228533E-2,7.137954831E-1
1.877162500E1,6.630937457E-1,8.765909821E-2,7.834340930E-1
1.878162500E1,6.423243284E-1,1.609628648E-1,8.029817343E-1
1.879162500E1,5.922334194E-1,1.658497900E-1,8.078686595E-1
1.880162500E1,5.311469436E-1,1.182023361E-1,7.944296598E-1
1.881162500E1,4.358520210E-1,2.535088919E-2,7.687733173E-1
1.882162500E1,3.307832778E-1,-5.894844979E-2,7.541125417E-1
1.883162500E1,1.658497900E-1,-9.071341902E-2,7.101303339E-1
1.884162500E1,2.168569900E-2,-9.804379940E-2,6.600393653E-1
1.885162500E1,-4.550942779E-2,-8.216131479E-2,6.258309484E-1
1.886162500E1,-6.505709887E-2,-7.116574794E-2,6.026180983E-1
1.887162500E1,-2.596175298E-2,-7.605266571E-2,5.708531141E-1
1.888162500E1,5.100720748E-2,-1.627954692E-1,4.865537882E-1
1.889162500E1,9.010255337E-2,-3.313941360E-1,3.216203153E-1
1.890162500E1,8.765909821E-2,-4.816668928E-1,1.505781710E-1
1.891162500E1,1.802051067E-2,-6.795870662E-1,-6.566796452E-2
1.892162500E1,-7.971785218E-2,-8.139773011E-1,-2.428187430E-1
1.893162500E1,-2.312123179E-1,-8.885028362E-1,-4.028653204E-1
1.894162500E1,-3.778198659E-1,-8.530726433E-1,-4.492910504E-1
1.895162500E1,-5.794052482E-1,-6.991347671E-1,-4.236347377E-1
1.896162500E1,-8.017600179E-1,-5.170970559E-1,-3.552178741E-1
1.897162500E1,-9.764673710E-1,-3.912588954E-1,-3.087921441E-1
1.898162500E1,-1.141400814E0,-1.823431402E-1,-2.794706225E-1
1.899162500E1,-1.284343243E0,-6.383536756E-2,-2.880227566E-1
1.900162500E1,-1.485928535E0,-3.054323897E-4,-3.344484568E-1
1.901162500E1,-1.611766696E0,-1.985310577E-2,-3.491092324E-1
1.902162500E1,-1.637423038E0,-1.090393662E-1,-2.892444730E-1
1.903162500E1,-1.460272312E0,-2.629773021E-1,-1.572976857E-1
1.904162500E1,-1.178052783E0,-3.778198659E-1,-1.435532235E-2
1.905162500E1,-7.602212429E-1,-4.731147587E-1,1.237001196E-1
1.906162500E1,-4.462367296E-1,-5.097666383E-1,9.437860548E-2
1.907162500E1,-1.053741723E-1,-6.087267399E-1,7.483093441E-2
1.908162500E1,1.072067693E-1,-6.368265152E-1,1.334739476E-1
1.909162500E1,3.002400398E-1,-6.966912746E-1,2.251036763E-1
1.910162500E1,5.140427351E-1,-7.748819590E-1,2.360992432E-1
1.911162500E1,7.241802216E-1,-8.445205688E-1,1.994473487E-1
1.912162500E1,1.023503900E0,-9.300416112E-1,1.151480079E-1
1.913162500E1,1.253189087E0,-1.015562654E0,-1.435532235E-2
1.914162500E1,1.486539483E0,-1.124296665E0,-2.330449075E-1
1.915162500E1,1.646586061E0,-1.187826514E0,-4.272999167E-1
1.916162500E1,1.804189086E0,-1.288008332E0,-6.655371785E-1
1.917162500E1,1.883601546E0,-1.366199136E0,-8.414662480E-1
1.918162500E1,1.850614905E0,-1.355203509E0,-9.037744403E-1
1.919162500E1,1.647807717E0,-1.206152558E0,-8.891136646E-1
1.920162500E1,1.380249023E0,-9.715804458E-1,-8.549052477E-1
1.921162500E1,9.563088417E-1,-5.464185476E-1,-8.292489648E-1
1.922162500E1,5.470294356E-1,-1.493564397E-1,-8.133664727E-1
1.923162500E1,-3.329212964E-2,3.466657698E-1,-8.023709059E-1
1.924162500E1,-5.891790986E-1,7.388409376E-1,-7.828232050E-1
1.925162500E1,-9.190460443E-1,9.770781994E-1,-7.498365045E-1
1.926162500E1,-1.140179157E0,1.209206820E0,-7.205150127E-1
1.927162500E1,-1.192713499E0,1.333823204E0,-6.948586702E-1
1.928162500E1,-1.157283306E0,1.419344306E0,-6.459894776E-1
1.929162500E1,-1.071762204E0,1.427896380E0,-5.995637774E-1
1.930162500E1,-9.324851036E-1,1.398574948E0,-5.311469436E-1
1.931162500E1,-8.139773011E-1,1.288619280E0,-4.602866173E-1
1.932162500E1,-7.186824083E-1,1.113911867E0,-4.101957083E-1
1.933162500E1,-5.855138898E-1,8.561269641E-1,-3.100138903E-1
1.934162500E1,-4.645626545E-1,6.459894776E-1,-2.428187430E-1
1.935162500E1,-2.751945853E-1,3.869828284E-1,-1.646280587E-1
1.936162500E1,-1.053741723E-1,2.122755051E-1,-1.145371497E-1
1.937162500E1,-1.527161920E-3,5.222893879E-2,-9.743293375E-2
1.938162500E1,-5.528326333E-2,-8.216131479E-2,-1.206457913E-1
1.939162500E1,-1.493564397E-1,-1.249218509E-1,-1.414151937E-1
1.940162500E1,-3.155116439E-1,-1.383608729E-1,-1.988364905E-1
1.941162500E1,-4.645626545E-1,-1.603520066E-1,-2.941313982E-1
1.942162500E1,-5.952877402E-1,-1.371391416E-1,-4.651735425E-1
1.943162500E1,-6.404917240E-1,-1.078176349E-1,-5.910117030E-1
1.944162500E1,-7.040216327E-1,-1.065959036E-1,-7.034108043E-1
1.945162500E1,-8.225294352E-1,4.581485875E-3,-7.351757884E-1
1.946162500E1,-9.581413865E-1,1.768453568E-1,-7.021890879E-1
1.947162500E1,-1.176831007E0,3.711003661E-1,-6.569850445E-1
1.948162500E1,-1.349094868E0,5.335903764E-1,-6.606502533E-1
1.949162500E1,-1.482263446E0,7.608320713E-1,-6.411026120E-1
1.950162500E1,-1.478598237E0,9.428697824E-1,-5.323686600E-1
1.951162500E1,-1.319773316E0,1.129794359E0,-2.611446977E-1
1.952162500E1,-1.031445146E0,1.198211312E0,1.395826042E-1
1.953162500E1,-7.492256761E-1,1.135903001E0,4.889972508E-1
1.954162500E1,-3.350593448E-1,9.355394244E-1,8.848376274E-1
1.955162500E1,-1.130099874E-2,6.667588949E-1,1.127961874E0
1.956162500E1,2.293797284E-1,2.477056682E-1,1.224478483E0
1.957162500E1,2.183841616E-1,1.191186346E-2,1.077870846E0
1.958162500E1,1.133154184E-1,-2.605338395E-1,7.834340930E-1
1.959162500E1,6.078104675E-2,-2.666424811E-1,4.572322965E-1
1.960162500E1,6.688969582E-2,-9.437860548E-2,2.153298408E-1
1.961162500E1,8.888082206E-2,2.464839369E-1,3.084867075E-2
1.962162500E1,1.206457913E-1,4.908298552E-1,2.474002354E-2
1.963162500E1,2.281579971E-1,6.007854939E-1,1.652389169E-1
1.964162500E1,3.882045746E-1,4.822777510E-1,3.240637779E-1
1.965162500E1,6.863065958E-1,1.023198515E-1,5.476402640E-1
1.966162500E1,9.954041839E-1,-4.315759540E-1,7.357866168E-1
1.967162500E1,1.117577076E0,-7.907644510E-1,7.956513762E-1
1.968162500E1,1.008843184E0,-9.960150123E-1,7.748819590E-1
1.969162500E1,7.376192212E-1,-9.825760126E-1,7.260127664E-1
1.970162500E1,2.990183234E-1,-7.968730927E-1,6.698132157E-1
1.971162500E1,-2.474002354E-2,-5.781835318E-1,6.563742161E-1
1.972162500E1,-3.167333901E-1,-3.350593448E-1,7.040216327E-1
1.973162500E1,-4.792234302E-1,-1.701258421E-1,7.712168097E-1
1.974162500E1,-4.718930423E-1,-1.322522312E-1,8.469640017E-1
1.975162500E1,-2.861901522E-1,-2.141081095E-1,9.666935205E-1
1.976162500E1,-4.306596518E-2,-3.546070158E-1,1.059544921E0
1.977162500E1,3.026835024E-1,-5.830704570E-1,1.151174664E0
1.978162500E1,5.568032265E-1,-7.651081085E-1,1.190270066E0
1.979162500E1,7.730493546E-1,-9.605848789E-1,1.189048290E0
1.980162500E1,8.292489648E-1,-1.058323264E0,1.113301039E0
1.981162500E1,7.877101302E-1,-1.074205756E0,1.019227862E0
1.982162500E1,6.948586702E-1,-1.010675788E0,9.239329696E-1
1.983162500E1,6.154462695E-1,-9.104939699E-1,8.652899861E-1
1.984162500E1,5.433642268E-1,-7.345649004E-1,8.176425099E-1
1.985162500E1,4.957167804E-1,-5.757400393E-1,7.809906006E-1
1.986162500E1,4.236347377E-1,-3.998109996E-1,6.979129910E-1
1.987162500E1,3.051269650E-1,-2.751945853E-1,5.574141145E-1
1.988162500E1,1.768453568E-1,-2.764163017E-1,4.242455959E-1
1.989162500E1,4.489856213E-2,-3.521635532E-1,2.690859437E-1
1.990162500E1,-5.894844979E-2,-4.596757591E-1,1.493564397E-1
1.991162500E1,-1.786779463E-1,-5.745183229E-1,-4.001164436E-2
1.992162500E1,-2.422078848E-1,-6.172788739E-1,-1.927278340E-1
