"Time (s)","Linear Acceleration x (m/s^2)","Linear Acceleration y (m/s^2)","Linear Acceleration z (m/s^2)"
2.962090500E-2,0.000000000E0,0.000000000E0,0.000000000E0
3.962090500E-2,-4.828941822E-2,2.580257654E-1,3.336658478E-1
4.962090500E-2,-5.670654774E-1,1.436908841E-1,4.841394424E-1
5.962090500E-2,-1.206124544E0,-7.114985585E-2,2.143936157E-1
6.962090500E-2,-1.373914003E0,6.325596571E-2,-3.231954575E-1
7.962090500E-2,-1.349859715E0,4.767264128E-1,-9.425916672E-1
8.962090500E-2,-1.648491621E0,7.833744884E-1,-1.647175789E0
9.962090500E-2,-1.854863167E0,7.267143726E-1,-1.712414742E0
1.096209050E-1,-1.668691516E0,4.496199489E-1,-1.406819344E0
1.196209050E-1,-8.440272212E-1,1.523282528E-1,-1.639723778E0
1.296209050E-1,-6.870102882E-2,-2.199783921E-1,-1.972737312E0
1.396209050E-1,4.082257748E-1,-4.210728407E-1,-2.633513451E0
1.496209050E-1,7.672237158E-1,-5.084717274E-1,-3.066308022E0
1.596209050E-1,1.054432511E0,-4.992462397E-1,-3.025381088E0
1.696209050E-1,1.393856525E0,-3.732932806E-1,-2.589597702E0
1.796209050E-1,1.486765504E0,-2.040038109E-1,-2.323527336E0
1.896209050E-1,1.313103676E0,-1.522920728E-1,-2.022844315E0
1.996209050E-1,1.142755508E0,-3.167653084E-2,-1.799116611E0
2.096209050E-1,9.394737482E-1,1.049541831E-1,-1.715095520E0
2.196209050E-1,1.230758429E0,9.117615223E-2,-1.609064579E0
2.296209050E-1,1.584702253E0,-8.329427242E-2,-1.507812500E0
2.396209050E-1,1.612282515E0,-6.342816353E-2,-1.313515663E0
2.496209050E-1,1.669285417E0,-1.631657481E-1,-1.107341766E0
2.596209050E-1,1.631733656E0,-2.524536848E-1,-1.068077087E0
2.696209050E-1,1.675800443E0,-2.671719193E-1,-1.089672089E0
2.796209050E-1,1.492636204E0,-2.396323085E-1,-1.289294243E0
2.896209050E-1,1.246019125E0,-9.451711178E-2,-1.734548092E0
2.996209050E-1,1.035437226E0,3.067055941E-1,-2.257935524E0
3.096209050E-1,9.574783444E-1,6.540386677E-1,-2.463207245E0
3.196209050E-1,8.046475649E-1,7.247821093E-1,-2.089895248E0
3.296209050E-1,7.528073192E-1,3.337883949E-1,-1.435062408E0
3.396209050E-1,7.466840744E-1,4.341334105E-1,-8.527979851E-1
3.496209050E-1,7.173166871E-1,5.076589584E-1,-1.480379105E-1
3.596209050E-1,4.758192599E-1,3.296223879E-1,9.016561508E-1
3.696209050E-1,5.714776516E-1,6.405478716E-1,1.498742104E0
3.796209050E-1,9.680661559E-1,8.371614218E-1,2.588695526E0
3.896209050E-1,5.891391039E-1,1.186875463E0,3.175121307E0
3.996209050E-1,-6.194960698E-2,1.861258030E0,3.341526031E0
4.096209050E-1,-3.312915266E-1,2.098661423E0,3.437133789E0
4.196209050E-1,-6.721207500E-1,1.980268121E0,3.347127914E0
4.296209050E-1,-1.026346564E0,1.774969339E0,3.008848190E0
4.396209050E-1,-8.509110808E-1,1.584959626E0,2.724486351E0
4.496209050E-1,-4.776805043E-1,1.220326543E0,2.433296204E0
4.596209050E-1,-2.884381413E-1,6.656464338E-1,1.930165291E0
4.696209050E-1,-1.383902580E-1,1.394057274E-1,1.354026794E0
4.796209050E-1,1.658313870E-1,-1.881735325E-1,1.026127815E0
4.896209050E-1,2.616806626E-1,-1.419236660E-1,9.822893143E-1
4.996209050E-1,3.999471068E-1,3.931336403E-1,1.024654388E0
5.096209050E-1,5.884431601E-1,4.050264359E-1,9.177722931E-1
5.196209050E-1,8.243346810E-1,-2.768718004E-1,9.330072403E-1
5.296209050E-1,7.294996977E-1,-6.637424231E-1,1.068849564E0
5.396209050E-1,3.720754981E-1,-1.045732379E0,5.935659409E-1
5.496209050E-1,5.284778476E-1,-1.331723571E0,-2.522850037E-2
5.596209050E-1,1.344506264E0,-1.245617390E0,-3.795814514E-2
5.696209050E-1,1.689259529E0,-1.295552373E0,8.191614151E-1
5.796209050E-1,1.349574089E0,-1.449861765E0,1.816653252E0
5.896209050E-1,1.294913769E0,-1.351747513E0,2.709593773E0
5.996209050E-1,1.361483455E0,-1.078227878E0,3.569975853E0
6.096209050E-1,1.751950145E0,-7.534095049E-1,3.910782814E0
6.196209050E-1,1.388678670E0,-4.046027660E-1,3.719367027E0
6.296209050E-1,7.594947815E-1,-3.999311924E-1,3.267033577E0
6.396209050E-1,3.916891813E-1,-5.409550071E-1,2.078951836E0
6.496209050E-1,-3.278937191E-2,-5.776473284E-1,2.079477310E-1
6.596209050E-1,-6.832602620E-1,-5.757787228E-1,-1.731815338E0
6.696209050E-1,-1.156645775E0,-4.596186280E-1,-3.348941326E0
6.796209050E-1,-1.555805445E0,6.722366810E-2,-4.354282379E0
6.896209050E-1,-1.416671276E0,1.380264759E-1,-4.630761147E0
6.996209050E-1,-9.703322649E-1,-3.541485071E-1,-4.374959946E0
7.096209050E-1,-4.307333231E-1,-1.024745226E0,-3.636284828E0
7.196209050E-1,2.729150951E-1,-1.374717474E0,-2.604492188E0
7.296209050E-1,1.018149376E0,-1.417424679E0,-1.475331306E0
7.396209050E-1,1.291266441E0,-1.378284454E0,-4.684247971E-1
7.496209050E-1,1.315012097E0,-1.315256238E0,1.301774979E-1
7.596209050E-1,1.334355116E0,-1.233350515E0,3.112888336E-1
7.696209050E-1,1.064555526E0,-9.870252609E-1,-5.388832092E-2
7.796209050E-1,8.545871377E-1,-7.139176130E-1,-7.591781616E-1
7.896209050E-1,7.423588037E-1,-4.532994032E-1,-1.511577606E0
7.996209050E-1,4.993284941E-1,-1.508219242E-1,-2.160851479E0
8.096209050E-1,2.405798435E-2,4.134211540E-1,-2.628867626E0
8.196209050E-1,-1.982971430E-1,6.862953901E-1,-2.851449966E0
8.296209050E-1,-5.628886819E-1,9.161096811E-1,-2.849895477E0
8.396209050E-1,-4.087402821E-1,9.614796638E-1,-2.696036339E0
8.496209050E-1,-2.273617983E-1,1.069581985E0,-2.622113228E0
8.596209050E-1,-1.923010349E-1,1.197712779E0,-2.841534138E0
8.696209050E-1,2.660464644E-1,1.140975356E0,-2.826061249E0
8.796209050E-1,2.839297652E-1,1.097151875E0,-2.641905308E0
8.896209050E-1,1.209601164E-1,1.089378476E0,-2.281365395E0
8.996209050E-1,1.310632825E-1,1.067209363E0,-1.718844414E0
9.096209050E-1,2.213736773E-1,9.645358324E-1,-1.122042656E0
9.196209050E-1,2.597801089E-1,9.280768633E-1,-5.769281387E-1
9.296209050E-1,5.142509937E-2,1.014047146E0,-2.238216400E-1
9.396209050E-1,-8.114570379E-2,1.068586707E0,5.384445190E-3
9.496209050E-1,1.157206893E-1,1.037021160E0,1.355514526E-1
9.596209050E-1,4.263459444E-1,1.023226976E0,2.317972183E-1
9.696209050E-1,4.801082015E-1,1.106390595E0,5.351371765E-1
9.796209050E-1,4.640320241E-1,1.048972487E0,9.486589432E-1
9.896209050E-1,1.340103149E-1,8.928329945E-1,1.310469627E0
9.996209050E-1,-8.103334904E-2,7.941346169E-1,1.607130051E0
1.009620905E0,-2.553244233E-1,6.860307455E-1,1.843405724E0
1.019620905E0,-3.300165534E-1,6.413580179E-1,1.951691628E0
1.029620905E0,-3.774695396E-1,6.073988676E-1,1.841702461E0
1.039620905E0,-2.327145338E-1,5.097198486E-1,1.715429306E0
1.049620905E0,2.685181201E-1,8.513524532E-1,1.447693825E0
1.059620905E0,4.760489762E-1,1.689957738E0,7.977752686E-1
1.069620905E0,-1.851437092E-1,1.610963821E0,5.127220154E-1
1.079620905E0,-1.361987233E0,1.152793169E-1,9.092588425E-1
1.089620905E0,-1.720643282E0,-1.432260871E0,1.906205177E0
1.099620905E0,-1.613195896E0,-1.921465278E0,2.934646606E0
1.109620905E0,-1.566920996E0,-1.808204055E0,3.636306763E0
1.119620905E0,-1.869157314E0,-1.590185523E0,3.955826759E0
1.129620905E0,-2.049663305E0,-1.793890595E0,3.894407272E0
1.139620905E0,-1.159824967E0,-1.780277491E0,3.862268448E0
1.149620905E0,-8.388207108E-2,-1.518614650E0,3.989829063E0
1.159620905E0,9.970672131E-1,-9.532921314E-1,4.046360016E0
1.169620905E0,1.479020238E0,-6.320452690E-1,3.452117920E0
1.179620905E0,1.268620133E0,-2.417339087E-1,2.265674591E0
1.189620905E0,4.998628497E-1,-2.671388388E-1,9.060125351E-1
1.199620905E0,-2.519286871E-1,-5.137441158E-1,5.179405212E-3
1.209620905E0,-7.925659418E-1,-7.121301889E-1,-1.095745087E0
1.219620905E0,-9.157114625E-1,-8.718974590E-1,-2.031603813E0
1.229620905E0,-1.672727913E-1,-7.374455333E-1,-2.428239346E0
1.239620905E0,4.111611843E-1,-4.450111389E-1,-2.373657227E0
1.249620905E0,4.550405145E-1,-3.671044111E-1,-2.269488811E0
1.259620905E0,2.562521100E-1,-5.729877949E-2,-2.304517269E0
1.269620905E0,2.671321630E-1,4.829156399E-1,-2.402779579E0
1.279620905E0,1.709968150E-1,6.991307735E-1,-2.427971840E0
1.289620905E0,-6.778892875E-2,6.657991409E-1,-2.402331352E0
1.299620905E0,-3.015416861E-2,3.617132902E-1,-2.423085213E0
1.309620905E0,2.657391727E-1,1.743276119E-1,-2.590844154E0
1.319620905E0,4.710120261E-1,1.116850376E-1,-2.642465591E0
1.329620905E0,7.009642720E-1,1.566157341E-1,-2.510501862E0
1.339620905E0,6.727892756E-1,3.030438423E-1,-2.242799759E0
1.349620905E0,4.215770364E-1,2.219415903E-1,-2.023638725E0
1.359620905E0,3.763735294E-1,1.865785122E-1,-1.991384983E0
1.369620905E0,2.500935197E-1,1.921148300E-1,-2.047665596E0
1.379620905E0,1.550985575E-1,9.997320175E-2,-2.196995258E0
1.389620905E0,-9.917256236E-2,1.321767569E-1,-2.214475632E0
1.399620905E0,1.213916838E-1,1.264781952E-1,-2.452327728E0
1.409620905E0,7.863608003E-2,2.337623835E-1,-2.659721851E0
1.419620905E0,-2.848792076E-2,4.052004814E-1,-2.608325958E0
1.429620905E0,5.114069581E-2,3.365943432E-1,-2.005758762E0
1.439620905E0,2.329852879E-1,4.502488375E-1,-9.921445847E-1
1.449620905E0,2.589474618E-1,8.030461073E-1,-7.468509674E-2
1.459620905E0,-2.687087655E-2,1.273581147E0,7.832422256E-1
1.469620905E0,-1.385369003E-1,1.638895035E0,1.352872849E0
1.479620905E0,1.322233677E-1,1.667544961E0,1.550796509E0
1.489620905E0,3.696482182E-1,1.574206114E0,1.573297501E0
1.499620905E0,5.665487051E-1,1.479159474E0,1.933566093E0
1.509620905E0,4.426476359E-1,1.375423789E0,2.410670280E0
1.519620905E0,-2.503541112E-2,1.513731599E0,2.840675354E0
1.529620905E0,-1.423100233E-1,1.691877007E0,3.204509735E0
1.539620905E0,7.574260235E-4,1.702927351E0,3.390838623E0
1.549620905E0,8.076101542E-2,1.522438765E0,3.236155510E0
1.559620905E0,1.902924478E-1,1.146041751E0,2.842524529E0
1.569620905E0,1.094186008E-1,9.442888498E-1,2.224665642E0
1.579620905E0,-2.385777235E-2,8.284064531E-1,1.558845520E0
1.589620905E0,-2.985984087E-3,8.649028540E-1,9.688501358E-1
1.599620905E0,2.207648754E-1,1.031989336E0,5.672140121E-1
1.609620905E0,5.474733710E-1,8.680953979E-1,6.058807373E-1
1.619620905E0,8.899176121E-1,2.937763929E-1,1.220444679E0
1.629620905E0,8.215261102E-1,-1.113210917E-1,2.022874832E0
1.639620905E0,3.101531267E-1,-2.814254761E-1,2.780240059E0
1.649620905E0,-1.281479001E-2,-5.645326376E-1,3.523999214E0
1.659620905E0,2.919200063E-2,-8.981077671E-1,4.284362793E0
1.669620905E0,3.546620309E-1,-8.194465637E-1,4.882420540E0
1.679620905E0,1.660354435E-1,-4.804966450E-1,4.924514771E0
1.689620905E0,1.151075363E-1,-3.524839878E-2,4.622460365E0
1.699620905E0,5.793732405E-2,3.671768904E-1,4.124945641E0
1.709620905E0,-4.335448742E-1,6.484180689E-1,3.105457306E0
1.719620905E0,-8.823072910E-1,6.319928169E-1,1.558067322E0
1.729620905E0,-9.482176304E-1,3.587815762E-1,1.570272446E-1
1.739620905E0,-5.535067320E-1,2.093409300E-1,-7.764062881E-1
1.749620905E0,-8.176237345E-2,-8.974635601E-2,-1.287932396E0
1.759620905E0,5.995713472E-1,-6.827503443E-1,-1.532259941E0
1.769620905E0,1.702828765E0,-1.426908374E0,-1.620843887E0
1.779620905E0,2.312507629E0,-1.966818213E0,-1.690132141E0
1.789620905E0,2.477622986E0,-2.292493343E0,-1.810269356E0
1.799620905E0,2.696583271E0,-2.429625511E0,-2.036810875E0
1.809620905E0,2.515346766E0,-2.743278027E0,-2.311773300E0
1.819620905E0,1.813585758E0,-2.315956831E0,-2.982899189E0
1.829620905E0,1.232652426E0,-1.579301953E0,-3.463154316E0
1.839620905E0,1.107481480E0,-1.655384541E0,-3.504074097E0
1.849620905E0,1.066797018E0,-1.766483307E0,-3.512965202E0
1.859620905E0,9.384413362E-1,-1.837742329E0,-3.715101242E0
1.869620905E0,8.099476099E-1,-1.788927078E0,-3.936305046E0
1.879620905E0,7.210491896E-1,-1.561360598E0,-4.035896778E0
1.889620905E0,2.643334866E-2,-7.129219174E-1,-3.936527252E0
1.899620905E0,-8.607876301E-1,4.243881702E-1,-3.681002140E0
1.909620905E0,-1.064722300E0,7.342884541E-1,-3.101778030E0
1.919620905E0,-8.751138449E-1,8.942856789E-1,-2.496113300E0
1.929620905E0,-8.041232228E-1,1.069584250E0,-2.048809052E0
1.939620905E0,-8.360041380E-1,1.163769960E0,-1.720327377E0
1.949620905E0,-8.939177394E-1,1.239628792E0,-1.663624287E0
1.959620905E0,-8.394990563E-1,1.314302921E0,-1.790614605E0
1.969620905E0,-5.549509525E-1,1.323708892E0,-2.019383907E0
1.979620905E0,-4.262280464E-2,1.186541319E0,-2.096726418E0
1.989620905E0,3.524230719E-1,9.237393141E-1,-2.013410568E0
1.999620905E0,5.406532288E-1,7.553299665E-1,-1.794716358E0
2.009620905E0,4.724783897E-1,7.099459171E-1,-1.429475307E0
2.019620905E0,1.698964834E-1,6.776270866E-1,-8.982601166E-1
2.029620905E0,-1.008744240E-1,6.407762766E-1,-2.129735947E-1
2.039620905E0,-2.284568399E-1,6.723921299E-1,4.895439148E-1
2.049620905E0,-1.623074859E-1,8.551919460E-1,1.175420761E0
2.059620905E0,-5.855929852E-2,1.177866340E0,1.532965660E0
2.069620905E0,-5.042071640E-2,1.540709138E0,1.372550011E0
2.079620905E0,1.655162871E-2,1.451857805E0,9.512538910E-1
2.089620905E0,3.438589871E-1,1.067500710E0,5.839672089E-1
2.099620905E0,1.709346622E-1,6.423090696E-1,3.701543808E-1
2.109620905E0,-1.957717389E-1,4.628740549E-1,4.638099670E-1
2.119620905E0,5.218223110E-2,4.440302849E-1,1.422545433E0
2.129620905E0,-8.097321987E-1,-1.083582640E-1,2.076834679E0
2.139620905E0,-6.901175976E-1,-1.484830379E-1,2.349823952E0
2.149620905E0,4.116892815E-3,3.395004272E-1,2.430451393E0
2.159620905E0,-1.174842715E-1,9.155941010E-1,2.173768044E0
2.169620905E0,-4.603428841E-1,1.089922905E0,1.452788353E0
2.179620905E0,-8.459508419E-1,6.098204851E-2,5.044002533E-1
2.189620905E0,-7.634577751E-1,-1.908423543E0,7.814884186E-2
2.199620905E0,1.112038493E-1,-2.753207445E0,1.534595490E-1
2.209620905E0,7.049620748E-1,-2.904523373E0,2.123369217E0
2.219620905E0,7.256755829E-1,-2.881329060E0,4.305770874E0
2.229620905E0,1.544821978E0,-2.301780224E0,6.339744568E0
2.239620905E0,3.236421824E0,-1.670502663E0,7.960580826E0
2.249620905E0,2.982609987E0,-1.222147703E0,9.174962044E0
2.259620905E0,2.483344078E0,-5.663494468E-1,9.105788231E0
2.269620905E0,2.668370962E0,-2.733956575E-1,7.909226418E0
2.279620905E0,3.002272606E0,-5.888717771E-1,5.446993828E0
2.289620905E0,2.408570766E0,-7.534105182E-1,2.412124634E0
2.299620905E0,1.212235332E0,-9.353758097E-1,2.526130676E-1
2.309620905E0,5.145145655E-1,-7.898499370E-1,-1.756442070E0
2.319620905E0,-2.697061896E-1,-8.835656047E-1,-3.359698296E0
2.329620905E0,-7.302922010E-1,-9.988862276E-1,-4.469712257E0
2.339620905E0,-9.305470586E-1,-8.896025419E-1,-4.724181175E0
2.349620905E0,-1.173149943E0,-6.745219231E-1,-4.216403008E0
2.359620905E0,-1.125263214E0,-6.123769879E-1,-3.239516258E0
2.369620905E0,-9.822524786E-1,-5.480769873E-1,-2.271861553E0
2.379620905E0,-9.401786327E-1,-4.104821682E-1,-1.498687744E0
2.389620905E0,-7.869277000E-1,-2.745196223E-1,-9.404745102E-1
2.399620905E0,-5.318566561E-1,-2.797333002E-1,-9.870824814E-1
2.409620905E0,-4.778816104E-1,-2.070929408E-1,-1.402289391E0
2.419620905E0,-5.176296234E-1,-1.424471140E-1,-1.926241875E0
2.429620905E0,-5.065246820E-1,-7.476550341E-2,-2.623377323E0
2.439620905E0,-4.061276317E-1,6.294757128E-2,-2.957565308E0
2.449620905E0,-5.510923862E-1,3.386368155E-1,-3.118901730E0
2.459620905E0,-4.817478061E-1,3.979489207E-1,-3.165926933E0
2.469620905E0,-3.492261171E-1,4.477512240E-1,-2.970965385E0
2.479620905E0,-3.172867596E-1,5.865861177E-1,-2.518418789E0
2.489620905E0,-1.630740762E-1,7.235789299E-1,-1.985318184E0
2.499620905E0,-6.459400058E-2,8.987966776E-1,-1.522711754E0
2.509620905E0,-1.547496319E-1,1.104429722E0,-1.093806267E0
2.519620905E0,-2.461205125E-1,1.208738089E0,-6.241798401E-1
2.529620905E0,-1.863631010E-1,1.079650402E0,-1.767234802E-1
2.539620905E0,-4.200271368E-1,9.922100306E-1,2.398834229E-1
2.549620905E0,-1.007769823E0,8.587137461E-1,4.376049042E-1
2.559620905E0,-1.156926870E0,5.735652447E-1,2.139873505E-1
2.569620905E0,-1.100419760E0,3.847413063E-1,-8.610534668E-2
2.579620905E0,-1.068747997E0,3.139035702E-1,-2.505645752E-1
2.589620905E0,-9.071991444E-1,3.167148829E-1,-3.355236053E-1
2.599620905E0,-6.203872561E-1,3.604716063E-1,-4.922800064E-1
2.609620905E0,-4.577708244E-2,4.581800699E-1,-6.661462784E-1
2.619620905E0,5.554251671E-1,5.587201118E-1,-4.439544678E-1
2.629620905E0,8.107942343E-1,6.613172293E-1,2.969551086E-1
2.639620905E0,1.008595705E0,8.537468910E-1,8.359441757E-1
2.649620905E0,9.319597483E-1,6.782094240E-1,1.128359795E0
2.659620905E0,8.865150213E-1,3.811308146E-1,1.189387321E0
2.669620905E0,5.641660690E-1,2.973315716E-1,1.166342735E0
2.679620905E0,-2.365863323E-2,2.642693520E-1,1.176856041E0
2.689620905E0,-2.165368795E-1,2.622175217E-1,1.137241364E0
2.699620905E0,2.188811898E-1,6.953465939E-1,1.030273438E0
2.709620905E0,7.479839921E-1,8.617805243E-1,1.026479721E0
2.719620905E0,1.255750418E0,2.724534273E-1,1.255682945E0
2.729620905E0,1.177276850E0,-2.609779835E-1,1.181288719E0
2.739620905E0,7.867344618E-1,-6.048350930E-1,1.135577202E0
2.749620905E0,4.153611660E-1,-9.729925394E-1,1.277915955E0
2.759620905E0,1.502648592E-1,-1.368184328E0,1.624653816E0
2.769620905E0,5.074949265E-1,-1.486715555E0,2.285442352E0
2.779620905E0,1.066748619E0,-1.311746359E0,3.012555122E0
2.789620905E0,1.447304249E0,-1.067281604E0,4.008599281E0
2.799620905E0,9.555118084E-1,-9.783587456E-1,4.735651016E0
2.809620905E0,6.840794086E-1,-1.166329980E0,4.640938759E0
2.819620905E0,7.015970945E-1,-1.173608780E0,3.933338165E0
2.829620905E0,6.220956445E-1,-8.942859769E-1,2.923285484E0
2.839620905E0,3.628304005E-1,-5.414246321E-1,1.567769051E0
2.849620905E0,5.308467150E-2,-1.368097067E-1,1.909732819E-1
2.859620905E0,-4.296800494E-1,-5.432760715E-2,-1.186241150E0
2.869620905E0,-6.741234660E-1,-4.539763927E-2,-2.503806114E0
2.879620905E0,-8.069443107E-1,-7.427518368E-1,-3.783714294E0
2.889620905E0,-4.533197880E-1,-1.375345826E0,-4.554410934E0
2.899620905E0,7.493197918E-2,-2.077516556E0,-4.676674843E0
2.909620905E0,2.980995178E-1,-2.334142208E0,-4.705310822E0
2.919620905E0,1.540055275E-1,-1.974383354E0,-4.360160828E0
2.929620905E0,9.128391743E-2,-1.761928082E0,-3.427408218E0
2.939620905E0,1.280480623E-1,-1.579663992E0,-2.193748474E0
2.949620905E0,9.754192829E-2,-1.259766936E0,-1.073670387E0
2.959620905E0,4.043221474E-3,-9.597089291E-1,-5.336332321E-1
2.969620905E0,-3.407456875E-1,-5.676486492E-1,-4.126224518E-1
2.979620905E0,-4.812262654E-1,-3.652123213E-1,-5.420141220E-1
2.989620905E0,-4.081611633E-1,-3.521890640E-1,-1.000679970E0
2.999620905E0,-2.261622548E-1,-2.707912922E-1,-1.691835880E0
3.009620905E0,-2.488011122E-1,-1.375929117E-1,-2.365036011E0
3.019620905E0,-4.084474146E-1,1.347340345E-1,-2.801933289E0
3.029620905E0,-4.380139112E-1,5.119578838E-1,-3.015743256E0
3.039620905E0,-4.361591339E-1,8.180485964E-1,-3.065210342E0
3.049620905E0,-4.138234258E-1,1.128939867E0,-2.899153709E0
3.059620905E0,-3.975493014E-1,1.450266600E0,-2.568169594E0
3.069620905E0,-3.792384863E-1,1.603626013E0,-2.132103443E0
3.079620905E0,-3.373358846E-1,1.675188303E0,-1.678792953E0
3.089620905E0,-4.570731819E-1,1.628537178E0,-1.175630569E0
3.099620905E0,-4.646418989E-1,1.380428553E0,-5.594739914E-1
3.109620905E0,-7.612010241E-1,1.329464912E0,-3.104314804E-1
3.119620905E0,-8.536959887E-1,1.355120778E0,-2.418127060E-1
3.129620905E0,-4.182407856E-1,1.317958117E0,-1.115226746E-1
3.139620905E0,-6.217786670E-2,1.308670759E0,1.777935028E-1
3.149620905E0,1.449827552E-1,1.301519513E0,6.845026016E-1
3.159620905E0,1.647614241E-1,1.339420080E0,1.262986183E0
3.169620905E0,1.756024361E-1,1.301433206E0,1.813499451E0
3.179620905E0,2.415973842E-1,1.128733993E0,2.323290825E0
3.189620905E0,2.473267317E-1,9.200129509E-1,2.555518150E0
3.199620905E0,1.198213696E-1,7.249326706E-1,2.491941452E0
3.209620905E0,1.048650146E-1,5.400809050E-1,2.194708824E0
3.219620905E0,5.540406704E-2,3.598016500E-1,1.924720764E0
3.229620905E0,4.981243610E-2,1.080268621E-1,1.796119690E0
3.239620905E0,3.518806100E-1,2.216997147E-1,1.883442879E0
3.249620905E0,4.667440057E-1,1.020918369E0,1.926894188E0
3.259620905E0,1.681610346E-1,1.604068041E0,1.964055061E0
3.269620905E0,-2.541173697E-1,1.003326058E0,1.711418152E0
3.279620905E0,-5.690388680E-1,-1.423162222E-1,1.033849716E0
3.289620905E0,-7.098300457E-1,-9.708410501E-1,3.668661118E-1
3.299620905E0,-1.037095070E0,-1.670114517E0,3.733272552E-1
3.309620905E0,-1.212429047E0,-2.040723085E0,9.642133713E-1
3.319620905E0,-1.147644520E0,-2.229947567E0,2.037395477E0
3.329620905E0,-1.283464074E0,-2.143631458E0,3.373393059E0
3.339620905E0,-1.205920339E0,-1.644815922E0,4.934240341E0
3.349620905E0,-6.518023610E-1,-1.109479666E0,5.981951714E0
3.359620905E0,-2.306020260E-2,-1.192760587E0,6.060465813E0
3.369620905E0,2.927864790E-1,-1.341651440E0,5.260398865E0
3.379620905E0,-2.580240965E-1,-1.269453764E0,3.895005226E0
3.389620905E0,-1.873186827E-1,-1.452024102E0,2.039984703E0
3.399620905E0,-2.749119997E-1,-1.510511398E0,3.504171371E-1
3.409620905E0,-3.055635095E-1,-1.311965466E0,-9.633979797E-1
3.419620905E0,-3.059332371E-1,-1.226548553E0,-1.797897816E0
3.429620905E0,-3.865914643E-1,-1.162904620E0,-2.638289452E0
3.439620905E0,-6.879495382E-1,-9.050526619E-1,-3.556695938E0
3.449620905E0,-6.514875293E-1,-6.324450970E-1,-4.374682426E0
3.459620905E0,-6.165932417E-1,-5.847496986E-1,-4.725295067E0
3.469620905E0,-5.723628998E-1,-5.586587191E-1,-4.448784351E0
3.479620905E0,-4.020167291E-1,-3.544675112E-1,-3.822481155E0
3.489620905E0,-4.220136106E-1,-8.517253399E-2,-2.910668373E0
3.499620905E0,-4.233160615E-1,1.735582352E-1,-1.911722183E0
3.509620905E0,-3.732229769E-1,2.975437641E-1,-1.360619545E0
3.519620905E0,-1.932575107E-1,2.587633133E-1,-1.232640266E0
3.529620905E0,-1.393058002E-1,2.325151563E-1,-1.475590706E0
3.539620905E0,-1.224840581E-1,2.062802315E-1,-1.983033180E0
3.549620905E0,-1.459174454E-1,1.868841052E-1,-2.312617302E0
3.559620905E0,-1.072140932E-1,2.127617598E-1,-2.312918663E0
3.569620905E0,1.397917867E-1,2.778513432E-1,-2.182362556E0
3.579620905E0,2.261501551E-1,2.918168306E-1,-1.896204948E0
3.589620905E0,1.745089293E-1,4.012143612E-1,-1.785100937E0
3.599620905E0,-1.228100061E-2,4.625166655E-1,-1.932518959E0
3.609620905E0,-1.280137599E-1,5.164743662E-1,-2.263561249E0
3.619620905E0,-2.067477703E-1,6.806213856E-1,-2.566839695E0
3.629620905E0,-1.938555539E-1,8.591274023E-1,-2.478982925E0
3.639620905E0,-2.393621206E-1,9.921956062E-1,-1.930404186E0
3.649620905E0,-2.162883282E-1,1.108740091E0,-1.020646095E0
3.659620905E0,-1.701965332E-1,1.110042095E0,9.872341156E-2
3.669620905E0,-3.648847342E-2,1.081257820E0,1.223785400E0
3.679620905E0,3.216242790E-2,1.201842785E0,2.077544212E0
3.689620905E0,2.407467365E-2,1.301594377E0,2.544775963E0
3.699620905E0,-2.534246445E-2,1.303080201E0,2.448063850E0
3.709620905E0,1.370761991E-1,1.155122161E0,2.014293671E0
3.719620905E0,3.923882842E-1,1.018119216E0,1.574838638E0
3.729620905E0,3.741574287E-1,9.942681789E-1,1.488204002E0
3.739620905E0,3.101227283E-1,9.524741173E-1,1.776957512E0
3.749620905E0,5.858004093E-3,8.008770943E-1,2.093747139E0
3.759620905E0,-3.061383665E-1,6.584429741E-1,2.375024796E0
3.769620905E0,-6.058264971E-1,3.901847601E-1,2.552845001E0
3.779620905E0,-6.176000834E-1,3.724703789E-1,2.561276436E0
3.789620905E0,-2.986848354E-1,8.199020624E-1,2.221456528E0
3.799620905E0,-4.604038596E-2,7.879431248E-1,1.772395134E0
3.809620905E0,7.268892527E-1,2.902045250E-1,2.106096268E0
3.819620905E0,1.013986111E0,-1.231813431E-1,1.773081779E0
3.829620905E0,6.994341016E-1,-1.842235327E-1,1.348880768E0
3.839620905E0,2.098483443E-1,-6.146818995E-1,1.180406570E0
3.849620905E0,6.101807356E-1,-7.523887157E-1,1.786725044E0
3.859620905E0,2.456666231E-1,-3.405566216E-1,2.772433281E0
3.869620905E0,1.803281903E-2,-1.834091544E-1,4.263326645E0
3.879620905E0,-7.269867063E-1,-3.742185831E-1,5.430076599E0
3.889620905E0,-1.190652013E0,-2.943313122E-1,5.464218140E0
3.899620905E0,-1.111621261E0,-2.151989937E-2,4.887952805E0
3.909620905E0,-1.022738695E0,1.031324863E-1,3.894782066E0
3.919620905E0,-9.830011129E-1,1.228909492E-1,2.875013351E0
3.929620905E0,-1.171741962E0,3.830754757E-2,1.786263466E0
3.939620905E0,-1.439910531E0,1.893448830E-2,5.912904739E-1
3.949620905E0,-1.695865750E0,-1.330130100E-1,-6.387691498E-1
3.959620905E0,-1.168505192E0,-7.536720634E-1,-1.528454781E0
3.969620905E0,2.462009192E-1,-1.662430763E0,-2.589759827E0
3.979620905E0,1.124471426E0,-2.180278540E0,-3.399257660E0
3.989620905E0,2.034764290E0,-2.762835979E0,-3.809285164E0
3.999620905E0,2.607489109E0,-3.038884878E0,-3.715784073E0
4.009620905E0,2.438680410E0,-3.140009642E0,-3.175734520E0
4.019620905E0,1.769666195E0,-2.917888403E0,-2.574095726E0
4.029620905E0,1.146685839E0,-2.697727680E0,-2.012689590E0
4.039620905E0,7.406544685E-1,-2.226861954E0,-1.653999329E0
4.049620905E0,3.076276779E-1,-1.624021649E0,-1.640870094E0
4.059620905E0,-1.754791141E-1,-1.045579672E0,-1.945075035E0
4.069620905E0,-5.182422400E-1,-4.406356812E-1,-2.438072205E0
4.079620905E0,-2.864025831E-1,-1.810249090E-1,-2.902737617E0
4.089620905E0,-2.233669460E-1,4.972743988E-2,-3.240279198E0
4.099620905E0,-1.219424009E-1,1.286835670E-1,-3.300134659E0
4.109620905E0,-8.288067579E-2,1.952774525E-1,-3.053504944E0
4.119620905E0,-3.278255463E-7,3.046833277E-1,-2.622687340E0
4.129620905E0,3.748598695E-2,4.080677032E-1,-2.140705585E0
4.139620905E0,-2.339212596E-2,4.686938524E-1,-1.759497643E0
4.149620905E0,-9.180867672E-2,4.683301449E-1,-1.691072464E0
4.159620905E0,-5.244317055E-1,6.233565807E-1,-1.934326172E0
4.169620905E0,-8.602988720E-1,8.307526112E-1,-2.338452339E0
4.179620905E0,-8.317953348E-1,8.655080795E-1,-2.617449284E0
4.189620905E0,-5.467901230E-1,6.613163948E-1,-2.558748245E0
4.199620905E0,-4.178704619E-1,4.898324013E-1,-2.212221146E0
4.209620905E0,-3.309147954E-1,5.467618704E-1,-1.690483093E0
4.219620905E0,-1.900105476E-1,6.740809679E-1,-9.560937881E-1
4.229620905E0,-2.417179197E-1,7.151665688E-1,-2.656955719E-1
4.239620905E0,-5.671687052E-2,6.915776730E-1,3.112258911E-1
4.249620905E0,2.108769417E-1,7.353165150E-1,8.077249527E-1
4.259620905E0,4.304168224E-1,9.031560421E-1,1.097450256E0
4.269620905E0,6.293276548E-1,1.047733545E0,1.012081146E0
4.279620905E0,6.509037018E-1,1.182968140E0,8.676671982E-1
4.289620905E0,7.205970883E-1,1.182493091E0,7.399063110E-1
4.299620905E0,8.929517865E-1,1.062788367E0,7.923393250E-1
4.309620905E0,8.493244648E-1,9.871402979E-1,9.504823685E-1
4.319620905E0,5.116733313E-1,9.660553932E-1,1.019633293E0
4.329620905E0,5.600562096E-1,7.934424877E-1,1.146845818E0
4.339620905E0,5.774347186E-1,5.714808702E-1,1.329480171E0
4.349620905E0,5.462719202E-1,5.946866274E-1,1.754747391E0
4.359620905E0,6.888182163E-1,9.731552601E-1,1.686340332E0
4.369620905E0,6.757487059E-1,1.660806060E0,1.243901253E0
4.379620905E0,-1.381358057E-1,1.449860334E0,5.908794403E-1
4.389620905E0,-1.374753118E0,2.435479164E-1,-4.742994308E-1
4.399620905E0,-1.737731218E0,-9.209322929E-1,-6.588745117E-1
4.409620905E0,-1.652573824E0,-1.936494350E0,8.646144867E-1
4.419620905E0,-1.289864063E0,-2.626928329E0,2.892303467E0
4.429620905E0,-8.591657877E-1,-2.824950695E0,4.368620872E0
4.439620905E0,-1.763920188E-1,-2.680543900E0,5.680159569E0
4.449620905E0,8.957146406E-1,-2.232132912E0,6.823380470E0
4.459620905E0,1.008089304E0,-1.492640972E0,7.223739624E0
4.469620905E0,8.267679811E-1,-9.494971037E-1,6.913100243E0
4.479620905E0,9.080473185E-1,-8.413285017E-1,5.645492554E0
4.489620905E0,7.571800947E-1,-8.121457696E-1,3.614590645E0
4.499620905E0,2.628891468E-1,-8.146667480E-1,1.531575203E0
4.509620905E0,-3.170841932E-2,-9.048235416E-1,-2.784452438E-1
4.519620905E0,-1.160910130E-1,-1.137364745E0,-1.720787048E0
4.529620905E0,-2.241335213E-1,-1.267723799E0,-2.699230194E0
4.539620905E0,-3.224427104E-1,-1.100924253E0,-2.994695663E0
4.549620905E0,-5.941438079E-1,-8.083895445E-1,-2.917335510E0
4.559620905E0,-9.869778752E-1,-5.375081301E-1,-2.936554432E0
4.569620905E0,-8.413400650E-1,-2.645812035E-1,-3.037446022E0
4.579620905E0,-6.906938553E-1,-2.198400497E-1,-3.016160011E0
4.589620905E0,-7.598257065E-1,-1.978834867E-1,-2.789794445E0
4.599620905E0,-8.717418909E-1,-6.249952316E-2,-2.436587811E0
4.670579634E0,0.000000000E0,0.000000000E0,0.000000000E0
4.681514009E0,6.819367409E-3,-1.748552322E-1,-1.654844284E-1
4.692448384E0,8.035480976E-3,-2.784078121E-1,5.758953094E-1
4.703382812E0,-4.898607731E-2,-3.965413570E-1,1.608411789E0
4.714317187E0,9.339594841E-2,-7.201168537E-1,1.765400887E0
4.725251562E0,1.580255032E-1,-9.142837524E-1,1.544083595E0
4.736185989E0,-2.447855473E-2,-8.155043125E-1,9.375877380E-1
4.747120364E0,2.406411171E-1,-3.550598621E-1,8.866100311E-1
4.758054739E0,-3.186684251E-1,-4.062607288E-1,2.734107971E-1
4.768989114E0,-4.930369854E-1,-6.629530191E-1,-9.430789948E-2
4.779923489E0,-5.805956721E-1,-7.253121138E-1,-4.460296631E-1
4.790857916E0,-1.089707017E0,-5.441863537E-1,-1.084670067E0
4.801792291E0,-1.608179927E0,-4.114952087E-1,-1.501379013E0
4.812726666E0,-1.607902884E0,-2.102081776E-1,-2.100298882E0
4.823661041E0,-1.596120238E0,6.301903725E-2,-3.074291229E0
4.834595468E0,-1.190309167E0,3.579070568E-1,-3.793343544E0
4.845529843E0,-1.173373222E0,3.606882095E-1,-4.364371777E0
4.856464218E0,-1.163317442E0,3.287782669E-1,-3.813386917E0
4.867398593E0,-1.522509456E0,9.087371826E-2,-2.969689846E0
4.878333020E0,-1.440847993E0,1.166801453E-1,-2.044283390E0
4.889267395E0,-1.302283287E0,5.701708794E-2,-1.056812286E0
4.900201770E0,-9.891766310E-1,2.110178471E-1,-1.173457146E0
4.911136145E0,-3.882259727E-1,3.025631905E-1,-1.575966835E0
4.922070572E0,6.421372294E-3,1.377677917E-2,-1.186446190E0
4.933004947E0,-4.807206243E-2,1.201757193E-1,-1.357595921E0
4.943939322E0,-1.673272252E-1,-1.130104065E-2,-1.558850288E0
4.954873697E0,-1.568236649E-1,-3.864526749E-2,-1.829408169E0
4.965808072E0,1.665204167E-1,-1.500874758E-1,-2.368878841E0
4.976742499E0,1.232049242E-1,-2.668660879E-1,-2.506841660E0
4.987676874E0,5.075886846E-1,-3.753590584E-1,-1.855983734E0
4.998611249E0,7.584129572E-1,-3.835223913E-1,-1.516014099E0
5.009545624E0,6.311092973E-1,-2.697181702E-2,-1.444286346E0
5.020480051E0,5.124322176E-1,3.182426691E-1,-1.228332520E0
5.031414426E0,3.169178963E-1,4.740579128E-1,-7.012486458E-1
5.042348801E0,5.389128625E-2,6.441173553E-1,-6.360216141E-1
5.053283176E0,2.759487927E-2,6.427071095E-1,-4.371232986E-1
5.064217603E0,-5.509753227E-1,9.742019176E-1,-1.591300964E-2
5.075151978E0,-1.531582713E0,1.461915374E0,7.732505798E-1
5.086086353E0,-1.561629891E0,1.552978516E0,1.898612022E0
5.097020728E0,-1.455335617E0,1.481531739E0,3.286317825E0
5.107955103E0,-9.965331554E-1,1.018092036E0,3.474802017E0
5.118889530E0,-8.606076241E-2,7.627363205E-1,3.434003830E0
5.129823905E0,4.155797064E-1,7.522398233E-1,3.185376167E0
5.140758280E0,3.594468236E-1,6.519894600E-1,2.904521942E0
5.151692655E0,3.945528567E-1,4.778324366E-1,2.475522995E0
5.162627030E0,4.603075087E-1,3.825364113E-1,1.978687286E0
5.173561457E0,3.801949918E-1,-1.823270321E-2,1.304952621E0
5.184495832E0,8.401828408E-1,-4.947955608E-1,8.441562653E-1
5.195430207E0,1.769252181E0,-6.519454718E-1,6.936988831E-1
5.206364634E0,2.126552820E0,8.219122887E-2,3.966302872E-1
5.217299009E0,1.851201773E0,2.708241940E-1,1.317720413E-1
5.228233384E0,9.921002388E-1,-9.269428253E-2,7.256069183E-1
5.239167759E0,-1.398273468E0,-1.024855852E0,2.045659065E0
5.250102134E0,-1.798418999E0,-1.256155968E0,2.886415482E0
5.261036509E0,-1.852812290E0,-1.292273164E0,3.000776291E0
5.271970937E0,-1.698075771E0,-1.031179905E0,3.378376007E0
5.282905312E0,-1.853396058E0,-1.411727309E0,3.633309364E0
5.293839687E0,-4.453611672E-1,-1.774315000E0,3.998328209E0
5.304774114E0,1.739387631E0,-2.068440437E0,3.843307495E0
5.315708489E0,2.933803082E0,-2.348795176E0,3.011791229E0
5.326642864E0,2.180909395E0,-2.345057011E0,2.018589973E0
5.337577239E0,-5.013765097E-1,-9.732112288E-1,1.108588219E0
5.348511614E0,-1.175202131E0,-5.670187473E-1,4.068269730E-1
5.359446041E0,-1.764384866E0,-5.670667291E-1,-2.714538574E-1
5.370380416E0,-2.127550840E0,-6.036456823E-1,-5.328283310E-1
5.381314791E0,-1.643661261E0,-6.777625084E-1,-7.692403793E-1
5.392249166E0,-8.460443020E-1,-8.597891331E-1,-9.744625092E-1
5.403183541E0,-2.078529894E-1,-8.265517354E-1,-1.534550667E0
5.414117968E0,2.127006650E-2,1.831817627E-2,-1.982089996E0
5.425052343E0,8.708295226E-2,2.686818838E-1,-2.618805885E0
5.435986718E0,5.503506064E-1,3.731580973E-1,-3.325679779E0
5.446921093E0,6.557782888E-1,2.119516134E-1,-3.656466961E0
5.457855468E0,3.961653709E-1,1.676487923E-1,-3.894705772E0
5.468789895E0,-1.491898298E-2,2.578822374E-1,-4.238616943E0
5.479724270E0,1.344586909E-1,3.690840006E-1,-4.683212280E0
5.490658645E0,1.891586781E-1,3.369052410E-1,-4.736875534E0
5.501593020E0,6.756198406E-2,2.434687614E-1,-4.202889442E0
5.512527395E0,2.539705932E-1,9.787702560E-2,-3.547036648E0
5.523461822E0,2.900552750E-1,1.415575743E-1,-2.580177784E0
5.534396197E0,-2.265847325E-1,2.821030617E-1,-1.523382187E0
5.545330572E0,-3.620954752E-1,3.794586658E-1,-1.067445755E0
5.556264947E0,6.919795275E-2,3.918136358E-1,-1.141088963E0
5.567199374E0,1.511547565E-1,4.290077686E-1,-1.299026012E0
5.578133749E0,-2.980133295E-1,5.495436192E-1,-1.241719723E0
5.589068124E0,-3.391584158E-1,7.939679623E-1,-1.558501244E0
5.600002499E0,-1.857422590E-1,8.653495312E-1,-1.578912735E0
5.610936874E0,-2.858448029E-2,8.742237091E-1,-1.101240158E0
5.621871249E0,2.702516317E-1,8.743715286E-1,5.353355408E-2
5.632805676E0,1.757663488E-1,1.153442621E0,1.808041573E0
5.643740051E0,-5.099451542E-1,1.596190691E0,3.355528831E0
5.654674426E0,-7.608618736E-1,1.948178768E0,4.290332794E0
5.665608801E0,-6.805214882E-1,1.813422203E0,4.045172691E0
5.676543228E0,-7.479735613E-1,1.574345827E0,3.024950027E0
5.687477603E0,-5.745245218E-1,1.414753914E0,1.741578102E0
5.698411978E0,2.193071842E-1,1.323315620E0,9.708929062E-1
5.709346353E0,4.314084053E-1,8.677740097E-1,1.059126854E0
5.720280780E0,2.158309221E-1,3.909277916E-1,1.590036392E0
5.731215155E0,-3.428882360E-1,3.459887505E-1,2.050901413E0
5.742149530E0,-6.876487732E-1,5.252194405E-1,2.354865074E0
5.753083905E0,-1.438152790E-2,9.157736301E-1,2.033528328E0
5.764018280E0,7.251324654E-1,8.504703045E-1,1.694763184E0
5.774952655E0,1.120709658E0,4.513661861E-1,1.860593796E0
5.785887030E0,1.279064417E0,1.370213032E-1,1.825843811E0
5.796821457E0,1.182931304E0,-4.034645557E-1,1.929325104E0
5.807755832E0,1.145508766E0,-8.516575098E-1,2.562558174E0
5.818690207E0,1.158591986E0,-8.604085445E-1,3.516049385E0
5.829624530E0,8.804925680E-1,-7.406784296E-1,3.929504395E0
5.840558957E0,8.246656656E-1,-5.975291729E-1,3.794293404E0
5.851493384E0,1.010419130E0,-4.082369804E-1,3.596137047E0
5.862427759E0,1.325644851E-1,-6.176332235E-1,3.134954453E0
5.873362134E0,-8.748719692E-1,-4.860534668E-1,2.214704514E0
5.884296509E0,-1.076675296E0,-1.068639755E-2,1.544710159E0
5.895230884E0,-1.646030664E0,3.326051235E-1,5.056505203E-1
5.906165312E0,-1.874822736E0,4.142634869E-1,-5.355119705E-1
5.917099687E0,-1.412817597E0,2.206482887E-1,-1.280312538E0
5.928034062E0,-6.331277490E-1,-6.232500076E-3,-1.851680279E0
5.938968437E0,2.051171958E-1,-5.793852806E-1,-2.587857246E0
5.949902812E0,8.634257913E-1,-1.253008723E0,-3.236926079E0
5.960837239E0,1.304992557E0,-1.842287898E0,-3.069558620E0
5.971771614E0,1.527879953E0,-2.219858885E0,-2.587190151E0
5.982705989E0,1.203531623E0,-2.472487450E0,-1.962610722E0
5.993640364E0,1.278062105E0,-2.487069368E0,-1.228060722E0
6.004574739E0,1.421815991E0,-1.992219687E0,-7.971401215E-1
6.015509166E0,8.791792393E-1,-1.405264497E0,-1.209333420E0
6.026443541E0,6.525696516E-1,-1.079047918E0,-1.757497311E0
6.037377916E0,5.915840864E-1,-7.152714729E-1,-2.433480740E0
6.048312291E0,6.056166887E-1,-4.404809475E-1,-3.044665813E0
6.059246666E0,6.176978350E-1,-2.108583450E-1,-3.637311459E0
6.070181041E0,3.616116941E-1,1.344547272E-1,-4.031908035E0
6.081115468E0,2.259421349E-2,4.110407829E-1,-4.039729595E0
6.092049843E0,1.489775777E-1,6.741697788E-1,-3.611077309E0
6.102984218E0,3.559825420E-1,8.369743824E-1,-3.197144508E0
6.113918593E0,5.033808947E-1,1.006944180E0,-2.927995682E0
6.124852968E0,3.501003385E-1,1.103355408E0,-2.704051018E0
6.135787343E0,1.783784628E-1,1.119287729E0,-2.873803616E0
6.146721718E0,1.214787960E-1,9.532370567E-1,-2.810043335E0
6.157656145E0,2.197915316E-2,8.927018642E-1,-2.619065762E0
6.168590520E0,-1.996246576E-1,1.005522013E0,-2.784432411E0
6.179524895E0,-3.629952669E-1,1.169704914E0,-2.685821056E0
6.190459270E0,-3.042361736E-1,1.214287758E0,-1.887431622E0
6.201393645E0,-2.883055210E-1,1.111469507E0,-1.060495853E0
6.212328072E0,-4.795863628E-1,9.356520176E-1,-3.145046234E-1
6.223262447E0,-6.270715594E-1,7.676084042E-1,7.288389206E-1
6.234196822E0,-8.754059076E-1,6.310055256E-1,1.375712395E0
6.245131197E0,-1.122840405E0,9.813525677E-1,1.658403397E0
6.256065572E0,-1.192267537E0,1.086760759E0,1.765191078E0
6.266999947E0,-9.293881059E-1,8.069744110E-1,1.465961456E0
6.277934374E0,-4.918873906E-1,5.159671307E-1,1.042462349E0
6.288868749E0,2.723299861E-1,3.841366768E-1,1.086992264E0
6.299803124E0,1.208174944E0,9.003119469E-1,1.672415733E0
6.310737499E0,1.579588890E0,1.608556509E0,1.853803635E0
6.321671874E0,8.174941540E-1,1.478491068E0,1.951743126E0
6.332606301E0,-9.471025467E-1,3.804123402E-1,2.486538887E0
6.343540676E0,-1.983135343E0,-2.041530609E-1,3.335872650E0
6.354475051E0,-2.177421331E0,-5.326321125E-1,4.885032654E0
6.365409426E0,-1.342235923E0,-8.774561286E-1,6.556074142E0
6.376343801E0,-5.562438965E-1,-1.006141901E0,7.905540466E0
6.387278176E0,-2.458040714E-1,-9.231088758E-1,8.584638596E0
6.398212551E0,-1.353067160E-1,-7.083333731E-1,8.139870644E0
6.409146978E0,2.901828289E-2,-8.128324747E-1,6.487017632E0
6.420081353E0,2.718439102E-1,-8.106200099E-1,3.536364555E0
6.431015728E0,4.583641291E-1,-7.141286731E-1,8.517932892E-1
6.441950103E0,1.858921051E-1,-5.523861647E-1,-8.819408417E-1
6.452884530E0,-2.604866028E-2,-4.109847546E-1,-1.712037086E0
6.463818905E0,-6.870269775E-3,-3.250178099E-1,-1.845472813E0
6.474753228E0,-3.646004200E-2,-3.011931181E-1,-1.620567799E0
6.485687655E0,-1.299465895E-1,-2.518167496E-1,-1.201289177E0
6.496622030E0,-1.830410957E-1,-3.674805164E-2,-8.050422668E-1
6.507556405E0,-9.999632835E-2,1.264066696E-1,-7.722787857E-1
6.518490780E0,2.705515623E-1,7.510209084E-2,-9.770212173E-1
6.529425207E0,6.207271218E-1,1.652595997E-1,-1.368307114E0
6.540359582E0,7.591242194E-1,2.689191103E-1,-1.794514656E0
6.551293957E0,6.981208324E-1,3.117669821E-1,-2.348747253E0
6.562228332E0,8.923058510E-1,1.103429794E-1,-2.923654556E0
6.573162707E0,8.682416081E-1,2.584012747E-1,-3.459287643E0
6.584097082E0,7.360235453E-1,3.383225203E-1,-3.745119095E0
6.595031457E0,3.873102665E-1,4.623637199E-1,-3.899269104E0
6.605965884E0,1.430488825E-1,9.284186363E-1,-3.401054859E0
6.616900259E0,-3.079550266E-1,1.217418909E0,-3.282000542E0
6.627834634E0,-1.999319792E-1,1.534220219E0,-2.378592014E0
6.638769009E0,-5.407296419E-1,1.653099060E0,-1.780449867E0
6.649703384E0,-5.140945911E-1,1.718011379E0,-9.467554092E-1
6.660637759E0,-9.500566721E-1,1.500713587E0,-6.064414978E-3
6.671572187E0,-1.332929730E0,1.380647182E0,1.051200867E0
6.682506562E0,-1.517337441E0,1.207507849E0,1.922972679E0
6.693440937E0,-1.910437465E0,1.135459661E0,2.324438095E0
6.704375312E0,-2.000183344E0,1.240037441E0,2.508219719E0
6.715309687E0,-1.947231770E0,1.247739315E0,2.415006638E0
6.726244062E0,-1.720986485E0,1.031700134E0,1.854341507E0
6.737178489E0,-1.140697837E0,6.859960556E-1,1.181314468E0
6.748112864E0,-7.336393595E-1,2.212433815E-1,6.694650650E-1
6.759047239E0,-5.602073669E-1,-1.974115372E-1,4.325494766E-1
6.769981614E0,-5.370655060E-1,-4.678969383E-1,5.160551071E-1
6.780915989E0,-5.208481550E-1,-7.702198029E-1,3.551139832E-1
6.791850364E0,-4.051176310E-1,-8.484249115E-1,3.044309616E-1
6.802784791E0,-3.494298458E-1,-8.791511059E-1,2.640371323E-1
6.813719166E0,-3.083236217E-1,-8.881740570E-1,1.053380966E-1
6.824653541E0,2.125507593E-2,-5.870435238E-1,-1.885108948E-1
6.835587916E0,9.994913936E-1,-3.909046650E-1,-7.509641647E-1
6.846522291E0,2.036356449E0,-6.939005852E-1,-8.187303543E-1
6.857456666E0,1.798530340E0,-1.149036765E0,-9.109249115E-1
6.868391041E0,6.136088967E-1,-1.822600126E0,-1.278799057E0
6.879325468E0,2.133518457E-1,-2.314415455E0,-4.217042923E-1
6.890259843E0,4.612096846E-1,-2.352486372E0,1.370035172E0
6.901194218E0,7.613713741E-1,-2.148170710E0,2.529607773E0
6.912128593E0,1.720214009E0,-1.578306437E0,2.454896927E0
6.923062968E0,2.491925001E0,-1.099614143E0,3.268622398E0
6.933997343E0,1.606803179E0,-1.068400025E0,3.180829048E0
6.944931718E0,1.408614635E0,-8.707718849E-1,3.424583435E0
6.955866145E0,7.169684172E-1,-6.173963547E-1,3.478081703E0
6.966800520E0,-1.078676581E-1,-2.965550423E-1,2.735063553E0
6.977734895E0,-2.460249066E-1,-2.978682518E-2,1.555179596E0
6.988669270E0,-1.742447317E-1,-1.491670609E-1,1.559677124E-1
6.999603645E0,-2.348479629E-1,-5.550861359E-2,-1.273206711E0
7.010538020E0,-4.229257703E-1,2.679183483E-1,-2.180449009E0
7.021472447E0,-4.909623563E-1,4.287729263E-1,-2.437302589E0
7.032406822E0,-8.147375584E-1,1.609597206E-1,-2.476779461E0
7.043341197E0,-1.101737380E0,-3.136239052E-1,-2.354117393E0
7.054275572E0,-9.351257682E-1,-5.576039553E-1,-2.101707458E0
7.065209947E0,-7.099881172E-1,-5.568833351E-1,-1.772145271E0
7.076144322E0,-2.440977842E-1,-5.190167427E-1,-1.621603966E0
7.087078697E0,3.425049484E-1,-5.483829975E-1,-1.827685833E0
7.098013124E0,6.010367870E-1,-4.223337173E-1,-2.334994793E0
7.108947499E0,6.374610662E-1,-2.583899498E-1,-2.732429981E0
7.119881874E0,5.906114578E-1,-2.063670158E-1,-3.022690296E0
7.130816249E0,3.164479733E-1,-1.210613251E-1,-3.361439228E0
7.141750624E0,2.021990716E-1,1.878695488E-1,-3.636923790E0
7.152684999E0,-2.274423838E-3,3.207094669E-1,-3.972641468E0
7.163619374E0,-4.371988773E-2,5.392868519E-1,-4.142741680E0
7.174553801E0,3.123550117E-1,6.775934696E-1,-3.975938797E0
7.185488176E0,5.153434873E-1,6.853818893E-1,-3.686084270E0
7.196422551E0,9.113895893E-2,8.611099720E-1,-3.196938038E0
7.207356926E0,-5.091810822E-1,1.237056017E0,-2.605499268E0
7.218291301E0,-9.386031628E-1,1.566576481E0,-1.988830566E0
7.229225676E0,-1.308289051E0,1.833824873E0,-1.357389927E0
7.240160051E0,-1.426117659E0,1.875936508E0,-5.391769409E-1
7.251094426E0,-1.454488516E0,1.757225275E0,1.722583771E-1
7.262028853E0,-1.496335864E0,1.773378849E0,9.098997116E-1
7.272963228E0,-1.613737702E0,1.613728762E0,1.301096916E0
7.283897603E0,-1.472783566E0,1.222620487E0,1.429283142E0
7.294831978E0,-8.783265948E-1,7.664277554E-1,1.653744698E0
7.305766353E0,-6.026269197E-1,5.042908192E-1,2.361458778E0
7.316700728E0,-2.546499372E-1,3.997983932E-1,2.820673943E0
7.327635103E0,-2.188130617E-1,5.482723713E-1,2.660161018E0
7.338569478E0,-2.263984382E-1,4.710829258E-1,2.210670471E0
7.349503905E0,6.141884327E-1,2.843160629E-1,1.997879982E0
7.360438280E0,1.216319084E0,4.213460684E-1,1.940641403E0
7.371372655E0,1.841611981E0,8.305621147E-1,2.459461212E0
7.382307030E0,1.951005757E-1,4.023611546E-1,3.068468094E0
7.393241405E0,-1.743055820E0,-5.297003984E-1,3.403215408E0
7.404175832E0,-2.134708643E0,-1.319079757E0,3.828940392E0
7.415110207E0,-1.695652008E0,-1.890333772E0,4.611681938E0
7.426044582E0,-6.621376872E-1,-1.761121631E0,5.345495224E0
7.436978957E0,2.370882630E-1,-1.722750187E0,5.506261826E0
7.447913332E0,9.085866213E-1,-1.876608133E0,5.172181129E0
7.458847707E0,2.089415789E0,-1.862265706E0,5.116268158E0
7.469782082E0,2.623068810E0,-1.684861422E0,4.735268593E0
7.480716509E0,1.570478559E0,-1.669119477E0,2.935823441E0
7.491650832E0,1.150957823E0,-1.354066849E0,6.341419220E-1
7.502585259E0,5.816692710E-1,-7.987656593E-1,-9.009008408E-1
7.513519634E0,-1.883049607E-1,-5.607614517E-1,-2.550322533E0
7.524454009E0,-3.892308474E-1,-2.268698215E-1,-3.338977337E0
7.535388384E0,-5.823220611E-1,-4.306793213E-2,-3.237033844E0
7.546322759E0,-5.183292627E-1,1.563682556E-1,-2.752284050E0
7.557257134E0,-3.794351816E-1,1.255409718E-1,-2.432662010E0
7.568191562E0,-4.889633656E-1,3.803062439E-2,-2.544791222E0
7.579125937E0,-3.641021252E-2,-2.184287310E-1,-3.227320671E0
7.590060312E0,6.508865356E-1,-4.290086031E-1,-3.896154881E0
7.600994687E0,8.214161992E-1,-6.054461002E-1,-4.313942909E0
7.611929062E0,5.837829113E-1,-5.842490196E-1,-4.038769722E0
7.622863437E0,4.256600142E-1,-2.038178444E-1,-3.312681675E0
7.633797812E0,2.769041061E-1,3.587085009E-1,-2.709978104E0
7.644732187E0,9.343504906E-3,6.970049143E-1,-2.427092552E0
7.655666614E0,-6.456609964E-1,9.055314064E-1,-2.269642353E0
7.666600937E0,-1.275459409E0,1.001501679E0,-1.868597031E0
7.677535364E0,-1.555409789E0,6.154160500E-1,-1.440365314E0
7.688469739E0,-1.077420354E0,4.764734507E-1,-9.503917694E-1
7.699404114E0,1.544734240E-1,1.167922616E0,-1.382967949E0
7.710338489E0,7.810013294E-1,1.339314103E0,-1.441470146E0
7.721272864E0,1.171640635E0,1.001207113E0,-1.196443558E0
7.732207239E0,1.692624092E0,6.702492237E-1,-7.895669937E-1
7.743141666E0,1.894547939E0,1.043700814E0,-5.838632584E-1
7.754076041E0,1.684819698E0,1.579363227E0,-4.338121414E-1
7.765010416E0,1.606739998E0,1.660870314E0,-1.060838699E-1
7.775944791E0,1.443985343E0,1.355879903E0,4.133138657E-1
7.786879166E0,1.209589958E0,8.337638378E-1,9.280796051E-1
7.797813541E0,9.906859994E-1,2.495582104E-1,1.326777458E0
7.808747916E0,5.946664810E-1,-2.047762275E-1,1.551490784E0
7.819682291E0,2.308562994E-1,-7.271999121E-1,1.631883621E0
7.830616718E0,-2.010776997E-1,-1.084033728E0,1.831213951E0
7.841551093E0,-6.749131680E-1,-1.254265547E0,2.327389717E0
7.852485468E0,-1.338128567E0,-1.091820717E0,3.142528534E0
7.863419843E0,-1.762003660E0,-8.369058371E-1,3.560597420E0
7.874354218E0,-1.800691605E0,-5.723853111E-1,3.640186310E0
7.885288593E0,-1.359411955E0,-3.349038959E-1,3.451128006E0
7.896222968E0,-1.657578945E-1,-4.970281422E-1,2.963255882E0
7.907157343E0,8.962181807E-1,-7.474216819E-1,2.454808235E0
7.918091770E0,1.100511074E0,-7.455912828E-1,2.054067612E0
7.929026145E0,8.349956274E-1,-7.345474958E-1,1.646396637E0
7.939960520E0,3.548491001E-1,-9.430384040E-1,1.322551727E0
7.950894895E0,-1.662433147E-1,-1.195422173E0,9.593029022E-1
7.961829270E0,-5.187385082E-1,-1.366290808E0,7.359094620E-1
7.972763645E0,-7.185673714E-1,-1.375335336E0,6.870260239E-1
7.983698020E0,-5.245978832E-1,-1.339759111E0,9.432582855E-1
7.994632395E0,-1.364459991E-1,-1.363970637E0,1.170909882E0
8.005566822E0,1.981680393E-1,-1.207295537E0,1.251071930E0
8.016501197E0,3.680957556E-1,-9.239615798E-1,1.168602943E0
8.027435572E0,7.052011490E-1,-7.643826008E-1,9.036836624E-1
8.038369947E0,1.073409796E0,-6.071335673E-1,4.349374771E-1
8.049304322E0,1.125927687E0,-4.002375901E-1,-2.273502350E-1
8.060238697E0,6.930693388E-1,-7.552713156E-2,-8.718118668E-1
8.071173072E0,2.210938931E-1,1.583574414E-1,-1.428466797E0
8.082107447E0,2.227129936E-1,1.583674848E-1,-2.019537926E0
8.093041822E0,5.261167288E-1,1.834473014E-2,-2.757426739E0
8.103976197E0,8.039494753E-1,-3.105455637E-2,-3.496579170E0
8.114910624E0,1.005008936E0,-4.629194736E-3,-4.047244072E0
8.125844999E0,9.255599976E-1,1.218878031E-1,-4.354520798E0
8.136779374E0,8.487327099E-1,2.138941288E-1,-4.289053440E0
8.147713749E0,7.810920477E-1,1.424397230E-1,-3.972881317E0
8.158648124E0,5.287110806E-1,1.051209271E-1,-3.623826981E0
8.169582499E0,4.181356430E-1,3.404948115E-2,-3.503049850E0
8.180516874E0,5.377168655E-1,-1.806590855E-1,-3.601704597E0
8.191451197E0,6.415568590E-1,-3.219403028E-1,-3.840065002E0
8.202385676E0,6.310772896E-1,-2.672499716E-1,-4.056250572E0
8.213320051E0,4.279698133E-1,-6.087976694E-2,-3.851635933E0
8.224254426E0,7.229518890E-2,2.334756255E-1,-3.137906551E0
8.235188801E0,-2.114174366E-1,5.754384995E-1,-2.271989822E0
8.246123176E0,-5.251550674E-2,8.877441287E-1,-1.611294746E0
8.257057551E0,8.551096916E-2,1.291863680E0,-1.265509605E0
8.267991926E0,1.807664633E-1,1.674746752E0,-1.297199249E0
8.278926301E0,3.894197941E-2,1.962012768E0,-1.282519341E0
8.289860676E0,-4.660383463E-1,2.151159525E0,-9.467601776E-1
8.300795051E0,-1.063154817E0,2.114285707E0,-1.844625473E-1
8.311729478E0,-1.530501604E0,1.813921928E0,7.646446228E-1
8.322663853E0,-1.756263733E0,1.514675140E0,1.356547356E0
8.333598228E0,-1.945796251E0,1.539106607E0,1.824205399E0
8.344532603E0,-2.244213581E0,1.574329615E0,2.639406204E0
8.355466978E0,-2.671978474E0,1.236610174E0,3.485997200E0
8.366401353E0,-3.034603357E0,4.145138860E-1,4.322790146E0
8.377335728E0,-3.529032469E0,-5.414916873E-1,5.251013756E0
8.388270103E0,-4.173223019E0,-1.614249825E0,5.607161522E0
8.399204478E0,-4.674696922E0,-2.156593084E0,5.258500099E0
8.410138853E0,-4.202335835E0,-2.155674219E0,4.912941933E0
8.421073280E0,-2.382504225E0,-2.089694977E0,4.683579445E0
8.432007655E0,-7.359633446E-1,-1.384271145E0,5.176416397E0
8.442942030E0,-1.178085804E-1,-5.547385216E-1,6.048827171E0
8.453876405E0,-3.941202164E-2,-8.957186341E-1,6.343326569E0
8.464810780E0,-3.232042789E-1,-1.884158850E0,5.779047966E0
8.475745155E0,-9.379699230E-1,-2.331004620E0,4.403929710E0
8.486679530E0,-1.558893204E0,-2.261220217E0,2.707781792E0
8.497613957E0,-1.811930656E0,-2.119664907E0,1.051063538E0
8.508548332E0,-1.507456779E0,-2.014923096E0,-2.733268738E-1
8.519482707E0,-8.231115341E-1,-1.681323528E0,-1.356923580E0
8.530417082E0,1.454782486E-1,-1.138179302E0,-2.023906708E0
8.541351457E0,1.233413219E0,-4.095066488E-1,-2.198342800E0
8.552285832E0,2.146386623E0,2.005186677E-1,-2.263391495E0
8.563220207E0,2.529210567E0,6.917274594E-1,-2.577480316E0
8.574154582E0,2.689645290E0,9.096667767E-1,-3.121183395E0
8.585088957E0,2.744773388E0,8.488498926E-1,-3.783784389E0
8.596023332E0,2.891765833E0,8.062015176E-1,-4.112021446E0
8.606957707E0,2.778040648E0,6.863065958E-1,-4.320431232E0
8.617892082E0,2.425987482E0,3.711676002E-1,-4.668797016E0
8.628826509E0,2.076855659E0,5.840408802E-1,-4.881736755E0
8.639760884E0,1.274566531E0,6.329890490E-1,-5.108798504E0
8.650695259E0,1.223173618E0,6.856819391E-1,-5.168570518E0
8.661629634E0,8.901684284E-1,7.850748301E-1,-4.750407219E0
8.672564009E0,4.128966331E-1,6.284763813E-1,-4.436340809E0
8.683498384E0,3.352012634E-1,1.094070598E-1,-4.138215542E0
8.694432759E0,1.985049248E-1,-2.624416649E-1,-3.649633408E0
8.705367134E0,-1.776719093E-1,6.079727784E-2,-2.998744965E0
8.716301509E0,-1.080172062E-1,4.554034472E-1,-2.155651093E0
8.727235884E0,5.053567886E-2,-1.453405172E-1,-1.545620918E0
8.738170259E0,7.709670067E-2,-8.670832515E-1,-3.565025330E-1
8.749104687E0,-2.637192011E-1,-1.241278172E0,9.400129318E-1
8.760039009E0,-1.125276327E0,-1.380100965E0,1.683969498E0
8.770973437E0,-1.897187114E0,-9.467856288E-1,2.084485054E0
8.781907759E0,-2.338286877E0,-2.194089592E-1,2.417739868E0
8.792842187E0,-2.710969925E0,8.287904859E-1,3.221346855E0
8.803776562E0,-2.996165037E0,1.874388337E0,3.944420815E0
8.814710937E0,-1.232381821E0,1.033228755E0,3.228850365E0
8.825645312E0,1.665390730E-1,-1.281249523E-2,2.175209045E0
8.836579687E0,8.276689053E-2,-6.100821495E-2,1.496109962E0
8.847514062E0,-4.835295677E-1,4.833909869E-2,1.049839973E0
8.858448437E0,-1.378758788E0,-2.297805548E-1,1.624069214E0
8.869382812E0,-7.960947752E-1,-7.172653079E-1,1.346327782E0
8.880317187E0,-4.925055504E-1,-1.113476992E0,2.041469574E0
8.891251562E0,-4.871997833E-1,-8.288738728E-1,2.137601852E0
8.902185937E0,-1.377418041E-1,-5.025191307E-1,2.004190445E0
8.913120312E0,8.536707759E-1,-8.522005677E-1,1.776802063E0
8.924054687E0,1.876716971E0,-1.409675360E0,1.471611977E0
8.934989114E0,1.810056329E0,-1.056306005E0,1.534756660E0
8.945923489E0,5.999341011E-1,-3.450003862E-1,1.770674706E0
8.956857864E0,-5.495631695E-2,-4.346214533E-1,1.773311615E0
8.967792239E0,-3.187741041E-1,-5.894645452E-1,1.494039536E0
8.978726614E0,-5.688611269E-1,-2.508512735E-1,1.056370735E0
8.989660989E0,-5.609254837E-1,1.405651569E-1,7.035398483E-1
9.000595364E0,-3.148638010E-1,4.231610298E-1,6.135215759E-1
9.011529739E0,2.307815552E-1,3.342111111E-1,1.029972076E0
9.022464114E0,6.861850023E-1,-2.130140066E-1,1.459891319E0
9.033398489E0,9.723020792E-1,-5.910239220E-1,1.498722076E0
9.044332864E0,1.475755334E0,-8.911986351E-1,1.261495590E0
9.055267239E0,2.194306374E0,-1.074939013E0,1.055956841E0
9.066201666E0,2.813602209E0,-1.226216674E0,7.003440857E-1
9.077136041E0,3.294059277E0,-1.354701877E0,2.836074829E-1
9.088070416E0,3.113891602E0,-1.391104698E0,-3.076744080E-2
9.099004791E0,2.534146309E0,-1.264963746E0,-4.828205109E-1
9.109939166E0,1.828526974E0,-8.984557390E-1,-1.257355690E0
9.120873541E0,1.093767047E0,-3.587144613E-1,-2.325779915E0
9.131807916E0,5.689426661E-1,7.233428955E-2,-3.476895809E0
9.142742291E0,4.481673241E-2,4.525810480E-1,-4.480504513E0
9.153676666E0,-4.341632426E-1,8.143117428E-1,-5.019852638E0
9.164611041E0,-7.206523418E-1,1.144017816E0,-4.972726822E0
9.175545416E0,-6.980667114E-1,1.188926101E0,-4.599237442E0
9.186479791E0,-4.507423639E-1,1.099412680E0,-3.956004143E0
9.197414166E0,-1.974997669E-1,1.134792089E0,-3.204212189E0
9.208348541E0,2.558240592E-1,1.217220306E0,-2.659487247E0
9.219282968E0,6.123634577E-1,1.342944860E0,-2.439897537E0
9.230217343E0,9.817952514E-1,1.365613699E0,-2.461022854E0
9.241151718E0,1.182386875E0,1.486302018E0,-2.576858521E0
9.252086093E0,9.679891467E-1,1.729307175E0,-2.473985672E0
9.263020468E0,7.338844538E-1,1.827356696E0,-1.601658821E0
9.273954843E0,6.232558489E-1,1.631482840E0,-3.811302185E-1
9.284889218E0,7.217257023E-1,1.146086097E0,6.715946198E-1
9.295823593E0,7.614155412E-1,5.029678345E-1,1.262896538E0
9.306757968E0,3.333920836E-1,2.051734924E-2,1.267181396E0
9.317692343E0,-4.500969946E-1,-2.212691307E-2,1.091006279E0
9.328626718E0,-1.256555080E0,3.373992443E-2,1.232493401E0
9.339561093E0,-1.896418452E0,2.542986870E-1,1.553931236E0
9.350495468E0,-1.913704157E0,1.508362293E-1,2.117680550E0
9.361429843E0,-1.593371153E0,-4.344968796E-1,2.660223007E0
9.372364218E0,-1.642719507E0,-9.481139183E-1,3.022630692E0
9.383298593E0,-1.902894735E0,-1.301270247E0,3.121076584E0
9.394232968E0,-2.138473988E0,-1.590496063E0,3.142635345E0
9.405167343E0,-2.511274815E0,-1.544754267E0,3.101788521E0
9.416101718E0,-2.573583364E0,-1.428065062E0,2.862337112E0
9.427036145E0,-1.832927227E0,-1.742156506E0,2.733141899E0
9.437970520E0,1.406928301E-1,-2.503289938E0,2.878600121E0
9.448904895E0,1.378964901E0,-2.434161663E0,3.428432465E0
9.459839270E0,1.689802408E0,-1.731171846E0,4.302276611E0
9.470773645E0,1.858904481E0,-1.615876198E0,5.086645126E0
9.481708020E0,9.256051183E-1,-1.828785419E0,5.238595963E0
9.492642395E0,-3.537274599E-1,-1.863761187E0,4.672492027E0
9.503576770E0,-9.657621384E-1,-2.101235628E0,3.973205566E0
9.514511145E0,-1.112147808E0,-1.964367151E0,3.466305733E0
9.525445520E0,-7.411381006E-1,-1.743734837E0,2.870570183E0
9.536379895E0,-2.219284475E-1,-1.538475037E0,2.200810432E0
9.547314270E0,7.979655266E-2,-1.097005367E0,1.567914009E0
9.558248645E0,3.488279581E-1,-4.685025215E-1,9.408903122E-1
9.569183020E0,6.559872627E-1,4.462623596E-2,2.803688049E-1
9.580117395E0,8.686025739E-1,4.255168438E-1,-4.254922867E-1
9.591051770E0,1.051271796E0,6.224185228E-1,-1.246643066E0
9.601986145E0,9.811850786E-1,6.390202045E-1,-2.070751190E0
9.612920520E0,4.679267108E-1,6.547300816E-1,-2.611301422E0
9.623854895E0,-1.930884272E-1,5.700918436E-1,-2.814533234E0
9.634789270E0,-7.447228432E-1,3.418869972E-1,-2.862371445E0
9.645723645E0,-1.122435331E0,1.885288954E-1,-2.843951702E0
9.656658020E0,-1.315860987E0,1.645542383E-1,-2.921042919E0
9.667592395E0,-1.323647738E0,2.771086693E-1,-3.331429482E0
9.678526770E0,-1.065662622E0,4.747738838E-1,-3.899675846E0
9.689461145E0,-6.875568628E-1,5.687013865E-1,-4.255199909E0
9.700395520E0,-3.745705485E-1,5.601003170E-1,-4.069894314E0
9.711329947E0,-2.158957124E-1,4.685784578E-1,-3.486462593E0
9.722264322E0,-5.735179186E-1,4.161973596E-1,-2.711597443E0
9.733198697E0,-7.039282918E-1,4.832400680E-1,-2.211420059E0
9.744133072E0,-7.328944206E-1,5.670173168E-1,-1.896306515E0
9.755067447E0,-5.520197749E-1,6.736107469E-1,-1.580108643E0
9.766001822E0,-1.553244889E-1,6.133229136E-1,-1.335550308E0
9.776936197E0,-5.659195185E-1,9.174629450E-1,-9.669647217E-1
9.787870572E0,-8.197422028E-1,1.066894770E0,-2.192859650E-1
9.798804947E0,-8.136612177E-1,8.236655593E-1,4.875135422E-1
9.809739322E0,-4.812428355E-1,3.871518970E-1,1.017092705E0
9.820673697E0,-3.555405736E-1,3.919290304E-1,1.486396790E0
9.831608072E0,3.035263717E-2,1.911834478E-1,1.924688339E0
9.842542447E0,-2.871706188E-1,2.189525366E-1,2.040799141E0
9.853476822E0,-6.447775364E-1,-7.428944111E-2,1.978642464E0
9.864411197E0,-1.245100856E0,-4.731533527E-1,1.778755188E0
9.875345520E0,-1.511282802E0,-6.320704222E-1,1.822121620E0
9.886279947E0,-1.550921082E0,-7.601824999E-1,1.749331474E0
9.897214322E0,-1.947594166E0,-4.003556967E-1,1.358118057E0
9.908148697E0,-1.821262836E0,3.077268600E-3,7.835083008E-1
9.919083072E0,-7.745884657E-1,-3.791091442E-1,-2.476501465E-2
9.930017447E0,1.159713566E-1,-7.111517191E-1,-3.040380478E-1
9.940951822E0,3.475449383E-1,-8.381004333E-1,2.233676910E-1
9.951886197E0,-5.035048723E-2,-9.097317457E-1,1.314577103E0
9.962820572E0,-9.042394757E-1,-1.018718123E0,2.688769341E0
9.973754947E0,-1.673765182E0,-1.185781121E0,3.809330940E0
9.984689322E0,-2.350365162E0,-1.098372817E0,4.415776253E0
9.995623697E0,-2.370604515E0,-1.131935954E0,4.760270119E0
1.000655807E1,-2.153050423E0,-1.275158167E0,4.375681877E0
1.001749245E1,-1.058410406E0,-1.260334253E0,4.014241219E0
1.002842682E1,8.374989033E-2,-1.032982349E0,3.925328255E0
1.003936120E1,1.146269441E0,-9.214334488E-1,3.531602859E0
1.005029557E1,1.913642764E0,-8.943665028E-1,3.117366791E0
1.006122995E1,2.121907473E0,-1.133541226E0,2.765128136E0
1.007216432E1,2.158799887E0,-1.472949982E0,2.276299477E0
1.008309870E1,2.660979986E0,-1.832903385E0,1.787833214E0
1.009403307E1,2.904103518E0,-1.983233571E0,6.672124863E-1
1.010496745E1,3.427184582E0,-1.897486806E0,-9.385185242E-1
1.011590182E1,4.125366211E0,-1.821844578E0,-2.357909203E0
1.012683620E1,4.021058559E0,-1.548794508E0,-3.330473900E0
1.013777057E1,3.318675041E0,-1.174935818E0,-4.028245449E0
1.014870500E1,2.372027874E0,-7.236846685E-1,-4.309218407E0
1.015963932E1,1.221069574E0,-3.074014485E-1,-4.617409706E0
1.017057370E1,7.302901745E-1,-2.100877613E-1,-5.179526806E0
1.018150807E1,2.001257539E-1,-4.668241739E-2,-5.634371758E0
1.019244245E1,3.104573488E-1,3.684043884E-1,-5.758838654E0
1.020337682E1,1.094495177E0,4.699789286E-1,-5.684753418E0
1.021431120E1,1.081884265E0,7.700347900E-1,-5.488501549E0
1.022524557E1,9.123629928E-1,9.771804810E-1,-4.711812019E0
1.023617995E1,7.973976731E-1,1.034783006E0,-4.089997292E0
1.024711432E1,6.269829273E-1,1.081434131E0,-3.431509972E0
1.025804870E1,5.764841437E-1,9.785857201E-1,-2.851506710E0
1.026898307E1,5.771448612E-1,9.999043941E-1,-2.487452030E0
1.027991745E1,7.775459886E-1,1.040612459E0,-2.506310940E0
1.029085182E1,9.902576804E-1,1.217763543E0,-2.457039833E0
1.030178625E1,1.070441484E0,1.451864958E0,-1.939572811E0
1.031272057E1,7.049470544E-1,1.435452819E0,-1.446734428E0
1.032365495E1,3.763413429E-1,1.330594182E0,-2.305870056E-1
1.033458932E1,-7.274729013E-2,8.792158365E-1,3.992557526E-1
1.034552370E1,3.486633301E-3,7.510641813E-1,5.636901855E-1
1.035645807E1,1.935412884E-1,8.515846133E-1,1.304589272E0
1.036739245E1,-3.476688862E-1,1.236934781E0,2.053515434E0
1.037832682E1,-1.081458449E0,1.478946924E0,2.746900558E0
1.038926120E1,-1.295306206E0,1.018589616E0,3.197216988E0
1.040019557E1,-1.231891394E0,3.539060652E-1,3.466723442E0
1.041112995E1,-1.226372480E0,-2.337447256E-1,3.530446053E0
1.042206432E1,-1.511466265E0,-5.254404545E-1,2.863610268E0
1.043299870E1,-1.919652462E0,-4.004979432E-1,1.436342239E0
1.044393307E1,-1.642528772E0,-4.533623457E-1,1.718101501E-1
1.045486745E1,-4.520361423E-1,-7.857941389E-1,-3.064508438E-1
1.046580182E1,4.928933382E-1,-1.024893045E0,5.382747650E-1
1.047673620E1,7.158895731E-1,-9.677913189E-1,2.976206779E0
1.048767057E1,5.966527462E-1,-9.632738233E-1,5.401787758E0
1.049860495E1,1.589488983E-2,-1.178195953E0,6.280385017E0
1.050953932E1,-1.235711336E0,-1.361093402E0,5.585053444E0
1.052047370E1,-1.778791189E0,-2.151261091E0,4.084164619E0
1.053140807E1,-1.774147987E0,-3.133273840E0,2.181705475E0
1.054234245E1,-1.515807152E0,-3.480262995E0,6.266880035E-1
1.055327682E1,-1.394292593E0,-2.867692471E0,-4.634857178E-1
1.056421120E1,-8.718926907E-1,-1.875376105E0,-1.424517632E0
1.057514557E1,2.364608049E-1,-1.015259266E0,-1.730370045E0
1.058607995E1,1.156814456E0,-5.899916589E-2,-1.553243637E0
1.059701432E1,1.809502244E0,7.708281279E-1,-1.693901062E0
1.060794870E1,2.451420307E0,1.129590034E0,-2.105276108E0
1.061888307E1,2.708199501E0,1.062684536E0,-2.411210537E0
1.062981745E1,2.334149361E0,9.089891911E-1,-2.452741146E0
1.064075182E1,1.683945060E0,7.698261142E-1,-2.222140312E0
1.065168620E1,1.085701227E0,4.520328641E-1,-2.029493809E0
1.066262057E1,4.362771511E-1,1.916284263E-1,-1.852523804E0
1.067355495E1,-2.788519859E-1,1.622721255E-1,-1.563054085E0
1.068448932E1,-6.840302944E-1,2.106281221E-1,-1.460269928E0
1.069542370E1,-5.147875547E-1,2.053606659E-1,-1.767821789E0
1.070635807E1,-1.129890680E-1,2.581701577E-1,-2.005615711E0
1.071729245E1,4.862265587E-1,1.442204416E-1,-2.110381603E0
1.072822682E1,8.616404533E-1,1.100987270E-1,-2.154696941E0
1.073916120E1,8.019304872E-1,2.567080259E-1,-2.174590588E0
1.075009557E1,4.539718628E-1,4.541867673E-1,-2.103834629E0
1.076102995E1,3.670584559E-1,3.076990247E-1,-2.177845955E0
1.077196432E1,-6.886374950E-2,4.677673280E-1,-2.174812317E0
1.078289870E1,-2.460237741E-1,6.210316420E-1,-1.868406773E0
1.079383307E1,-1.079878807E-1,4.790829420E-1,-1.019009590E0
1.080476745E1,1.014565229E-1,3.410550952E-1,9.768199921E-2
1.081570182E1,2.862596512E-1,1.909974217E-1,9.774045944E-1
1.082663620E1,1.887755394E-1,1.787909865E-1,1.715141296E0
1.083757057E1,-3.388476372E-2,3.388002515E-1,2.195106506E0
1.084850495E1,-6.435632706E-3,3.789882362E-1,2.372496605E0
1.085943932E1,7.195734978E-2,3.298941255E-1,2.527292252E0
1.087037364E1,3.577971458E-2,2.896651626E-1,2.490653038E0
1.088130802E1,6.762790680E-2,7.165306807E-2,2.000216484E0
1.089224245E1,5.986523628E-2,-1.296352148E-1,1.607537270E0
1.090317682E1,-2.123017311E-1,4.911816120E-2,1.518088341E0
1.091411114E1,-4.439742565E-1,4.221420884E-1,1.530731201E0
1.092504552E1,-6.284136772E-1,8.488627672E-1,1.210651398E0
1.093597995E1,-4.179253578E-1,1.179065585E0,5.722494125E-1
1.094691427E1,2.822654247E-1,1.058532238E0,1.928777695E-1
1.095784864E1,5.087416172E-1,7.846262455E-1,5.941781998E-1
1.096878302E1,-4.689097404E-2,4.040922523E-1,1.603717804E0
1.097971740E1,-1.116122007E0,-1.109120846E-1,2.799695969E0
1.099065177E1,-1.908038139E0,-8.488397598E-1,3.773013115E0
1.100158615E1,-2.501853704E0,-1.519361973E0,4.519530296E0
1.101252052E1,-2.826972961E0,-1.563838243E0,5.282281876E0
1.102345490E1,-2.356088877E0,-1.390935540E0,5.994296074E0
1.103438927E1,-1.239261866E0,-1.379486084E0,6.008179665E0
1.104532364E1,-5.454754829E-2,-1.314022779E0,5.530167580E0
1.105625802E1,8.576247692E-1,-1.226800203E0,4.645891190E0
1.106719240E1,1.579254508E0,-1.176144242E0,3.374018669E0
1.107812677E1,2.054108620E0,-1.071602225E0,2.267284393E0
1.108906114E1,2.465896845E0,-1.038261294E0,1.304569244E0
1.109999552E1,3.022443295E0,-1.167827487E0,5.521211624E-1
1.111092990E1,3.501660824E0,-1.169563293E0,-6.931495667E-2
1.112186427E1,3.873075962E0,-1.167996168E0,-7.144870758E-1
1.113279865E1,4.277280807E0,-1.256124735E0,-1.542208195E0
1.114373302E1,4.320909977E0,-1.229209185E0,-2.627195835E0
1.115466734E1,3.703835011E0,-8.926967382E-1,-3.801381111E0
1.116560172E1,2.888628006E0,-6.558718681E-1,-4.734708786E0
1.117653614E1,1.990128279E0,-5.106908083E-1,-5.296119690E0
1.118747047E1,1.251022935E0,-4.265414476E-1,-5.607685566E0
1.119840484E1,8.460516930E-1,-3.194834888E-1,-5.762650967E0
1.120933922E1,7.218302488E-1,-1.447690725E-1,-5.849737644E0
1.122027359E1,7.650578022E-1,6.408910453E-2,-5.870036602E0
1.123120797E1,8.119102716E-1,4.308671355E-1,-5.726511955E0
1.124214234E1,9.555284977E-1,8.465761542E-1,-5.175592422E0
1.125307672E1,1.013982534E0,1.060910821E0,-4.499991894E0
1.126401109E1,9.728889465E-1,9.319937229E-1,-4.186306953E0
1.127494547E1,5.558102131E-1,1.482960105E0,-4.006184101E0
1.128587984E1,7.015645504E-1,1.664967895E0,-3.666639328E0
1.129681422E1,7.037889957E-1,1.551088929E0,-2.935112953E0
1.130774859E1,4.825448990E-1,1.325822234E0,-1.955354691E0
1.131868297E1,1.632142067E-1,1.107089162E0,-1.417801380E0
1.132961729E1,-1.755571365E-2,1.017622113E0,-1.009975433E0
1.134055167E1,7.262539864E-2,8.349370360E-1,-3.252925873E-1
1.135148604E1,6.283164024E-2,5.530112386E-1,2.381916046E-1
1.136242042E1,2.167167664E-1,-1.151771247E-1,1.068601608E0
1.137335479E1,-2.279653549E-1,-7.357065082E-1,1.968578339E0
1.138428917E1,-1.584012747E0,-9.633104801E-1,2.637876511E0
1.139522354E1,-2.921858311E0,-1.247614622E0,3.045211792E0
1.140615792E1,-3.860021114E0,-1.321139693E0,3.067923546E0
1.141709229E1,-3.653236389E0,-1.406743288E0,2.989921570E0
1.142802667E1,-2.581881285E0,-1.181271315E0,3.212028503E0
1.143896104E1,-1.370994806E0,-6.788062453E-1,3.245458603E0
1.144989542E1,2.052242756E-1,-3.983353972E-1,3.127347946E0
1.146082979E1,1.675257087E0,-3.291859031E-1,3.003817558E0
1.147176417E1,2.241349936E0,-1.107743979E-1,3.332441330E0
1.148269854E1,2.065665007E0,-2.718698978E-1,4.014987946E0
1.149363292E1,1.368996382E0,-7.992457151E-1,4.695927620E0
1.150456729E1,2.192788124E-1,-1.174053431E0,4.839981079E0
1.151550161E1,-1.037589312E0,-1.330272198E0,4.409078598E0
1.152643599E1,-2.156899452E0,-1.285047412E0,3.754541397E0
1.153737036E1,-2.931215525E0,-1.031141520E0,2.999081612E0
1.154830474E1,-3.184055090E0,-6.796397567E-1,2.157035828E0
1.155923911E1,-2.907324791E0,-1.515769362E-1,1.316562653E0
1.157017349E1,-1.810844898E0,2.135646045E-1,4.021749496E-1
1.158110786E1,-4.243290424E-1,3.753798306E-1,-6.048202515E-1
1.159204224E1,5.669083595E-1,7.159612775E-1,-1.626718044E0
1.160297661E1,1.349992752E0,9.986995459E-1,-2.576458931E0
1.161391099E1,1.886446595E0,1.113100529E0,-3.065348148E0
1.162484536E1,1.935853481E0,1.076324701E0,-3.181546688E0
1.163577974E1,1.485387564E0,9.709349275E-1,-3.399550438E0
1.164671411E1,9.494718313E-1,6.949714422E-1,-3.644395351E0
1.165764844E1,4.538781643E-1,3.441183865E-1,-3.658224106E0
1.166858281E1,-1.117584705E-1,1.171504855E-1,-3.396713257E0
1.167951719E1,-3.346419334E-1,-1.625635028E-1,-2.848354816E0
1.169045156E1,-2.583639622E-1,-3.897284269E-1,-2.293604374E0
1.170138594E1,-2.474789619E-1,-4.109108448E-1,-2.164772511E0
1.171232031E1,-2.747130394E-2,-4.975047112E-1,-2.372865677E0
1.172325469E1,2.140412331E-1,-3.471640348E-1,-2.702977657E0
1.173418906E1,3.456110954E-1,9.773004055E-2,-2.825604439E0
1.174512344E1,7.421866655E-1,3.260062933E-1,-2.651303768E0
1.175605781E1,1.309960961E0,3.636766076E-1,-2.194423199E0
1.176699219E1,1.621167064E0,3.121016622E-1,-1.552744389E0
1.177792651E1,1.543622255E0,2.265709639E-1,-8.058433533E-1
1.178886088E1,1.521613598E0,1.208031178E-2,-2.125444412E-1
1.179979526E1,1.267899990E0,-1.285455227E-1,3.332424164E-2
1.181072963E1,5.205647945E-1,-7.492339611E-2,7.112598419E-2
1.182166401E1,-4.371304512E-1,1.902066469E-1,2.006931305E-1
1.183259833E1,-9.841213226E-1,4.513859749E-1,6.340379715E-1
1.184353276E1,-8.870992661E-1,6.893134713E-1,1.312603951E0
1.185446713E1,-3.905909061E-1,9.217970967E-1,1.817172050E0
1.186540151E1,-6.513667107E-2,1.274111271E0,2.005209923E0
1.187633588E1,2.305793762E-2,1.623645067E0,2.134094238E0
1.188727026E1,-2.137522697E-1,1.798415422E0,2.133617401E0
1.189820458E1,-7.039113045E-1,1.549477100E0,1.938575745E0
1.190913896E1,-1.602479219E0,9.983427525E-1,1.844107628E0
1.192007333E1,-2.643542528E0,4.270652533E-1,1.936481476E0
1.193100771E1,-3.542711496E0,1.370418072E-2,2.482920647E0
1.194194208E1,-3.229944229E0,-4.460391998E-1,2.981677055E0
1.195287646E1,-2.008728504E0,-9.404869080E-1,3.414996147E0
1.196381083E1,-1.034270763E0,-9.882086515E-1,3.974249840E0
1.197474521E1,-4.943964481E-1,-1.006451726E0,4.475541115E0
1.198567958E1,-1.061283350E0,-1.070864558E0,4.717200279E0
1.199661390E1,-2.269841671E0,-1.200520992E0,4.586528778E0
1.200754828E1,-3.266310453E0,-1.454358935E0,3.827434540E0
1.201848266E1,-4.003017426E0,-1.525885940E0,2.984980583E0
1.202941703E1,-4.603591919E0,-1.304518938E0,2.350610733E0
1.204035140E1,-4.626781464E0,-9.546585083E-1,1.991774559E0
1.205128578E1,-3.755799055E0,-8.768872023E-1,1.987715721E0
1.206222016E1,-2.164249897E0,-9.687637091E-1,1.931716919E0
1.207315453E1,-2.238335609E-1,-9.691537619E-1,1.871684074E0
1.208408891E1,1.773823142E0,-9.907811880E-1,1.652941704E0
1.209502328E1,3.093636990E0,-1.044513464E0,1.036477089E0
1.210595760E1,3.481817245E0,-1.196515918E0,1.261329651E-1
1.211689198E1,2.810786724E0,-1.319272995E0,-7.030611038E-1
1.212782635E1,2.080486536E0,-1.779500365E0,-1.264150620E0
1.213876073E1,1.522659779E0,-2.139549017E0,-2.277014256E0
1.214969510E1,1.461019397E0,-2.121038437E0,-3.597782135E0
1.216062948E1,1.847195148E0,-1.949057221E0,-4.897337914E0
1.217156385E1,2.347994328E0,-1.576600790E0,-5.918653965E0
1.218249823E1,2.781366825E0,-1.004006743E0,-6.524615288E0
1.219343260E1,2.901184082E0,-2.405965030E-1,-6.531602859E0
1.220436693E1,2.467084169E0,4.772964418E-1,-6.401759624E0
1.221530130E1,1.732807994E0,9.160749316E-1,-6.142590523E0
1.222623568E1,1.051064968E0,9.051651955E-1,-6.042646408E0
1.223717005E1,5.623759031E-1,6.670712233E-1,-5.930528641E0
1.224810443E1,4.367554188E-1,5.484778881E-1,-5.593579292E0
1.225903880E1,7.184101343E-1,6.484000683E-1,-5.202488899E0
1.226997318E1,1.126489639E0,9.189684987E-1,-4.405476570E0
1.228090755E1,1.297826171E0,1.151081920E0,-3.666115761E0
1.229184187E1,1.293795347E0,1.235875487E0,-2.989700794E0
1.230277625E1,1.186432600E0,1.357989073E0,-2.196575642E0
1.231371062E1,1.013206482E0,1.516213655E0,-1.649595261E0
1.232464500E1,8.427737951E-1,1.585257530E0,-1.293558121E0
1.233557937E1,5.744606256E-1,1.629871249E0,-7.962722778E-1
1.234651375E1,1.289026737E-1,1.488456964E0,-1.724767685E-1
1.235744812E1,-5.409375429E-1,1.142864466E0,5.166978836E-1
1.236838250E1,-1.552618265E0,8.497610688E-1,1.346755981E0
1.237931682E1,-2.564537048E0,7.982620001E-1,2.305886269E0
1.239025120E1,-3.214701176E0,8.814133406E-1,3.145369530E0
1.240118557E1,-3.289031506E0,7.837762833E-1,3.628720284E0
1.241211995E1,-3.462295771E0,6.137301326E-1,3.625947952E0
1.242305432E1,-4.119916439E0,5.515644550E-1,3.210879326E0
1.243398870E1,-4.824699402E0,6.411937475E-1,2.323781013E0
1.244492307E1,-4.896728516E0,6.849666834E-1,1.451400757E0
1.245585745E1,-4.127651215E0,3.448600173E-1,1.241134644E0
1.246679182E1,-3.461594582E0,-1.599989533E-1,2.167809486E0
1.247772614E1,-3.400079250E0,-9.383487701E-1,4.175324440E0
1.248866052E1,-3.232572317E0,-2.043660879E0,6.005363464E0
1.249959490E1,-2.848960161E0,-2.864485264E0,6.554160118E0
1.251052927E1,-2.521639824E0,-3.112641096E0,5.553930283E0
1.252146364E1,-2.165342331E0,-2.966916323E0,3.629463196E0
1.253239802E1,-1.699080467E0,-2.669047594E0,1.431130409E0
1.254333240E1,-1.186775446E0,-2.286643028E0,-2.671051025E-2
1.255426672E1,-2.327563763E-1,-1.841910243E0,-4.385633469E-1
1.256520109E1,1.240812063E0,-1.255767822E0,-2.142906189E-2
1.257613547E1,2.470619440E0,-3.942596316E-1,5.279493332E-1
1.258706984E1,3.001015425E0,3.730502725E-1,7.402305603E-1
1.259800422E1,2.715328693E0,8.294763565E-1,4.693975449E-1
1.260893859E1,1.893873453E0,8.197957277E-1,-1.017265320E-1
1.261987297E1,1.190188050E0,5.862197280E-1,-7.800693512E-1
1.263080729E1,8.866255283E-1,4.702009857E-1,-1.473390102E0
1.264174167E1,7.468738556E-1,6.460366249E-1,-2.049801350E0
1.265267604E1,6.038602591E-1,1.079536200E0,-2.436809540E0
1.266361042E1,7.146466970E-1,1.563670874E0,-2.877444744E0
1.267454479E1,1.187268496E0,1.916270256E0,-3.248369694E0
1.268547917E1,1.329360723E0,2.348549843E0,-3.008368492E0
1.269641354E1,8.728388548E-1,2.673034906E0,-2.500337601E0
1.270734786E1,4.866175652E-1,2.569316626E0,-2.299254417E0
1.271828224E1,3.430638313E-1,2.364856482E0,-2.114604950E0
1.272921661E1,6.529797316E-1,2.111455917E0,-1.785104275E0
1.274015099E1,7.821421623E-1,1.685380459E0,-1.252004623E0
1.275108536E1,2.379174232E-1,1.357069969E0,-5.891418457E-1
1.276201974E1,-4.617456198E-1,1.027373791E0,5.243206024E-2
1.277295411E1,-9.043976068E-1,5.608272552E-1,5.068225861E-1
1.278388844E1,-8.538104296E-1,5.752527714E-2,6.077213287E-1
1.279482281E1,-4.990886450E-1,-2.750027180E-1,9.601058960E-1
1.280575719E1,-2.085500956E-1,-5.749231577E-1,1.604040146E0
1.281669156E1,-8.720791340E-2,-1.112653255E0,1.711208344E0
1.282762594E1,-7.247900963E-2,-1.711559296E0,1.223050117E0
1.283856031E1,-5.306947231E-2,-2.174703598E0,6.960191727E-1
1.284949469E1,-4.570609331E-1,-2.333989859E0,1.960039139E-1
1.286042906E1,-1.106326580E0,-2.296025515E0,-7.239723206E-2
1.287136338E1,-1.481858015E0,-2.235174656E0,-3.867321014E-1
1.288229776E1,-1.046576023E0,-2.060063124E0,-7.219362259E-1
1.289323213E1,2.678997517E-1,-1.996335983E0,-1.097773552E0
1.290416651E1,1.782585144E0,-1.783157468E0,-1.399662971E0
1.291510088E1,2.146911621E0,-1.360328913E0,-1.686371326E0
1.292603521E1,1.576914787E0,-1.048212886E0,-1.669860363E0
1.293696958E1,1.236082792E0,-1.728159547E0,-1.346180916E0
1.294790396E1,7.077345252E-1,-2.377269506E0,-8.214883804E-1
1.295883833E1,7.867944241E-2,-2.266289473E0,-1.984996796E-1
1.296977271E1,-4.658771753E-1,-1.987251878E0,1.644611359E-2
1.298070708E1,-8.107894659E-1,-1.710478902E0,-6.517124176E-2
1.299164151E1,-9.060304165E-1,-1.481193662E0,1.664867401E-1
1.300257578E1,-7.842137814E-1,-1.380560756E0,8.765029907E-1
1.301351016E1,-6.588810682E-1,-1.090890646E0,2.072406769E0
1.302444453E1,-1.426726580E-1,-1.084002614E0,3.701953888E0
1.303537890E1,-6.206369400E-2,-8.641177416E-1,4.849562645E0
1.304631328E1,2.165638208E-1,-5.435506105E-1,4.779899597E0
1.305724766E1,8.972918987E-1,-3.984777331E-1,3.331529617E0
1.306818198E1,1.165161490E0,-2.316043973E-1,1.296594620E0
1.307911635E1,1.116425872E0,-2.456588149E-1,-1.643886566E-1
1.309005073E1,5.105639100E-1,-6.424872279E-1,-8.714218140E-1
1.310098510E1,-6.818308830E-1,-1.075719953E0,-8.455591202E-1
1.311191948E1,-1.870038152E0,-1.165687203E0,-1.620788574E-1
1.312285385E1,-2.996535301E0,-9.534233809E-1,3.119153976E-1
1.313378823E1,-3.615833282E0,-6.606248617E-1,6.126060486E-1
1.314472255E1,-3.217754841E0,-4.743274450E-1,3.556051254E-1
1.315565693E1,-1.660596013E0,-1.380535364E-1,-2.545833588E-2
1.316659130E1,2.943603396E-1,1.980145574E-1,-4.501829147E-1
1.317752568E1,1.545758367E0,5.871143937E-1,-1.375284195E0
1.318846005E1,1.930575609E0,1.241967082E0,-2.857452393E0
1.319939443E1,1.890264034E0,1.852318764E0,-4.014003754E0
1.321032875E1,1.601772904E0,1.955251932E0,-4.659253597E0
1.322126312E1,1.219393015E0,1.762473583E0,-5.076779842E0
1.323219750E1,8.866193295E-1,1.600528240E0,-4.900950432E0
1.324313187E1,7.481370568E-1,1.569147825E0,-3.914834023E0
1.325406625E1,6.955407858E-1,1.688546300E0,-2.647526741E0
1.326500057E1,8.308885098E-1,1.763811111E0,-1.602907181E0
1.327593495E1,1.165673256E0,1.581082106E0,-1.251849174E0
1.328686932E1,1.432135582E0,1.268333435E0,-1.476331711E0
1.329780370E1,1.504945040E0,1.168083787E0,-1.599932194E0
1.330873807E1,1.696653605E0,1.251029372E0,-1.532899857E0
1.331967240E1,2.280405998E0,1.199202061E0,-1.275072098E0
1.333060677E1,3.043400764E0,9.462673664E-1,-1.232827187E0
1.334154114E1,3.759227514E0,4.524590373E-1,-1.470560074E0
1.335247552E1,4.168075562E0,1.615497470E-2,-1.420766830E0
1.336340990E1,3.889468908E0,-1.830174327E-1,-1.110121727E0
1.337434422E1,2.868579388E0,-2.366282344E-1,-2.156600952E-1
1.338527859E1,1.622342587E0,-4.945697784E-1,1.048274040E0
1.339621297E1,5.463069677E-1,-9.387357831E-1,2.094054222E0
1.340714734E1,8.700335026E-2,-1.321718931E0,2.878390312E0
1.341808172E1,8.008092642E-2,-1.654795885E0,3.314322472E0
1.342901609E1,-1.093057990E-1,-1.608752012E0,3.364533424E0
1.343995042E1,-7.789224982E-1,-1.100120068E0,3.223846436E0
1.345088479E1,-1.223558664E0,-7.190408111E-1,3.301638603E0
1.346181917E1,-9.395654202E-1,-5.906146765E-1,3.316308022E0
1.347275354E1,-6.975308657E-1,-2.414218783E-1,2.838345528E0
1.348368792E1,-2.890207767E-1,1.007325649E-1,2.647211075E0
1.349462229E1,5.588973165E-1,-4.295960069E-1,3.292325020E0
1.350555667E1,1.084328771E0,-1.676610947E0,4.601421356E0
1.351649099E1,6.384455562E-1,-2.646135092E0,5.798736572E0
1.352742536E1,-2.937772274E-1,-2.886831284E0,6.170731544E0
1.353835974E1,-1.252651691E0,-2.714791298E0,5.809403419E0
1.354929411E1,-1.981176972E0,-2.219085693E0,4.752275467E0
1.356022844E1,-1.873694658E0,-1.848612547E0,2.952098846E0
1.357116281E1,-1.320785761E0,-1.507426739E0,9.684133530E-1
1.358209719E1,-8.584513664E-1,-8.872762322E-1,-6.757802963E-1
1.359303156E1,-6.895755529E-1,-1.350939870E-1,-1.948273182E0
1.360396594E1,-7.091271877E-1,4.584268332E-1,-2.606483936E0
1.361490031E1,-1.047277331E0,9.166116714E-1,-2.609660149E0
1.362583463E1,-1.209838510E0,1.121628523E0,-2.172451973E0
1.363676901E1,-9.946427345E-1,1.000944257E0,-1.506364822E0
1.364770338E1,-7.760293484E-1,7.625427246E-1,-9.563560486E-1
1.365863776E1,-5.898677111E-1,6.222659349E-1,-6.194038391E-1
1.366957213E1,-3.378212452E-1,6.268703938E-1,-3.394212723E-1
1.368050646E1,-4.427144527E-1,7.516208887E-1,-4.086713791E-1
1.369144083E1,-7.016347051E-1,8.052213192E-1,-7.993822098E-1
1.370237521E1,-8.301696181E-1,9.477667212E-1,-1.222199440E0
1.371330958E1,-7.497664690E-1,1.271076441E0,-1.744565487E0
1.372424390E1,-3.282467723E-1,1.430298090E0,-2.309465408E0
1.373517828E1,8.235359192E-2,1.605017900E0,-2.835804462E0
1.374611260E1,5.677064657E-1,1.548347235E0,-3.407184601E0
1.375704703E1,6.464877129E-1,1.382590413E0,-3.715517044E0
1.376798140E1,1.780825853E-1,1.099856973E0,-3.632666111E0
1.377891573E1,-6.281741858E-1,6.718391180E-1,-3.383098125E0
1.378985010E1,-1.515324593E0,2.632060647E-1,-3.165266037E0
1.380078448E1,-2.065476418E0,-1.992051601E-1,-3.141641617E0
1.381171885E1,-1.845317125E0,-6.353110075E-1,-2.991715908E0
1.382265318E1,-1.264034271E0,-6.485220194E-1,-2.499691963E0
1.383358760E1,-8.623818159E-1,-3.402253389E-1,-1.743592739E0
1.384452193E1,-4.335196018E-1,-2.473577261E-1,-8.964500427E-1
1.385545630E1,-1.913810372E-1,-2.960252762E-1,-2.173566818E-1
1.386639068E1,-3.087473512E-1,-1.810872555E-1,1.506729126E-1
1.387732505E1,-5.670995116E-1,-5.099380016E-2,-1.239471436E-1
1.388825937E1,-8.305221200E-1,5.635631084E-2,-7.658109665E-1
1.389919375E1,-9.431428313E-1,1.223711967E-1,-1.062615395E0
1.391012812E1,-8.599139452E-1,-2.691996098E-2,-7.467279434E-1
1.392106250E1,-8.631234765E-1,-2.249721289E-1,-1.027364731E-1
1.393199682E1,-9.236491323E-1,-2.015340328E-1,5.896778107E-1
1.394293120E1,-7.985212803E-1,4.929518700E-2,1.208721161E0
1.395386557E1,-7.469092011E-1,3.873342276E-1,1.627882957E0
1.396479995E1,-9.502985477E-1,6.191630960E-1,2.013697624E0
1.397573432E1,-1.267024755E0,5.487871170E-1,2.431291580E0
1.398666864E1,-1.184928298E0,-7.782280445E-2,3.047722816E0
1.399760302E1,-7.908792496E-1,-8.867520094E-1,3.812937737E0
1.400853740E1,-7.935436964E-1,-1.257561564E0,4.401926994E0
1.401947177E1,-6.219256520E-1,-1.370612621E0,4.841055870E0
1.403040614E1,-2.282857895E-4,-1.583645225E0,4.806514740E0
1.404134047E1,2.295969129E-1,-1.597829223E0,4.389495850E0
1.405227484E1,-4.991602898E-2,-1.283903599E0,4.223600388E0
1.406320922E1,-3.981238604E-1,-1.117475390E0,4.916727066E0
1.407414354E1,-7.619849443E-1,-1.397157788E0,6.048607826E0
1.408507792E1,-1.075173020E0,-2.231814384E0,6.715771675E0
1.409601229E1,-1.419016957E0,-2.878323317E0,6.408238411E0
1.410694667E1,-1.256783962E0,-3.247562408E0,5.217673302E0
1.411788104E1,-2.170376778E-1,-3.379058361E0,3.438090324E0
1.412881536E1,1.087351322E0,-3.006826401E0,1.467460632E0
1.413974974E1,1.792246580E0,-2.091212749E0,-6.732387543E-1
1.415068411E1,2.207423687E0,-8.278514147E-1,-1.917043686E0
1.416161849E1,2.264752626E0,-7.004203796E-1,-2.629634857E0
1.417255286E1,8.759655952E-1,8.699911833E-2,-2.338673592E0
1.418348719E1,-7.051568031E-1,7.407116890E-1,-1.466616631E0
1.419442156E1,-9.412286282E-1,4.851659536E-1,-4.799785614E-1
1.420535588E1,-7.873151302E-1,5.793378353E-1,2.748794556E-1
1.421629031E1,-4.167690277E-1,6.650668979E-1,8.729305267E-1
1.422722463E1,2.921628952E-1,1.598989069E-1,8.575868607E-1
1.423815901E1,1.651537895E0,-4.488919377E-1,2.399835587E-1
1.424909338E1,2.526585102E0,-3.260022104E-1,-5.770549774E-1
1.426002776E1,3.028907776E0,1.854358017E-1,-1.253776550E0
1.427096208E1,3.164959908E0,8.342605829E-1,-2.089468002E0
1.428189646E1,2.585761547E0,1.764456987E0,-2.944277763E0
1.429283083E1,1.790473819E0,1.971737862E0,-3.508277893E0
1.430376521E1,1.925230026E0,3.304339647E-1,-4.061484814E0
1.431469953E1,2.100519896E0,-1.026562095E0,-4.795859337E0
1.432563390E1,2.315017700E0,-1.080850482E0,-4.387439251E0
1.433656828E1,2.439858913E0,-1.254574537E0,-4.948124886E0
1.434750266E1,2.669769526E0,-2.012959480E0,-7.063380241E0
1.435843698E1,2.794519901E0,-2.672452450E0,-8.579645157E0
1.436937135E1,1.315876365E0,-2.142730951E0,-8.242803574E0
1.438030573E1,-7.307226658E-1,-1.941820502E0,-6.782947063E0
1.439124010E1,-1.708451867E0,-2.105461836E0,-5.822280407E0
1.440217443E1,-1.650378466E0,-1.805817366E0,-6.513360977E0
1.441310880E1,-1.560321331E0,-9.188997746E-1,-6.658219337E0
1.442404318E1,-4.862642288E0,1.140674829E0,-5.412535667E0
1.443497750E1,-8.190958023E0,3.350049973E0,-4.052173138E0
1.444591187E1,-7.421010017E0,3.778947830E0,-2.981967926E0
1.445684625E1,-3.101949692E0,6.038360596E-1,-3.257573128E0
1.446778062E1,-8.153043389E-1,-2.091010809E-1,-2.932973862E0
1.447871495E1,8.692676425E-1,2.679363489E-1,-1.759651184E0
1.448964932E1,1.901045322E0,1.143436670E0,-3.658351898E-1
1.450058370E1,7.413138151E-1,6.087787151E-1,4.510746002E-1
1.451151802E1,3.790538013E-1,-1.192858815E0,6.277294159E-1
1.452245240E1,1.935575008E0,-1.682939291E0,-1.072628021E0
1.453338677E1,3.155595064E0,-1.829354048E0,-2.098274231E-2
1.454432115E1,5.622075081E0,-2.652434111E0,1.952729225E0
1.455525552E1,6.018563747E0,-3.483458281E0,3.691939354E0
1.456618984E1,5.538860321E0,-4.393177509E0,5.103581429E0
1.457712422E1,5.319406033E0,-5.284050941E0,6.013852119E0
1.458805859E1,5.632150173E0,-5.835332394E0,5.946720123E0
1.459899292E1,4.032112598E0,-4.418837070E0,5.185925484E0
1.460992729E1,2.268383503E0,-3.677983046E0,3.465027809E0
1.462086167E1,1.495604634E0,-2.881412983E0,2.130445480E0
1.463179604E1,1.774258018E0,-1.911774158E0,1.585077286E0
1.464273036E1,2.188134432E0,-6.752653718E-1,2.606639862E0
1.465366474E1,1.656580448E0,3.185895681E-1,5.540631294E0
1.466459911E1,8.325152397E-1,7.772394419E-1,1.000243282E1
1.467553344E1,5.321114063E-1,1.475823879E0,1.327939796E1
1.468646781E1,-3.876760006E-1,2.659134388E0,1.402797508E1
1.469740219E1,-1.104342222E0,3.865900517E0,1.218634892E1
1.470833656E1,-1.042857409E0,3.812911987E0,8.413409233E0
1.471927088E1,-1.956826448E0,3.707643509E0,5.783053398E0
1.473020526E1,-2.668100834E0,5.234035492E0,4.124218941E0
1.474113963E1,-3.702915430E0,5.390099525E0,2.418696404E0
1.475207396E1,-5.895300388E0,5.748035431E0,1.554327011E0
1.476300833E1,-7.741434097E0,6.262898445E0,1.331938744E0
1.477394266E1,-8.268711090E0,6.061916351E0,2.728948593E-1
1.478487703E1,-7.758102417E0,5.589681625E0,-1.412302017E0
1.479581140E1,-6.693327427E0,4.528928280E0,-3.900071144E0
1.480674578E1,-6.080608845E0,3.116187096E0,-5.780242920E0
1.481768010E1,-5.444794655E0,2.032758951E0,-7.098654270E0
1.482861448E1,-4.974550247E0,9.840085506E-1,-7.742983341E0
1.483954885E1,-4.304038525E0,-7.047975063E-2,-7.955179214E0
1.485048318E1,-3.223533154E0,-6.360162497E-1,-7.360714436E0
1.486141755E1,-2.142953873E0,-9.242293835E-1,-7.052522659E0
1.487235193E1,-2.108849287E0,-7.766819000E-2,-7.450342655E0
1.488328630E1,-1.542184591E0,2.861073017E-1,-8.597019196E0
1.489422062E1,-5.953676701E-1,1.942265034E-1,-8.745261192E0
1.490515500E1,3.134818077E-1,-8.215720654E-1,-6.815891266E0
1.491608932E1,9.103744030E-1,-2.036593914E0,-3.353940964E0
1.492702370E1,2.106346607E0,-3.570557356E0,8.230829239E-1
1.493795807E1,3.593581676E0,-4.772281170E0,5.243530273E0
1.494889245E1,3.539167166E0,-5.582057953E0,8.725636482E0
1.495982677E1,2.391707659E0,-6.108347893E0,9.834074020E0
1.497076114E1,2.383046389E0,-5.634721756E0,9.075762749E0
1.498169552E1,3.602813721E0,-3.751419306E0,7.485403061E0
1.499262984E1,4.962155342E0,-1.577940941E0,5.668053627E0
1.500356422E1,6.689327717E0,1.277749538E-1,3.639079094E0
1.501449859E1,7.485516548E0,1.451428294E0,1.159538269E0
1.502543297E1,7.339141846E0,1.694246054E0,-2.949078560E0
1.503636729E1,5.910458088E0,1.218997478E0,-6.567845821E0
1.504730167E1,2.976758242E0,3.816275597E-1,-7.260435104E0
1.505823599E1,-1.971564293E-1,-6.733396053E-1,-3.909299850E0
1.506917036E1,-2.593188047E0,-2.036678791E0,2.912748337E0
1.508010474E1,-4.060601711E0,-2.485661745E0,9.456385612E0
1.509103911E1,-4.101245880E0,-2.044995785E0,1.325463295E1
1.510197344E1,-3.364003658E0,-1.067647696E0,1.368365383E1
1.511290781E1,-1.326368809E0,-1.023654461E0,1.090917110E1
1.512384213E1,7.519681454E-1,-1.288038731E0,6.738895416E0
1.513477651E1,3.677330732E0,-1.380627394E0,2.856590271E0
1.514571088E1,5.829764843E0,-1.164239407E0,-6.164016724E-1
1.515664521E1,6.401355743E0,-8.233041763E-1,-2.608938217E0
1.516757958E1,5.482991219E0,-9.079847336E-1,-2.481486320E0
1.517851396E1,3.643972874E0,-9.927740097E-1,-1.151494026E0
1.518944828E1,1.904867649E0,-1.286832809E0,-2.724704742E-1
1.520038266E1,4.155504704E-1,-1.233097553E0,-1.256179810E-1
1.521131703E1,-7.214028835E-1,-8.405232430E-1,-7.484836578E-1
1.522225135E1,-1.220936298E0,-4.492607117E-1,-1.774082661E0
1.523318573E1,-1.178080559E0,1.305320263E-1,-2.655308723E0
1.524412010E1,-1.266212940E0,6.457424164E-1,-3.632422447E0
1.525505443E1,-1.177638292E0,7.259247899E-1,-4.643377304E0
1.526598880E1,-1.492877245E0,6.576734185E-1,-6.081604004E0
1.527692318E1,-2.106997013E0,8.302364349E-1,-6.977304935E0
1.528785750E1,-2.669015646E0,6.286170483E-1,-7.434507370E0
1.529879187E1,-3.219547272E0,2.921172380E-1,-7.394554615E0
1.530972620E1,-3.159566402E0,2.298471928E-1,-6.526866913E0
1.532066057E1,-2.821020126E0,3.060760498E-1,-5.250315666E0
1.533159495E1,-2.655349255E0,3.256353140E-1,-4.879170418E0
1.534252927E1,-2.653386593E0,3.911448121E-1,-5.378283024E0
1.535346365E1,-2.572013378E0,7.842408419E-1,-6.021436214E0
1.536439802E1,-2.067813873E0,9.267774820E-1,-6.701237202E0
1.537533240E1,-1.174725533E0,5.934582353E-1,-6.748462677E0
1.538626672E1,-1.002432704E0,6.633489728E-1,-5.073673248E0
1.539720109E1,-6.023100615E-1,-2.148971558E-1,-2.517783165E0
1.540813542E1,-6.583416462E-1,-1.209793329E0,4.343032837E-1
1.541906979E1,-1.087606907E0,-1.651192904E0,2.484749794E0
1.543000417E1,-9.579436779E-1,-1.824729681E0,2.175992012E0
1.544093849E1,-7.955071926E-1,-1.441693544E0,4.869174957E-2
1.545187286E1,-4.731434584E-1,-6.638919115E-1,-1.888794899E0
1.546280719E1,5.017282963E-1,1.402946711E-1,-2.282423973E0
1.547374156E1,1.523137093E0,6.356145144E-1,-1.276388168E0
1.548467594E1,1.832050800E0,6.679422855E-1,6.399421692E-1
1.549561031E1,2.360614061E0,4.100704193E-1,2.696929932E0
1.550654463E1,2.647561789E0,1.725660563E-1,4.416472435E0
1.551747901E1,2.226531982E0,4.969406128E-2,4.963232040E0
1.552841333E1,1.600102425E0,1.600732803E-1,4.357553482E0
1.553934771E1,1.150953293E0,5.986719131E-1,3.143793106E0
1.555028208E1,1.567152262E0,8.121434450E-1,2.280645370E0
1.556121641E1,3.038989067E0,4.794998169E-1,2.345364571E0
1.557215078E1,5.349924564E0,3.024578094E-2,2.501814842E0
1.558308516E1,5.760390282E0,-3.657245636E-1,3.629742622E0
1.559401948E1,5.081136703E0,-1.331312895E0,5.231004715E0
1.560495385E1,1.824231386E0,-2.522620916E0,5.619955063E0
1.561588818E1,-1.701278210E0,-3.137979984E0,5.337750435E0
1.562682255E1,-4.131242752E0,-4.191595078E0,4.197468758E0
1.563775693E1,-5.475904465E0,-4.585504055E0,4.108035088E0
1.564869125E1,-4.755834579E0,-4.222305298E0,4.046927452E0
1.565962562E1,-2.558858156E0,-3.398445845E0,3.318781853E0
1.567055995E1,-3.038077354E-1,-2.310242176E0,1.950154305E0
1.568149432E1,9.454135895E-1,-1.141427040E0,7.936029434E-1
1.569242870E1,1.244025707E0,-2.645657063E-1,-7.151899338E-1
1.570336302E1,1.041070938E0,3.815269470E-1,-2.030135632E0
1.571429740E1,1.717202663E-1,8.383860588E-1,-2.369285583E0
1.572523177E1,-7.219763994E-1,1.060221910E0,-2.533628941E0
1.573616609E1,-1.377710581E0,1.047831774E0,-2.389520645E0
1.574710047E1,-1.886598706E0,1.146136045E0,-2.018936634E0
1.575803479E1,-2.192388296E0,1.424969196E0,-1.843625069E0
1.576896917E1,-2.293392897E0,1.635770082E0,-1.926874638E0
1.577990354E1,-2.466191530E0,1.965957880E0,-2.263807774E0
1.579083786E1,-2.473475218E0,2.111624002E0,-3.215921402E0
1.580177224E1,-2.292341709E0,2.095643759E0,-4.200248241E0
1.581270656E1,-2.263373137E0,2.226327896E0,-4.636729240E0
1.582364094E1,-1.775546670E0,1.716545105E0,-5.165235519E0
1.583457531E1,-1.802881598E0,1.348300695E0,-5.384975910E0
1.584550963E1,-1.618030787E0,1.359611511E0,-4.464453220E0
1.585644401E1,-7.775489092E-1,1.081551790E0,-3.153355122E0
1.586737833E1,-2.700896263E-1,9.696648121E-1,-2.186518669E0
1.587831271E1,-9.083533287E-2,5.787210464E-1,-1.971828461E0
1.588924708E1,-3.477907181E-2,1.568784714E-1,-2.357122898E0
1.590018141E1,7.703471184E-1,-2.746582031E-1,-2.673918724E0
1.591111578E1,1.779595852E0,-3.347582817E-1,-2.271705151E0
1.592205016E1,2.360725641E0,-3.399972916E-1,-1.558715820E0
1.593298448E1,2.374413490E0,-6.940197945E-1,-7.169790268E-1
1.594391885E1,1.553898573E0,-1.397528172E0,3.294467926E-1
1.595485318E1,3.069782257E-2,-1.679490089E0,1.500991821E0
1.596578755E1,-1.242513537E0,-1.233093262E0,2.667128563E0
1.597672187E1,-1.666531444E0,-2.238163948E-1,3.818925381E0
1.598765625E1,-9.976130724E-1,6.021957397E-1,5.214544296E0
1.599859057E1,-7.140177488E-1,1.491151333E0,7.185373783E0
1.600952495E1,-3.684043884E-3,1.985194206E0,9.836008072E0
1.602045932E1,1.111433506E0,2.085515022E0,1.249051094E1
1.603139364E1,2.595110178E0,1.724710464E0,1.464954948E1
1.604232802E1,3.118714809E0,1.535020351E0,1.441004753E1
1.605326234E1,2.687674284E0,8.801159859E-1,1.180727196E1
1.606419672E1,1.382189751E0,-3.915882111E-2,8.514590263E0
1.607513109E1,-5.599355698E-2,-7.091050148E-1,5.666584015E0
1.608606542E1,-1.069058776E0,-1.254195213E0,3.693381786E0
1.609699979E1,-1.398251534E0,-1.874934673E0,2.895524979E0
1.610793411E1,-8.634526730E-1,-2.601520538E0,2.359690666E0
1.611886849E1,2.832713127E-1,-3.427270889E0,2.061348915E0
1.612980281E1,1.384878397E0,-4.152885914E0,2.214560509E0
1.614073719E1,2.456215620E0,-4.719239235E0,2.480199814E0
1.615167156E1,3.277150869E0,-4.806888580E0,2.506165504E0
1.616260588E1,3.354862690E0,-4.510168076E0,1.657100677E0
1.617354026E1,2.987248898E0,-4.132907867E0,-1.931371689E-1
1.618447458E1,2.350141287E0,-3.807919502E0,-2.344392300E0
1.619540896E1,1.919265270E0,-3.489710569E0,-4.155344486E0
1.620634333E1,1.640364647E0,-2.899963140E0,-5.471026897E0
1.621727766E1,1.396218300E0,-1.901702642E0,-6.445670128E0
1.622821203E1,8.810236454E-1,-1.032057285E0,-7.323167324E0
1.623914635E1,1.301264763E-2,-5.757904053E-2,-7.658157349E0
1.625008073E1,-7.711595297E-1,8.574106693E-1,-7.446134567E0
1.626101505E1,-1.260743499E0,1.468982935E0,-6.987973690E0
1.627194943E1,-1.633612156E0,1.870458841E0,-6.575526237E0
1.628288375E1,-2.013489246E0,2.140724659E0,-6.274062157E0
1.629381812E1,-2.460561514E0,2.303977966E0,-6.169984818E0
1.630475245E1,-2.600415468E0,2.224701166E0,-6.194874763E0
1.631568682E1,-2.492499590E0,2.128074646E0,-6.227751255E0
1.632662120E1,-1.979170084E0,2.254609108E0,-6.069231987E0
1.633755552E1,-1.494228482E0,2.275770664E0,-5.789557934E0
1.634848990E1,-1.209131122E0,1.840407372E0,-5.806782246E0
1.635942422E1,-1.214146137E0,1.582790971E0,-5.615140438E0
1.637035859E1,-1.177940011E0,1.443333387E0,-4.866398811E0
1.638129292E1,-1.359007835E0,1.073922873E0,-4.248720169E0
1.639222729E1,-1.577713370E0,9.049711227E-1,-3.487633705E0
1.640316161E1,-1.681152344E0,7.880918980E-1,-2.349181175E0
1.641409599E1,-1.541922331E0,1.763486862E-1,-1.404271126E0
1.642503036E1,-1.356435657E0,-5.214400291E-1,-3.490486145E-1
1.643596469E1,-1.034055471E0,-1.116598606E0,4.578714371E-1
1.644689906E1,-6.966912746E-1,-1.535645723E0,1.310035706E0
1.645783338E1,-3.160104752E-1,-1.586774588E0,2.513596535E0
1.646876776E1,-3.611588478E-2,-1.085483074E0,3.971418381E0
1.647970208E1,-4.443254471E-1,-4.032058716E-1,5.556237221E0
1.649063646E1,-5.896081924E-1,2.033643723E-1,7.006896019E0
1.650157078E1,-6.688168049E-1,9.167802334E-1,7.950852394E0
1.651250516E1,-1.037910581E0,1.271657705E0,8.628598213E0
1.652343953E1,-1.180460930E0,1.894766808E0,8.925679207E0
1.653437385E1,-7.671627998E-1,2.173767090E0,8.450304031E0
1.654530823E1,-1.045746803E-1,2.344045401E0,7.079477310E0
1.655624255E1,3.299179077E-1,2.818791151E0,5.663568497E0
1.656717693E1,9.389491081E-1,2.306443453E0,5.128059387E0
1.657811125E1,2.009185314E0,8.398809433E-1,5.869788170E0
1.658904562E1,3.172620535E0,-7.227406502E-1,6.988023758E0
1.659997995E1,4.062722683E0,-2.349074364E0,6.363191605E0
1.661091432E1,3.479092360E0,-3.597689152E0,4.514460564E0
1.662184864E1,2.014581442E0,-4.527814865E0,2.578434944E0
1.663278302E1,6.242642403E-1,-5.467744827E0,1.198198318E0
1.664371734E1,4.255435467E-1,-5.967207909E0,3.263864517E-1
1.665465172E1,7.084882259E-1,-6.192299843E0,-2.487916946E-1
1.666558604E1,4.584159851E-1,-6.325798988E0,-1.184874535E0
1.667652042E1,7.628479004E-1,-5.573511124E0,-3.315752029E0
1.668745474E1,2.290568352E-1,-3.709305048E0,-5.519724369E0
1.669838911E1,-1.738016605E-1,-2.233150721E0,-6.906856537E0
1.670932344E1,-3.529660702E-1,-1.022376299E0,-6.547344208E0
1.672025781E1,-5.343502760E-1,-2.475583553E-1,-4.920449734E0
1.673119213E1,-7.551538944E-1,1.131756306E-1,-3.214872360E0
1.674212651E1,-6.895903349E-1,2.222709656E-1,-1.915340424E0
1.675306083E1,-5.849559307E-1,4.386124611E-1,-9.444169998E-1
1.676399521E1,-6.499477625E-1,7.591476440E-1,-4.533510208E-1
1.677492953E1,-9.212102890E-1,1.073699474E0,-8.508043289E-1
1.678586390E1,-1.345656157E0,1.516736269E0,-2.252549171E0
1.679679828E1,-1.523012638E0,1.810729265E0,-3.562904835E0
1.680773260E1,-1.288211107E0,1.914765596E0,-4.313098431E0
1.681866698E1,-9.482601881E-1,2.067557573E0,-4.825847149E0
1.682960130E1,-6.990003586E-1,2.195059776E0,-5.276802540E0
1.684053568E1,-5.189077854E-1,2.272961617E0,-5.648958683E0
1.685147000E1,-4.112930298E-1,2.251233101E0,-6.121443748E0
1.686240432E1,-3.506386280E-1,2.169300556E0,-6.287827969E0
1.687333870E1,-4.736847878E-1,2.101738930E0,-5.937519550E0
1.688427307E1,-2.033498287E-1,1.785044909E0,-5.278881073E0
1.689520740E1,2.906150818E-1,1.334111691E0,-4.223582268E0
1.690614177E1,4.609262943E-1,9.076139927E-1,-2.692900658E0
1.691707609E1,2.635755539E-1,6.214032173E-1,-1.511497974E0
1.692801047E1,2.723088264E-1,1.531844139E-1,-8.791699409E-1
1.693894479E1,1.692693233E-1,-1.240167618E-1,-1.058530807E-1
1.694987917E1,1.567618847E-1,-3.924627304E-1,7.563829422E-1
1.696081349E1,1.296076775E-1,-7.625751495E-1,1.962656021E0
1.697174781E1,1.727917194E-1,-9.575433731E-1,3.486880779E0
1.698268219E1,4.733519554E-1,-8.651738167E-1,5.004045963E0
1.699361656E1,2.910187244E-1,-6.112360954E-1,6.218037605E0
1.700455088E1,-4.295406342E-1,-2.753419876E-1,6.986751080E0
1.701548526E1,-1.110733032E0,4.263563156E-1,7.851793766E0
1.702641958E1,-9.701423645E-1,9.198744297E-1,8.762795448E0
1.703735396E1,2.123746872E-1,1.050613880E0,9.289552689E0
1.704828828E1,1.509001732E0,7.395005226E-1,9.600298882E0
1.705922260E1,3.301486969E0,2.716341019E-1,8.756292343E0
1.707015698E1,4.909629345E0,-1.273860931E-1,7.475886822E0
1.708109130E1,5.143651009E0,-1.138625145E-1,6.206751347E0
1.709202568E1,4.127606392E0,-2.695531845E-1,5.779155254E0
1.710296000E1,2.541553736E0,-7.653861046E-1,5.130184174E0
1.711389437E1,1.403196812E0,-1.478274822E0,4.487585068E0
1.712482870E1,1.366110086E0,-2.524371624E0,4.121592522E0
1.713576307E1,2.286973238E0,-3.730670452E0,3.485461235E0
1.714669740E1,3.653361320E0,-4.855598927E0,2.484277725E0
1.715763177E1,4.558606625E0,-5.729342461E0,1.060533524E0
1.716856609E1,4.540576935E0,-5.841174603E0,-5.367364883E-1
1.717950047E1,4.074757576E0,-5.615651131E0,-2.354660511E0
1.719043479E1,3.319807291E0,-5.168385506E0,-4.453062057E0
1.720136917E1,2.174108028E0,-4.293104172E0,-6.306467056E0
1.721230349E1,9.537270069E-1,-3.095877409E0,-7.550598621E0
1.722323781E1,5.013465881E-3,-1.755351782E0,-8.644450188E0
1.723417219E1,-8.874638081E-1,-3.174815178E-1,-6.887563229E0
1.724510656E1,-9.519400597E-1,9.971880913E-1,-4.245664120E0
1.725604088E1,-1.938316822E0,1.340625286E0,-3.997360706E0
1.726697521E1,-2.629683018E0,2.368581057E0,-3.679878235E0
1.727790953E1,-3.147126436E0,2.374719143E0,-4.017819405E0
1.728884390E1,-3.534466743E0,2.267029762E0,-4.389657974E0
1.729977828E1,-3.979580164E0,2.236309290E0,-4.894862652E0
1.731071260E1,-4.132530689E0,2.078715086E0,-5.507122517E0
1.732164698E1,-3.878909588E0,1.943834543E0,-6.081400871E0
1.733258130E1,-3.732977867E0,1.792278171E0,-5.981887341E0
1.734351568E1,-3.736076593E0,1.603521943E0,-5.658993244E0
1.735445000E1,-3.677762985E0,1.442738056E0,-5.483090878E0
1.736538437E1,-3.617468119E0,1.522568822E0,-5.533432961E0
1.737631870E1,-3.374236584E0,1.849399090E0,-5.822938919E0
1.738725307E1,-2.593153477E0,2.258471727E0,-6.214890480E0
1.739818740E1,-1.757671237E0,2.488088608E0,-6.117221355E0
1.740912172E1,-1.028997183E0,2.356790543E0,-4.935663700E0
1.742005609E1,-5.755314827E-1,1.732117891E0,-2.728952408E0
1.743099042E1,-9.671282768E-1,8.769574165E-1,1.271944046E-1
1.744192479E1,-1.767292261E0,1.810767651E-1,2.470832825E0
1.745285911E1,-2.247688532E0,-3.842830658E-2,3.564211845E0
1.746379349E1,-1.652730584E0,2.949762344E-2,3.754733086E0
1.747472781E1,-1.056854725E-1,9.539747238E-2,4.102573395E0
1.748566219E1,1.224095106E0,1.153314114E-1,4.848466873E0
1.749659651E1,1.674103260E0,-1.519334316E-1,5.714380264E0
1.750753083E1,1.512923002E0,-4.369320869E-1,6.627503395E0
1.751846521E1,8.989086151E-1,-2.608070374E-1,7.306879044E0
1.752939953E1,5.776503086E-1,4.924058914E-2,7.200775146E0
1.754033390E1,7.682049274E-1,7.657968998E-1,5.434022903E0
1.755126823E1,1.707839727E0,1.366752267E0,3.483673096E0
1.756220260E1,3.731184959E0,6.644220352E-1,2.753731728E0
1.757313693E1,5.931207657E0,-6.779370308E-1,4.201991081E0
1.758407125E1,6.136054993E0,-2.154554844E0,7.189435959E0
1.759500562E1,4.898139954E0,-3.928487301E0,8.065271378E0
1.760593995E1,2.657571793E0,-4.736775875E0,8.073503494E0
1.761687432E1,6.803500652E-1,-5.356295586E0,7.627607346E0
1.762780864E1,-5.496385098E-1,-5.873579025E0,6.458803177E0
1.763874302E1,-8.061940670E-1,-6.048525810E0,4.115096092E0
1.764967734E1,-3.712623119E-1,-5.381505013E0,1.304944992E0
1.766061167E1,6.827738285E-1,-4.055486202E0,-1.686447620E0
1.767154604E1,1.750434399E0,-2.512435198E0,-4.299298763E0
1.768248036E1,2.170690298E0,-1.273270607E0,-5.194157124E0
1.769341474E1,1.517074108E0,-4.870915413E-1,-4.943417072E0
1.770434906E1,2.753043175E-1,1.346011162E-1,-3.873623371E0
1.771528338E1,-8.951165676E-1,5.201954842E-1,-2.464241028E0
1.772621776E1,-1.849074483E0,8.634037971E-1,-1.215854168E0
1.773715208E1,-2.433590889E0,1.094860435E0,-4.303979874E-1
1.774808646E1,-2.646869659E0,1.182883263E0,-4.511651993E-1
1.775902078E1,-2.515300274E0,1.163611770E0,-1.340156555E0
1.776995515E1,-2.212408304E0,1.246219635E0,-2.607483864E0
1.778088948E1,-2.051995754E0,1.434297800E0,-3.726217270E0
1.779182380E1,-1.870181084E0,1.543707252E0,-4.720392704E0
1.780275818E1,-1.615450501E0,1.603736162E0,-5.462739944E0
1.781369250E1,-1.632111549E0,1.677597404E0,-6.029646397E0
1.782462687E1,-1.434225678E0,1.476108670E0,-6.475650311E0
1.783556120E1,-1.098990560E0,1.369401693E0,-6.398703098E0
1.784649552E1,-9.667876959E-1,1.407712460E0,-5.844917297E0
1.785742990E1,-8.924651146E-1,1.492119551E0,-5.114743710E0
1.786836422E1,-8.463906050E-1,1.677957416E0,-4.299299717E0
1.787929859E1,-1.063249946E0,1.748909354E0,-3.854265690E0
1.789023292E1,-1.069281578E0,1.561105013E0,-3.135055542E0
1.790116724E1,-9.517483711E-1,1.242090106E0,-1.595404625E0
1.791210161E1,-8.828127384E-1,5.371627808E-1,4.095897675E-1
1.792303594E1,-6.468334198E-1,-2.181634903E-1,2.679780960E0
1.793397031E1,-3.847782612E-1,-7.492594719E-1,4.658774376E0
1.794490463E1,-5.297918320E-1,-1.035916567E0,4.901926041E0
1.795583896E1,-4.631130695E-1,-1.309533834E0,3.411811829E0
1.796677333E1,4.563386440E-1,-1.327680588E0,1.972640038E0
1.797770766E1,2.033994675E0,-1.056471586E0,2.047866821E0
1.798864198E1,2.768589973E0,-7.147221565E-1,2.693653107E0
1.799957635E1,2.189581394E0,-5.326087475E-1,3.329416275E0
1.801051068E1,6.575715542E-1,-2.334232330E-1,3.591272354E0
1.802144505E1,-1.242220402E-1,8.212256432E-2,3.917611122E0
1.803237937E1,1.757247448E-1,7.837321758E-1,4.358736992E0
1.804331370E1,1.424187422E0,9.840853214E-1,4.191964149E0
1.805424807E1,1.922254086E0,1.118272543E0,5.474610329E0
1.806518240E1,2.376682520E0,1.108139515E0,6.524555206E0
1.807611677E1,2.245719194E0,8.476040363E-1,7.828977585E0
1.808705109E1,2.037854195E0,1.527206898E-1,8.403455734E0
1.809798542E1,2.872571468E0,-7.881722450E-1,8.912589073E0
1.810891979E1,4.923883915E0,-2.012410641E0,9.277905464E0
1.811985411E1,6.740391731E0,-3.040069342E0,8.217907906E0
1.813078844E1,7.831721306E0,-3.926946402E0,5.814139366E0
1.814172281E1,7.520231247E0,-4.388103485E0,2.152752876E0
1.815265713E1,6.135704994E0,-4.484575272E0,-1.224429131E0
1.816359146E1,4.621809959E0,-4.426587105E0,-4.355038166E0
1.817452583E1,3.450400829E0,-4.302042961E0,-6.675825119E0
1.818546016E1,2.725163937E0,-4.102335453E0,-8.199139595E0
1.819639448E1,1.977918148E0,-3.565534115E0,-9.007934570E0
1.820732885E1,1.028368950E0,-2.721131802E0,-8.962568283E0
1.821826318E1,-1.013216972E-1,-1.778655648E0,-8.017056465E0
1.822919750E1,-9.599962234E-1,-9.431438446E-1,-6.845426559E0
1.824013187E1,-1.753791571E0,-2.593940496E-1,-5.996107578E0
1.825106620E1,-2.469213486E0,3.862909079E-1,-5.611579418E0
1.826200057E1,-2.999807835E0,8.318627477E-1,-5.625276566E0
1.827293490E1,-3.517078876E0,1.273026466E0,-5.942833900E0
1.828386922E1,-3.788904905E0,1.775507450E0,-6.409513474E0
1.829480359E1,-3.830605030E0,2.132904530E0,-6.780476093E0
1.830573792E1,-3.922072649E0,2.383428097E0,-6.699987888E0
1.831667224E1,-4.129866123E0,2.439106464E0,-6.516323090E0
1.832760661E1,-4.118649483E0,2.070034027E0,-6.505438805E0
1.833854094E1,-4.114935875E0,1.696895003E0,-6.221024513E0
1.834947526E1,-3.633560419E0,1.293872833E0,-5.774493694E0
1.836040963E1,-3.126289606E0,1.055432558E0,-5.233023167E0
1.837134396E1,-2.614504099E0,8.682183623E-1,-4.714939117E0
1.838227828E1,-2.172186852E0,6.345753074E-1,-4.231741905E0
1.839321266E1,-1.980237007E0,5.808180571E-1,-3.529937744E0
1.840414698E1,-2.003466606E0,3.679417372E-1,-2.649622917E0
1.841508135E1,-2.187912941E0,1.342320442E-1,-1.757260323E0
1.842601568E1,-1.745273948E0,-6.960403919E-2,-1.025107384E0
1.843695000E1,-6.667271852E-1,-9.096646309E-2,2.263269424E-1
1.844788432E1,4.592201710E-1,-5.821800232E-2,2.106901169E0
1.845881870E1,1.579193115E0,-5.771422386E-2,4.530245781E0
1.846975302E1,1.702129126E0,1.151502132E-1,6.352288246E0
1.848068734E1,1.336357832E0,-8.657026291E-2,6.916514397E0
1.849162172E1,1.114945412E0,-1.768982410E-1,7.489958763E0
1.850255604E1,1.266379833E0,8.465838432E-2,8.178268433E0
1.851349036E1,1.560216188E0,4.926242828E-1,8.653379440E0
1.852442474E1,1.616316795E0,1.278873563E0,8.432653427E0
1.853535906E1,2.348294735E0,2.024211407E0,7.644891739E0
1.854629338E1,3.993442297E0,1.547371149E0,6.712832451E0
1.855722776E1,4.740217209E0,4.404487610E-1,6.747489929E0
1.856816208E1,4.455771446E0,-6.857993603E-1,6.420281410E0
1.857909640E1,3.486074448E0,-2.368327141E0,5.871839523E0
1.859003073E1,1.812162519E0,-3.728543282E0,5.125582695E0
1.860096510E1,-2.019578218E-1,-4.650881290E0,4.532712936E0
1.861189943E1,-2.021674156E0,-5.403055668E0,3.704888344E0
1.862283380E1,-3.344471455E0,-5.955349922E0,2.801476479E0
1.863376812E1,-4.071552753E0,-5.825190544E0,1.789167404E0
1.864470245E1,-3.673388720E0,-4.507719994E0,8.054924011E-1
1.865563677E1,-2.731709480E0,-2.969589949E0,-8.237333298E-1
1.866657114E1,-1.523662329E0,-1.673271418E0,-3.119029999E0
1.867750547E1,4.416620731E-2,-1.106645107E0,-4.831590652E0
1.868843984E1,1.281778812E0,-8.966553211E-1,-4.834596634E0
1.869937417E1,1.939039946E0,-9.806926250E-1,-3.367338657E0
1.871030849E1,1.730573177E0,-1.022538424E0,-9.958992004E-1
1.872124281E1,8.732883930E-1,-9.904134274E-1,1.085121155E0
1.873217713E1,-3.237286806E-1,-5.395996571E-1,1.890802383E0
1.874311151E1,-1.320971251E0,1.194596291E-1,1.237768173E0
1.875404583E1,-1.962656975E0,7.658680677E-1,-4.616889954E-1
1.876498021E1,-2.256428719E0,1.369217634E0,-2.200234890E0
1.877591453E1,-2.316346645E0,1.731969476E0,-3.463586807E0
1.878684885E1,-2.406237364E0,1.908644199E0,-4.361788750E0
1.879778318E1,-2.408701897E0,1.837066174E0,-5.071784019E0
1.880871750E1,-2.376801252E0,1.644236326E0,-5.563899040E0
1.881965187E1,-2.330010176E0,1.582622409E0,-5.938037872E0
1.883058620E1,-1.973798394E0,1.332177162E0,-5.982572556E0
1.884152052E1,-1.622046947E0,1.035348177E0,-5.504678726E0
1.885245490E1,-1.366422176E0,5.694453716E-1,-4.904685020E0
1.886338922E1,-1.137620568E0,2.227909565E-1,-4.199399948E0
1.887432354E1,-8.667947054E-1,2.227504253E-1,-3.668230534E0
1.888525786E1,-5.464994907E-1,3.597685099E-1,-3.529172421E0
1.889619224E1,-1.343066692E-1,4.268790483E-1,-3.556560040E0
1.890712656E1,3.488357067E-1,2.635618448E-1,-3.586854458E0
1.891806088E1,8.837103844E-1,-2.348423004E-5,-3.353086472E0
1.892899526E1,7.647147179E-1,-3.343732357E-1,-2.861653328E0
1.893992958E1,2.772383690E-1,-7.386071682E-1,-2.308441639E0
1.895086390E1,-1.866929531E-1,-9.127038717E-1,-1.674520016E0
1.896179823E1,-1.072728634E-1,-1.124367237E0,-1.028276443E0
1.897273260E1,5.232515335E-1,-1.181430340E0,1.998043060E-2
1.898366693E1,8.902544975E-1,-7.893688679E-1,9.494085312E-1
1.899460125E1,1.074114084E0,-3.887367249E-1,1.650070190E0
1.900553557E1,6.721978188E-1,-1.094579697E-2,2.714112282E0
1.901646995E1,8.884072304E-2,6.432414055E-2,4.316948891E0
1.902740427E1,-4.217083454E-1,1.194221973E-1,6.284247398E0
1.903833859E1,-4.728095531E-1,2.172527313E-1,8.148914337E0
1.904927292E1,5.803005695E-1,3.786721230E-1,9.179674149E0
1.906020729E1,2.198214054E0,6.519508362E-2,9.236030579E0
1.907114161E1,2.222880602E0,8.359503746E-2,8.632383347E0
1.908207594E1,2.107064009E0,3.915140629E-1,7.703980446E0
1.909301026E1,2.404351711E0,1.035762906E0,7.208381653E0
1.910394463E1,3.121580124E0,1.430150628E0,6.939478874E0
1.911487896E1,3.708629131E0,1.472531080E0,6.598703384E0
1.912581328E1,4.599328041E0,8.395036459E-1,5.791713715E0
1.913674760E1,5.559606552E0,-3.459653854E-1,4.586299896E0
1.914768193E1,6.203886032E0,-1.667154551E0,3.384339333E0
1.915861630E1,6.330796242E0,-2.865432262E0,2.044748306E0
1.916955062E1,5.628802299E0,-3.892876625E0,4.523572922E-1
1.918048495E1,4.463184834E0,-4.563684940E0,-1.424940109E0
1.919141932E1,3.269431114E0,-4.668059826E0,-3.322010040E0
1.920235365E1,2.518387794E0,-4.398526192E0,-4.844913006E0
1.921328797E1,1.856026649E0,-3.994323969E0,-6.146305084E0
1.922422229E1,9.920558929E-1,-3.485312939E0,-7.289765358E0
1.923515661E1,-2.212786674E-1,-2.778443336E0,-7.733364582E0
1.924609099E1,-1.430763006E0,-1.904921889E0,-7.096241474E0
1.925702531E1,-2.290441513E0,-1.029824018E0,-5.944642067E0
1.926795963E1,-3.234571218E0,-1.148011684E-1,-5.065452576E0
1.927889396E1,-4.102258205E0,6.126224995E-1,-4.640899658E0
1.928982833E1,-4.736612797E0,1.119716048E0,-4.429907322E0
1.930076266E1,-5.247972965E0,1.547739387E0,-4.513719082E0
1.931169698E1,-5.589888573E0,1.860863805E0,-4.789278984E0
1.932263130E1,-5.839144230E0,2.090549231E0,-4.849800110E0
1.933356562E1,-5.891222000E0,2.018555403E0,-4.689957619E0
1.934450000E1,-5.747467995E0,2.007539988E0,-4.367910385E0
1.935543432E1,-5.357048035E0,1.941456318E0,-3.988340378E0
1.936636864E1,-4.626148224E0,1.813720822E0,-4.358003616E0
1.937730297E1,-3.882964849E0,1.537382841E0,-4.943140507E0
1.938823729E1,-3.241756678E0,1.442463160E0,-4.819118500E0
1.939917167E1,-2.550745010E0,1.464915514E0,-4.248419762E0
1.941010599E1,-1.978707314E0,1.587651253E0,-3.221823692E0
1.942104031E1,-1.552920341E0,1.696208954E0,-1.666665077E0
1.943197463E1,-1.478347421E0,1.865673661E0,-3.258447647E-1
1.944290901E1,-1.552850723E0,1.854690075E0,5.241813660E-1
1.945384333E1,-1.607846737E0,1.764566898E0,1.266282082E0
1.946477766E1,-1.464677215E0,1.760714650E0,2.039228439E0
1.947571198E1,-1.010421753E0,1.693884611E0,3.197302818E0
1.948664630E1,-9.661190510E-1,1.186748624E0,4.697386742E0
1.949758062E1,-1.448359728E0,3.545153141E-1,6.274061203E0
1.950851500E1,-1.938073397E0,-5.560081005E-1,7.620751381E0
1.951944932E1,-2.332089186E0,-1.247303963E0,8.310763359E0
1.953038364E1,-2.141665936E0,-1.692416430E0,8.460562706E0
1.954131797E1,-1.335307002E0,-1.682224989E0,8.234904289E0
1.955225234E1,-2.531480789E-1,-8.953096867E-1,7.376843452E0
1.956318667E1,2.098022223E0,2.227289677E-1,5.713199615E0
1.957412099E1,4.327406883E0,-5.786206722E-1,4.832248688E0
1.958505531E1,5.813383102E0,-1.521386623E0,5.215805054E0
1.959598963E1,6.169607162E0,-2.514795542E0,5.636569023E0
1.960692396E1,5.251567364E0,-3.472327948E0,5.476638794E0
1.961785833E1,3.371815920E0,-4.117445946E0,4.894486427E0
1.962879266E1,1.878321886E0,-4.637032509E0,4.290616989E0
1.963972698E1,1.217075109E0,-5.106889725E0,3.813557625E0
1.965066130E1,9.944355488E-1,-5.226552010E0,3.112299919E0
1.966159562E1,1.071192503E0,-4.688318253E0,1.765379906E0
1.967252995E1,1.075387716E0,-3.483819723E0,-5.312128067E-1
1.968346432E1,7.464866638E-1,-2.311176538E0,-2.766473293E0
1.969439864E1,1.440665722E-1,-1.435397148E0,-4.018779755E0
1.970533297E1,-5.113315582E-1,-9.187152386E-1,-4.129111290E0
1.971626729E1,-1.148929834E0,-6.027200222E-1,-3.491885662E0
1.972720161E1,-1.564288020E0,-5.067329407E-1,-2.830629826E0
1.973813599E1,-1.951376796E0,-3.417537212E-1,-1.804244041E0
1.974907031E1,-2.239181042E0,-1.991143227E-1,-9.693899155E-1
1.976000463E1,-2.229645252E0,-5.783557892E-2,-7.509851456E-1
1.977093896E1,-2.061414003E0,2.023723125E-1,-1.149493217E0
1.978187328E1,-1.627559900E0,3.899145126E-1,-2.113342285E0
1.979280760E1,-1.150002241E0,6.127257347E-1,-3.441274166E0
1.980374193E1,-6.578617096E-1,7.921206951E-1,-4.656381130E0
1.981467630E1,-6.594760418E-1,1.037312984E0,-5.235308647E0
1.982561062E1,-8.239204884E-1,1.214171410E0,-5.346692562E0
1.983654495E1,-1.034078360E0,1.448173046E0,-5.242753506E0
1.984747927E1,-1.055717707E0,1.563359261E0,-5.229979992E0
1.985841359E1,-6.802585125E-1,1.777267098E0,-5.189469337E0
1.986934792E1,-3.641669750E-1,2.069264412E0,-5.207708359E0
1.988028224E1,-2.038443089E-1,2.089958906E0,-4.890676022E0
1.989121661E1,-2.273874283E-1,2.035274982E0,-4.103910446E0
1.990215094E1,7.406544685E-2,1.875037313E0,-3.225797176E0
1.991308526E1,2.376079559E-1,1.715153098E0,-2.066012383E0
1.992401958E1,1.087937355E-1,1.277055264E0,-6.817378998E-1
1.993495390E1,-3.031563759E-1,6.146488190E-1,5.348539352E-1
1.994588823E1,-6.501493454E-1,-7.908010483E-2,1.432548523E0
1.995682255E1,-7.065472603E-1,-4.532048702E-1,2.087531090E0
1.996775687E1,-6.048722267E-1,-5.151839256E-1,2.532292366E0
1.997869125E1,-3.708841801E-1,-2.816474438E-1,2.780200958E0
1.998962557E1,1.232385635E-1,1.011066437E-1,2.605411530E0
2.000055995E1,3.717002869E-1,3.374369144E-1,2.320625305E0
2.001149422E1,3.835368156E-2,5.388088226E-1,2.211283684E0
2.002242854E1,-5.476865768E-1,5.666081905E-1,2.884197235E0
2.003336286E1,-1.036118031E0,7.213845253E-1,4.637327194E0
2.004429724E1,-5.692365170E-1,7.978789806E-1,6.664793015E0
2.005523156E1,7.128806114E-1,8.375873566E-1,8.237119675E0
2.006616588E1,2.473545790E0,1.013861656E0,8.433957100E0
2.007710021E1,4.450147629E0,1.000310183E0,7.278214455E0
2.008803453E1,5.221261024E0,1.000434637E0,5.858035088E0
2.009896885E1,5.093827248E0,1.167228222E0,5.071314812E0
2.010990318E1,4.633790016E0,9.221632481E-1,4.965592384E0
2.012083750E1,4.183823109E0,-2.855515480E-2,5.251964569E0
2.013177182E1,4.185485840E0,-1.322913408E0,5.479600906E0
2.014270620E1,4.491297245E0,-2.729990721E0,5.026990891E0
2.015364052E1,4.870953083E0,-3.964957714E0,3.450012207E0
2.016457484E1,5.314681053E0,-4.755369186E0,1.388833046E0
2.017550917E1,5.340702057E0,-5.050798416E0,-8.676986694E-1
2.018644349E1,5.013934135E0,-5.018017769E0,-3.180459023E0
2.019737781E1,4.486387253E0,-4.760177135E0,-5.243526459E0
2.020831213E1,3.348918915E0,-4.578389168E0,-7.066095352E0
2.021924646E1,1.526637554E0,-4.336127281E0,-8.172675133E0
2.023018078E1,-3.114752769E-1,-3.773003578E0,-8.284354210E0
2.024111510E1,-2.121305227E0,-2.536226749E0,-7.244091988E0
2.025204943E1,-3.132351160E0,-1.261070371E0,-5.780483723E0
2.026298375E1,-3.611785412E0,5.030822754E-2,-4.435105801E0
2.027391812E1,-3.731194735E0,1.133368492E0,-3.619414330E0
2.028485245E1,-3.596751213E0,1.771611333E0,-3.485500813E0
2.029578677E1,-3.508656979E0,2.075301886E0,-3.884158134E0
2.030672109E1,-3.632411003E0,2.296101093E0,-4.437914371E0
2.031765542E1,-3.556318045E0,2.281471014E0,-4.821623325E0
2.032858974E1,-3.598192215E0,2.252218723E0,-4.721324921E0
2.033952406E1,-3.589807272E0,2.257709265E0,-4.433346272E0
2.035045838E1,-3.601719141E0,2.213161945E0,-4.151337624E0
2.036139271E1,-3.648425102E0,2.230806112E0,-3.996076107E0
2.037232703E1,-3.417862177E0,2.290077686E0,-4.052111626E0
2.038326135E1,-3.147325039E0,2.542261124E0,-4.156993866E0
2.039419573E1,-2.647828102E0,2.810477972E0,-3.979833126E0
2.040513000E1,-1.850383520E0,3.054875851E0,-3.253317356E0
2.041606432E1,-7.352237701E-1,3.150898695E0,-1.643478394E0
2.042699870E1,-2.341470718E-1,2.854036808E0,6.765861511E-1
2.043793302E1,-4.304506779E-1,2.181236267E0,2.820218086E0
2.044886734E1,-7.545068264E-1,1.327326655E0,3.774763107E0
2.045980167E1,-1.444223404E0,6.469142437E-1,3.538456917E0
2.047073599E1,-2.485669136E0,5.770602226E-1,2.962827682E0
2.048167031E1,-2.883949995E0,3.861180544E-1,2.801004410E0
2.049260463E1,-2.923066616E0,3.489828110E-2,4.144609451E0
2.050353896E1,-2.814209938E0,-5.360217094E-1,6.395499229E0
2.051447328E1,-2.923534870E0,-1.126098394E0,8.294531822E0
2.052540760E1,-2.629427671E0,-1.662226677E0,9.503455162E0
2.053634193E1,-1.766095042E0,-1.874934673E0,9.725800514E0
2.054727625E1,-8.060317039E-1,-2.040187359E0,8.614534378E0
2.055821057E1,-1.640396118E-1,-1.522790194E0,7.131685257E0
2.056914490E1,7.495644093E-1,-6.140120029E-1,5.288466454E0
2.058007922E1,2.487619162E0,-3.248305321E-1,3.730231285E0
2.059101354E1,4.384304047E0,-7.348463535E-1,2.876326561E0
2.060194786E1,5.678958893E0,-2.132642746E0,2.637666702E0
2.061288219E1,5.598485947E0,-3.718686342E0,2.089922905E0
2.062381651E1,4.061925411E0,-4.991434097E0,1.772972107E0
2.063475083E1,1.918840170E0,-5.885950089E0,1.964300156E0
2.064568516E1,-2.653639317E-1,-5.938955307E0,2.480418205E0
2.065661948E1,-1.184310436E0,-5.461742401E0,1.939487457E0
2.066755380E1,-3.343451023E-1,-4.543431759E0,3.397331238E-1
2.067848818E1,1.120071888E0,-3.557768822E0,-1.623866081E0
2.068942250E1,1.925382137E0,-2.535947800E0,-3.313499451E0
2.070035682E1,2.224534750E0,-1.664763451E0,-4.426064491E0
2.071129114E1,2.066981077E0,-8.866801262E-1,-4.912592888E0
2.072222547E1,1.671510696E0,-2.661483288E-1,-4.872478962E0
2.073315979E1,1.079208374E0,2.098894119E-1,-4.136259556E0
2.074409411E1,1.863518953E-1,7.307727337E-1,-3.057409286E0
2.075502844E1,-3.706854582E-1,1.102516174E0,-2.314198971E0
2.076596276E1,-6.106667519E-1,1.406095982E0,-2.025523663E0
2.077689708E1,-8.724384904E-1,1.780570388E0,-2.146369457E0
2.078783141E1,-9.888142943E-1,2.110556364E0,-2.848455429E0
2.079876573E1,-1.235611916E0,2.456629515E0,-3.476022243E0
2.080970005E1,-1.306338906E0,2.736126900E0,-4.116129875E0
2.082063437E1,-1.159535885E0,2.932779074E0,-4.372737885E0
2.083156870E1,-6.642789841E-1,2.869740963E0,-3.754766464E0
2.084250302E1,-5.034465790E-1,2.777970314E0,-2.348176956E0
2.085343734E1,-5.825424194E-1,2.560738802E0,-9.211282730E-1
2.086437167E1,-9.027273655E-1,2.305466652E0,-1.167678833E-2
2.087530599E1,-1.210042953E0,2.044526339E0,3.731203079E-1
2.088624031E1,-1.449025273E0,1.704050303E0,4.068737030E-1
2.089717463E1,-1.690203071E0,1.536208391E0,4.447336197E-1
2.090810896E1,-1.753743172E0,1.299897909E0,1.087751389E-1
2.091904328E1,-1.444265127E0,9.795430303E-1,-7.781686783E-1
2.092997760E1,-4.924236536E-1,7.391520739E-1,-1.592801094E0
2.094091193E1,2.102363110E-1,4.454511404E-1,-1.972781181E0
2.095184625E1,2.723914385E-1,1.448665857E-1,-1.852881908E0
2.096278057E1,1.638804674E-1,-3.179847002E-1,-1.113906860E0
2.097371490E1,-7.580530643E-2,-8.804664612E-1,2.678709030E-1
2.098464922E1,-2.520310879E-2,-1.408874989E0,1.525850296E0
2.099558354E1,3.290120363E-1,-1.738912702E0,2.015013695E0
2.100651786E1,5.871055126E-1,-2.061873436E0,1.756292343E0
2.101745219E1,5.292776823E-1,-2.304283619E0,1.330820084E0
2.102838651E1,5.637655258E-1,-2.369359493E0,1.094678879E0
2.103932083E1,8.273825645E-1,-2.195002079E0,8.195610046E-1
2.105025516E1,1.267828226E0,-1.744507313E0,3.563623428E-1
2.106118948E1,1.747023344E0,-1.281667829E0,-2.476215363E-1
2.107212380E1,2.390827417E0,-1.408605695E0,-7.846317291E-1
2.108305807E1,2.776545048E0,-1.861787438E0,-8.255491257E-1
2.109399240E1,2.350847721E0,-2.132624626E0,1.803503036E-1
2.110492672E1,1.244370461E0,-1.953996301E0,1.417265892E0
2.111586104E1,1.342856884E-2,-1.659533143E0,1.908592224E0
2.112679536E1,-1.495986104E0,-1.235373735E0,2.142072678E0
2.113772969E1,-2.477486610E0,-9.760804176E-1,2.737963676E0
2.114866401E1,-2.991238594E0,-7.428007126E-1,3.671981812E0
2.115959833E1,-2.899654388E0,-3.586397171E-1,4.391546249E0
2.117053266E1,-1.808559656E0,-1.384718418E-1,3.964424133E0
2.118146698E1,-2.131819725E-3,-2.271924019E-1,2.594159126E0
2.119240130E1,1.694273233E0,-6.055829525E-1,1.213887215E0
2.120333562E1,2.615158081E0,-7.089090347E-1,2.695875168E-1
2.121426995E1,3.353961945E0,-9.687228203E-1,-4.397363663E-1
2.122520427E1,3.448072910E0,-1.038146019E0,-3.917980194E-1
2.123613859E1,3.058816195E0,-1.088108301E0,7.179403305E-1
2.124707292E1,2.448689938E0,-1.058553457E0,1.790223122E0
2.125800724E1,1.756471395E0,-9.972884655E-1,2.006049156E0
2.126894156E1,1.119624019E0,-8.914313316E-1,1.405415535E0
2.127987583E1,7.592384815E-1,-6.264446974E-1,3.846960068E-1
2.129081016E1,4.289646149E-1,-8.832132816E-2,-1.090482712E0
2.130174448E1,1.496670246E-1,2.596549392E-1,-3.091259003E0
2.131267880E1,-7.768058777E-2,4.557845592E-1,-4.781704426E0
2.132361312E1,-4.080970287E-1,7.640836239E-1,-5.425737381E0
2.133454745E1,-7.724068165E-1,1.096732259E0,-5.079863071E0
2.134548177E1,-3.094990253E-1,1.341426849E0,-3.804802895E0
2.135641609E1,2.924222946E-1,1.584583282E0,-2.904202461E0
2.136735042E1,5.562736988E-1,1.597068548E0,-2.779716492E0
2.137828474E1,6.677184105E-1,1.524365902E0,-3.116919994E0
2.138921901E1,7.040556669E-1,1.555466294E0,-3.411688805E0
2.140015338E1,8.730604649E-1,1.509786129E0,-3.868485928E0
2.141108771E1,8.317629099E-1,1.471773863E0,-4.195877075E0
2.142202198E1,2.518634796E-1,1.610347152E0,-3.977961063E0
2.143295630E1,5.650399923E-1,1.146550536E0,-3.640717983E0
2.144389062E1,2.370440960E-1,8.677662611E-1,-3.377689362E0
2.145482495E1,2.935284376E-1,3.662747145E-1,-2.449552536E0
2.146575927E1,-1.061043739E-1,1.187555492E-3,-6.463708878E-1
2.147669359E1,-1.232361078E0,-2.950037718E-1,5.072917938E-1
2.148762792E1,-2.533003330E0,-7.492592931E-1,4.179124832E-1
2.149856224E1,-4.055397511E0,-5.229505897E-1,2.221603394E-1
2.150949656E1,-2.788795948E0,-1.425832510E0,7.907581329E-2
2.152043083E1,-2.345494986E0,-1.623700976E0,3.535623550E-1
2.153136516E1,-1.780963778E0,-1.773507833E0,1.230484009E0
2.154229948E1,-8.492174745E-1,-1.781597614E0,2.615702629E0
2.155323380E1,2.262248099E-2,-1.704308152E0,4.062717438E0
2.156416812E1,8.193892241E-2,-1.233715296E0,4.587509155E0
2.157510245E1,-8.942449689E-1,-6.832634211E-1,4.080612183E0
2.158603677E1,-2.286864042E0,-1.751681566E-1,2.949007034E0
2.159697109E1,-1.618374705E0,-9.104322195E-1,1.974748611E0
2.160790542E1,4.356663823E-1,-1.234201908E0,1.679058075E0
2.161883969E1,2.012298107E0,-1.515566111E0,2.751462936E0
2.162977401E1,2.067535877E0,-1.423406601E0,3.796772957E0
2.164070833E1,1.152886868E0,-1.550232649E0,4.049258232E0
2.165164266E1,-3.900493681E-2,-2.242899418E0,3.326128960E0
2.166257698E1,-1.018934369E0,-2.801069736E0,2.169171333E0
2.167351130E1,-1.212125421E0,-2.833213329E0,1.058692932E0
2.168444562E1,-4.197265208E-1,-2.528054714E0,3.638935089E-2
2.169537990E1,7.930497527E-1,-2.405933857E0,-9.505310059E-1
2.170631422E1,9.871506691E-1,-1.416878700E0,-1.412327766E0
2.171724854E1,1.742519259E0,-4.200571179E-1,-1.675267220E0
2.172818286E1,3.647491932E0,6.267057061E-1,2.100467682E-2
2.173911719E1,2.811948299E0,1.869936347E0,3.936719894E-1
2.175005151E1,2.362576008E0,1.686444283E0,2.434797287E-1
2.176098583E1,1.599519968E0,1.121766090E0,-3.157358170E-1
2.177192016E1,1.062023163E0,1.114636302E0,-9.758625031E-1
2.178285443E1,-3.268098831E-2,1.024018526E0,-2.318129539E0
2.179378875E1,-9.664918184E-1,5.633863807E-1,-3.956235886E0
2.180472307E1,-4.549809694E-1,2.847957015E-1,-5.225172997E0
2.181565740E1,-3.268427849E-1,1.070754051E0,-4.586427212E0
2.182659172E1,-6.859490871E-1,1.580442429E0,-3.424025059E0
2.183752604E1,-7.860567570E-1,1.236204147E0,-3.346429348E0
2.184846031E1,-4.555146694E-1,9.818488955E-1,-2.771877766E0
2.185939463E1,-2.230067253E-1,9.109052420E-1,-2.697441101E0
2.187032896E1,-3.217557669E-1,9.961097240E-1,-2.566373348E0
2.188126328E1,-1.376712322E-1,1.161764145E0,-1.763234138E0
2.189219760E1,-2.374475002E-1,1.222657919E0,-1.018241882E0
2.190313193E1,-7.979875207E-1,1.204248071E0,-7.714653015E-1
2.191406620E1,-1.378099918E0,1.126671553E0,-1.112401962E0
2.192500052E1,-1.622767329E0,1.127846241E0,-1.865174294E0
2.193593484E1,-1.341524363E0,1.297527194E0,-2.568559647E0
