"Time (s)","Acceleration x (m/s^2)","Acceleration y (m/s^2)","Acceleration z (m/s^2)"
5.175997000E-3,-7.728816867E-1,2.108076811E0,9.171689034E0
1.392391400E-2,-1.131805062E0,2.218146563E0,1.031306553E1
2.392391400E-2,-1.730010748E0,2.557927370E0,1.088016415E1
3.392391400E-2,-1.718046665E0,2.742174864E0,1.100219822E1
4.392391400E-2,-1.526620865E0,2.639283419E0,1.152861977E1
5.392391400E-2,-1.490728498E0,2.366501570E0,1.200239849E1
6.392391400E-2,-1.127019525E0,2.074577332E0,1.244507027E1
7.392391400E-2,-1.028913736E0,1.895115495E0,1.243071365E1
8.392391400E-2,-4.618147612E-1,2.081755638E0,1.190429306E1
9.392391400E-2,-4.881358147E-1,2.450250387E0,1.116012478E1
1.039239140E-1,-4.522434771E-1,2.715853691E0,1.062413216E1
1.139239140E-1,-1.237089276E0,2.493321180E0,9.667003632E0
1.239239140E-1,-1.237089276E0,2.493321180E0,9.667003632E0
1.339239140E-1,-2.225325108E0,1.555334687E0,1.079402256E1
1.439239140E-1,-2.426322222E0,1.246660590E0,1.184925747E1
1.539239140E-1,-2.426322222E0,1.246660590E0,1.184925747E1
1.639239140E-1,-2.426322222E0,1.246660590E0,1.184925747E1
1.739239140E-1,-2.426322222E0,1.246660590E0,1.184925747E1
1.839239140E-1,-2.426322222E0,1.246660590E0,1.184925747E1
1.939239140E-1,-1.339980721E0,-1.088734269E0,1.366301727E1
2.039239140E-1,-1.155733347E0,-1.186840057E0,1.270828152E1
2.139239140E-1,-9.092726111E-1,-1.148554921E0,1.149751282E1
2.239239140E-1,-9.092726111E-1,-1.148554921E0,1.149751282E1
2.339239140E-1,-9.092726111E-1,-1.148554921E0,1.149751282E1
2.439239140E-1,-9.092726111E-1,-1.148554921E0,1.149751282E1
2.539239140E-1,-1.392622828E0,-6.460621208E-2,8.123632431E0
2.639239140E-1,-1.483550072E0,1.196411345E-2,8.305487633E0
2.739239140E-1,-2.155933142E0,1.914258152E-1,8.252845764E0
2.839239140E-1,-2.258824587E0,6.293123364E-1,8.099704742E0
2.939239140E-1,-2.258824587E0,6.293123364E-1,8.099704742E0
3.039239140E-1,-2.258824587E0,6.293123364E-1,8.099704742E0
3.139239140E-1,-2.258824587E0,6.293123364E-1,8.099704742E0
3.239239140E-1,-1.368694544E0,7.250252366E-1,8.772088051E0
3.339239140E-1,-1.349551916E0,7.776673436E-1,8.834300995E0
3.439239140E-1,-1.359123230E0,9.547362328E-1,9.174081802E0
3.539239140E-1,-1.469193101E0,1.036092162E0,9.748359680E0
3.639239140E-1,-1.414158225E0,1.148554921E0,9.889535904E0
3.739239140E-1,-1.007378340E0,9.547362328E-1,9.774680138E0
3.839239140E-1,-7.202396393E-1,6.987041831E-1,9.609575272E0
3.939239140E-1,-3.756731451E-1,3.924229145E-1,9.166903496E0
4.039239140E-1,-3.349951655E-2,1.938186288E-1,8.477770805E0
4.139239140E-1,2.608176768E-1,5.982056633E-2,7.786244869E0
4.239239140E-1,4.689932466E-1,2.392822644E-3,7.329215527E0
4.339239140E-1,3.158525825E-1,1.603191197E-1,6.927221775E0
4.439239140E-1,1.435693540E-2,2.991028428E-1,6.833901405E0
4.539239140E-1,-1.555334777E-1,4.666004181E-1,6.831508636E0
4.639239140E-1,-2.560320199E-1,4.546363056E-1,6.955935478E0
4.739239140E-1,-2.344966233E-1,3.421736360E-1,7.389036179E0
4.839239140E-1,-2.273181528E-1,2.871387303E-1,7.762316704E0
4.939239140E-1,-2.177468538E-1,4.139583111E-1,7.980063438E0
5.039239140E-1,-1.890329868E-1,8.327022791E-1,8.365307808E0
5.139239140E-1,-1.555334777E-1,1.028913736E0,8.671588898E0
5.239239140E-1,-5.742774159E-2,1.253839016E0,8.968298912E0
5.339239140E-1,4.785645287E-3,1.342373490E0,9.243474007E0
5.439239140E-1,-1.196411327E-1,1.493121386E0,9.442078590E0
5.539239140E-1,-3.541377485E-1,1.667797327E0,9.571290970E0
5.639239140E-1,-6.197410822E-1,1.873580098E0,9.717252731E0
5.739239140E-1,-7.537391186E-1,2.464607239E0,9.748359680E0
5.839239140E-1,-7.657032609E-1,2.670390129E0,9.659825325E0
5.939239140E-1,-6.939185858E-1,2.816352367E0,9.487542152E0
6.039239140E-1,-6.149554253E-1,2.907279491E0,9.332008362E0
6.139239140E-1,-4.211367965E-1,3.184846878E0,9.367900848E0
6.239239140E-1,-5.359922647E-1,3.409772158E0,9.664610863E0
6.339239140E-1,-7.322037220E-1,3.483949661E0,1.028913784E1
6.439239140E-1,-5.479564071E-1,2.373680115E0,1.211246777E1
6.539239140E-1,-1.196411345E-2,1.966900229E0,1.256949711E1
6.639239140E-1,3.613162339E-1,1.526620865E0,1.312463188E1
6.739239140E-1,6.723831892E-1,6.293123364E-1,1.339980698E1
6.839239140E-1,1.296909928E0,4.331009090E-1,1.386401463E1
6.939239140E-1,1.383051515E0,-1.268195957E-1,1.346201992E1
7.039239140E-1,1.375872970E0,-6.819544435E-1,1.240439224E1
7.139239140E-1,1.375872970E0,-6.819544435E-1,1.240439224E1
7.239239140E-1,1.375872970E0,-6.819544435E-1,1.240439224E1
7.339239140E-1,1.375872970E0,-6.819544435E-1,1.240439224E1
7.439239140E-1,1.375872970E0,-6.819544435E-1,1.240439224E1
7.539239140E-1,4.761717021E-1,2.404786825E0,1.040638542E1
7.639239140E-1,2.703889608E-1,1.789831281E0,1.091844940E1
7.739239140E-1,3.445664644E-1,1.234696507E0,1.176790142E1
7.839239140E-1,3.445664644E-1,1.234696507E0,1.176790142E1
7.939239140E-1,3.445664644E-1,1.234696507E0,1.176790142E1
8.039239140E-1,3.445664644E-1,1.234696507E0,1.176790142E1
8.139239140E-1,-9.355936646E-1,-8.614161611E-1,1.132283688E1
8.239239140E-1,-9.355936646E-1,-1.198804140E0,1.175354481E1
8.339239140E-1,-9.355936646E-1,-1.198804140E0,1.175354481E1
8.439239140E-1,-4.929214716E-1,-1.203589797E0,1.219861031E1
8.539239140E-1,-4.929214716E-1,-1.203589797E0,1.219861031E1
8.639239140E-1,-4.929214716E-1,-1.203589797E0,1.219861031E1
8.739239140E-1,-4.929214716E-1,-1.203589797E0,1.219861031E1
8.839239140E-1,-4.929214716E-1,-1.203589797E0,1.219861031E1
8.939239140E-1,7.872386575E-1,-7.154539824E-1,7.922635555E0
9.039239140E-1,4.187439680E-1,-6.939185858E-1,6.798008919E0
9.139239140E-1,2.273181528E-1,-4.235295951E-1,6.080162525E0
9.239239140E-1,2.273181528E-1,-4.235295951E-1,6.080162525E0
9.339239140E-1,2.273181528E-1,-4.235295951E-1,6.080162525E0
9.439239140E-1,-1.304088354E0,6.077769399E-1,6.372086525E0
9.539239140E-1,-1.304088354E0,6.077769399E-1,6.372086525E0
9.639239140E-1,-7.082754970E-1,3.948157430E-1,7.094718933E0
9.739239140E-1,-1.746760458E-1,1.004985496E-1,7.489534855E0
9.839239140E-1,3.421736360E-1,-1.914258152E-1,7.836493969E0
9.939239140E-1,3.421736360E-1,-1.914258152E-1,7.836493969E0
1.003923914E0,3.421736360E-1,-1.914258152E-1,7.836493969E0
1.013923914E0,3.852444589E-1,9.332008660E-2,9.183652878E0
1.023923914E0,1.603191197E-1,2.823530734E-1,9.123832703E0
1.033923914E0,-6.436693072E-1,3.852444589E-1,8.099704742E0
1.043923914E0,-3.110669367E-2,7.920243144E-1,8.078168869E0
1.053923914E0,-8.135596663E-2,1.076770186E0,7.996813297E0
1.063923914E0,-8.135596663E-2,1.076770186E0,7.996813297E0
1.073923914E0,-7.824530005E-1,1.557727575E0,7.475177765E0
1.083923914E0,-7.824530005E-1,1.557727575E0,7.475177765E0
1.093923914E0,1.004985496E-1,1.665404558E0,8.137989998E0
1.103923914E0,1.938186288E-1,1.196411371E0,8.628518105E0
1.113923914E0,2.871387079E-2,1.639083505E0,8.535198212E0
1.123923914E0,-3.373879790E-1,2.237289190E0,8.977870941E0
1.133923914E0,-5.742774606E-1,2.366501570E0,1.004028416E1
1.143923914E0,-2.033899277E-1,2.062613010E0,1.006660461E1
1.153923914E0,2.033899277E-1,1.926222205E0,1.015274620E1
1.163923914E0,5.623133183E-1,1.957328916E0,1.036092186E1
1.173923914E0,5.934200287E-1,1.981257200E0,1.072941685E1
1.183923914E0,3.613162339E-1,1.864008784E0,1.099262714E1
1.193923914E0,4.785645381E-2,1.691725612E0,1.123430252E1
1.203923914E0,-7.633104324E-1,1.371087432E0,1.169851017E1
1.213923914E0,-1.076770186E0,1.229910851E0,1.163390350E1
1.223923914E0,-1.284945726E0,1.194018483E0,1.149512005E1
1.233923914E0,-1.335195065E0,1.184447169E0,1.122233772E1
1.243923914E0,-1.174875975E0,1.249053478E0,1.097827053E1
1.253923914E0,-1.071984529E0,1.347159147E0,1.105962658E1
1.263923914E0,-1.103091240E0,1.430907965E0,1.124626637E1
1.273923914E0,-1.483550072E0,1.485942841E0,1.137308598E1
1.283923914E0,-1.514656782E0,1.361516118E0,1.140897846E1
1.293923914E0,-1.588834286E0,1.261017561E0,1.138744259E1
1.303923914E0,-1.797009826E0,1.165304661E0,1.151426220E1
1.313923914E0,-2.093719721E0,1.004985452E0,1.169372463E1
1.323923914E0,-2.524427891E0,8.327022791E-1,1.176311588E1
1.333923914E0,-2.979064226E0,7.034898400E-1,1.163868904E1
1.343923914E0,-3.172882795E0,4.378865361E-1,1.110987568E1
1.353923914E0,-2.859423161E0,4.354937077E-1,1.102373409E1
1.363923914E0,-2.366501570E0,4.331009090E-1,1.090887833E1
1.373923914E0,-1.840080619E0,4.570291340E-1,1.085623646E1
1.383923914E0,-1.438086390E0,4.713860750E-1,1.082273674E1
1.393923914E0,-1.304088354E0,4.977070987E-1,1.080120182E1
1.403923914E0,-1.426122308E0,5.264210105E-1,1.071027374E1
1.413923914E0,-1.847259045E0,4.594219327E-1,1.035135078E1
1.423923914E0,-1.957328916E0,3.684946895E-1,1.010967541E1
1.433923914E0,-2.057827473E0,2.105683982E-1,9.834501266E0
1.443923914E0,-2.218146563E0,4.067798331E-2,9.542576790E0
1.453923914E0,-2.519642353E0,-8.135596663E-2,9.343972206E0
1.463923914E0,-2.804388046E0,-2.225325108E-1,9.154939651E0
1.473923914E0,-3.019742250E0,-4.235295951E-1,8.831908226E0
1.483923914E0,-3.019742250E0,-4.235295951E-1,8.831908226E0
1.493923914E0,-3.019742250E0,-4.235295951E-1,8.831908226E0
1.503923914E0,-3.019742250E0,-4.235295951E-1,8.831908226E0
1.513923914E0,-3.019742250E0,-4.235295951E-1,8.831908226E0
1.523923914E0,-2.775674343E0,9.810572863E-2,7.116254330E0
1.533923914E0,-2.533999205E0,2.081755698E-1,7.087540627E0
1.543923914E0,-2.309073925E0,3.014956415E-1,7.140182972E0
1.553923914E0,-2.309073925E0,3.014956415E-1,7.140182972E0
1.563923914E0,-2.309073925E0,3.014956415E-1,7.140182972E0
1.573923914E0,-1.447657704E0,3.302095234E-1,8.140382767E0
1.583923914E0,-1.387837172E0,4.378865361E-1,8.298309326E0
1.593923914E0,-1.387837172E0,4.378865361E-1,8.298309326E0
1.603923914E0,-1.607976794E0,5.024927258E-1,8.662017822E0
1.613923914E0,-1.639083505E0,5.670989752E-1,8.965906143E0
1.623923914E0,-1.639083505E0,5.670989752E-1,8.965906143E0
1.633923914E0,-1.639083505E0,5.670989752E-1,8.965906143E0
1.643923914E0,-1.201196909E0,2.464607358E-1,8.535198212E0
1.653923914E0,-1.103091240E0,3.493520916E-1,8.434700012E0
1.663923914E0,-1.292124271E0,6.340979934E-1,8.408378601E0
1.673923914E0,-1.462014675E0,8.829515576E-1,8.348558426E0
1.683923914E0,-1.524227977E0,1.009771109E0,8.169096947E0
1.693923914E0,-1.524227977E0,1.009771109E0,8.169096947E0
1.703923914E0,-1.524227977E0,1.009771109E0,8.169096947E0
1.713923914E0,-1.344766378E0,8.039883971E-1,7.781459332E0
1.723923914E0,-1.289731383E0,9.332008362E-1,7.424928665E0
1.733923914E0,-1.481157184E0,1.167697430E0,7.360322475E0
1.743923914E0,-1.550549030E0,1.612762451E0,7.302894592E0
1.753923914E0,-1.866401672E0,2.122433662E0,7.501499176E0
1.763923914E0,-1.866401672E0,2.122433662E0,7.501499176E0
1.773923914E0,-3.148954630E0,3.318845034E0,8.640482903E0
1.783923914E0,-3.187239647E0,3.345165968E0,8.614161491E0
1.793923914E0,-3.132204771E0,3.225524902E0,8.487341881E0
1.803923914E0,-2.555534601E0,2.933600664E0,8.530412674E0
1.813923914E0,-1.591227055E0,2.586641312E0,8.664410591E0
1.823923914E0,-1.194018483E0,2.641676188E0,8.798408508E0
1.833923914E0,-1.677368641E0,3.000599623E0,9.463613510E0
1.843923914E0,-2.043470621E0,2.758924484E0,1.008096218E1
1.853923914E0,-2.498106956E0,2.400001049E0,1.096152020E1
1.863923914E0,-2.514856577E0,2.275574446E0,1.181575775E1
1.873923914E0,-2.266003132E0,2.076970100E0,1.234935760E1
1.883923914E0,-1.715653777E0,1.646261930E0,1.249053383E1
1.893923914E0,-9.810572863E-1,1.658226132E0,1.253360462E1
1.903923914E0,-1.016949654E0,1.875972986E0,1.180857944E1
1.913923914E0,-1.311266780E0,1.890329838E0,1.124865913E1
1.923923914E0,-1.765903115E0,1.926222205E0,1.096152020E1
1.933923914E0,-2.311466694E0,1.871187329E0,1.082752228E1
1.943923914E0,-2.852244616E0,1.890329838E0,1.085862923E1
1.953923914E0,-3.187239647E0,1.986042738E0,1.067916775E1
1.963923914E0,-3.555734396E0,2.220539331E0,1.023410225E1
1.973923914E0,-4.280759811E0,2.904886723E0,9.468399048E0
1.983923914E0,-4.450650215E0,3.096312523E0,9.583254814E0
1.993923914E0,-4.606183529E0,2.797209740E0,1.008814049E1
2.003923914E0,-3.237488985E0,1.873580098E0,1.115533924E1
2.013923914E0,-2.407179594E0,1.598405480E0,1.197607708E1
2.023923914E0,-3.014956474E0,1.842473388E0,1.232303619E1
2.033923914E0,-3.610769272E0,1.548156261E0,1.238525009E1
2.043923914E0,-3.610769272E0,1.548156261E0,1.238525009E1
2.053923914E0,-3.610769272E0,1.548156261E0,1.238525009E1
2.063923914E0,-2.706282377E0,6.963114142E-1,1.030827999E1
2.073923914E0,-2.459821701E0,8.542376757E-1,9.743574142E0
2.083923914E0,-2.179861546E0,9.882357717E-1,9.516255379E0
2.093923914E0,-2.352144718E0,1.083948612E0,9.724431038E0
2.103923914E0,-2.620140791E0,9.858429432E-1,9.497113228E0
2.113923914E0,-2.620140791E0,9.858429432E-1,9.497113228E0
2.123923914E0,-2.620140791E0,9.858429432E-1,9.497113228E0
2.133923914E0,-1.280160069E0,7.633104324E-1,6.683153629E0
2.143923914E0,-1.536192179E0,9.523434043E-1,7.099504948E0
2.153923914E0,-2.646461725E0,1.356730461E0,7.719245911E0
2.163923914E0,-3.481556892E0,1.462014675E0,8.214560509E0
2.173923914E0,-3.739981890E0,1.129412293E0,8.341380119E0
2.183923914E0,-3.739981890E0,1.129412293E0,8.341380119E0
2.193923914E0,-4.467400074E0,1.567298889E0,8.377271652E0
2.203923914E0,-4.149154663E0,1.634297848E0,7.549355507E0
2.213923914E0,-3.986442566E0,1.952543259E0,7.025327206E0
2.223923914E0,-4.237689018E0,2.088934183E0,7.233502865E0
2.233923914E0,-4.713860512E0,2.088934183E0,7.317251682E0
2.243923914E0,-4.778466702E0,1.909472466E0,6.556334019E0
2.253923914E0,-4.778466702E0,1.909472466E0,6.556334019E0
2.263923914E0,-4.914857864E0,2.050648928E0,3.799802303E0
2.273923914E0,-4.364508629E0,2.065006018E0,3.337987661E0
2.283923914E0,-3.696911097E0,2.182254314E0,2.849851847E0
2.293923914E0,-2.947957516E0,2.495713949E0,2.220539331E0
2.303923914E0,-2.713460922E0,3.122633457E0,1.622333765E0
2.313923914E0,-3.704089403E0,2.811566591E0,2.036292076E0
2.323923914E0,-5.424529076E0,1.919043779E0,8.126026154E0
2.333923914E0,-4.733003139E0,1.028913736E0,7.726424217E0
2.343923914E0,-4.558327198E0,1.055234790E0,6.211767673E0
2.353923914E0,-4.350151539E0,7.034898400E-1,5.402993679E0
2.363923914E0,-4.969892502E0,1.014556766E0,5.749952793E0
2.373923914E0,-4.969892502E0,1.249053478E0,6.632904530E0
2.383923914E0,-4.850251675E0,1.665404558E0,7.525427341E0
2.393923914E0,-5.541777134E0,2.720639229E0,8.853444099E0
2.403923914E0,-6.388836384E0,3.168097258E0,9.272188187E0
2.413923914E0,-6.479763508E0,2.266003132E0,9.667003632E0
2.423923914E0,-6.709474564E0,1.182054400E0,9.262616158E0
2.433923914E0,-6.467799664E0,2.967100143E-1,8.458627701E0
2.443923914E0,-6.431907177E0,1.962114573E-1,8.312665939E0
2.453923914E0,-6.943971157E0,8.566305041E-1,8.803194046E0
2.463923914E0,-6.991827965E0,3.192025423E0,1.125583744E1
2.473923914E0,-5.843272686E0,3.996013880E0,1.185643578E1
2.483923914E0,-4.354937077E0,4.101297855E0,1.078684425E1
2.493923914E0,-3.515056372E0,3.957728624E0,9.868000984E0
2.503923914E0,-3.751945972E0,3.787838221E0,9.580862045E0
2.513923914E0,-4.505684853E0,3.687339783E0,9.499505997E0
2.523923914E0,-5.429314613E0,3.500699520E0,9.738788605E0
2.533923914E0,-6.398407936E0,2.792423964E0,9.643074989E0
2.543923914E0,-6.417550564E0,2.495713949E0,8.714659691E0
2.553923914E0,-6.417550564E0,2.495713949E0,8.714659691E0
2.563923914E0,-6.417550564E0,2.495713949E0,8.714659691E0
2.573923914E0,-5.489135265E0,2.033899307E0,8.561519623E0
2.583923914E0,-6.819544315E0,2.703889608E0,8.755337715E0
2.593923914E0,-7.776673794E0,3.445664644E0,9.346364975E0
2.603923914E0,-7.776673794E0,3.445664644E0,9.346364975E0
2.613923914E0,-7.776673794E0,3.445664644E0,9.346364975E0
2.623923914E0,-7.776673794E0,3.445664644E0,9.346364975E0
2.633923914E0,-5.709274769E0,8.135597110E-1,1.019820976E1
2.643923914E0,-5.938985825E0,6.125625968E-1,1.097348499E1
2.653923914E0,-5.642275810E0,2.823530734E-1,1.153340530E1
2.663923914E0,-5.072783947E0,-2.392822690E-2,1.177029419E1
2.673923914E0,-5.072783947E0,-2.392822690E-2,1.177029419E1
2.683923914E0,-5.072783947E0,-2.392822690E-2,1.177029419E1
2.693923914E0,-2.215753794E0,-2.658426046E0,1.049252701E1
2.703923914E0,-3.646661758E0,-1.172483087E0,1.006181908E1
2.713923914E0,-4.187439442E0,2.105683982E-1,9.028120041E0
2.723923914E0,-4.610969067E0,7.824530005E-1,8.109275818E0
2.733923914E0,-4.213760853E0,8.494520187E-1,7.511070251E0
2.743923914E0,-4.213760853E0,8.494520187E-1,7.511070251E0
2.753923914E0,-3.366701365E0,2.153540403E-2,7.144968510E0
2.763923914E0,-3.366701365E0,2.153540403E-2,7.144968510E0
2.773923914E0,-3.060420275E0,1.674975827E-2,8.025527000E0
2.783923914E0,-2.493321180E0,-3.230310678E-1,8.676374435E0
2.793923914E0,-2.009970903E0,-3.541377485E-1,8.683553696E0
2.803923914E0,-1.579262972E0,-2.440679073E-1,8.425128937E0
2.813923914E0,-8.159525394E-1,-2.584248483E-1,7.661818027E0
2.823923914E0,-6.604190469E-1,-1.483550072E-1,7.097112179E0
2.833923914E0,-8.398807645E-1,1.555334777E-1,6.790830612E0
2.843923914E0,-1.483550072E0,7.250252366E-1,6.927221775E0
2.853923914E0,-2.158325911E0,1.179661512E0,7.283751965E0
2.863923914E0,-2.440679073E0,1.418943882E0,7.324429989E0
2.873923914E0,-2.313859463E0,1.521835208E0,6.396014690E0
2.883923914E0,-2.682354212E0,1.794616938E0,4.747360229E0
2.893923914E0,-2.682354212E0,1.794616938E0,4.747360229E0
2.903923914E0,-2.945564747E0,1.847259045E0,5.718846321E0
2.913923914E0,-2.907279491E0,1.880758643E0,6.348158360E0
2.923923914E0,-2.675175667E0,1.978864312E0,7.171289444E0
2.933923914E0,-2.299502611E0,2.112862349E0,7.853243828E0
2.943923914E0,-2.103291035E0,1.722832322E0,8.030312538E0
2.953923914E0,-2.689532757E0,1.660618901E0,8.329415321E0
2.963923914E0,-3.247060299E0,2.600998163E0,9.600004196E0
2.973923914E0,-3.500699520E0,2.684746981E0,9.707681656E0
2.983923914E0,-3.419343472E0,2.715853691E0,9.884750366E0
2.993923914E0,-3.208775282E0,2.754138947E0,1.012881851E1
3.003923914E0,-2.878565550E0,2.734996319E0,1.013121128E1
3.013923914E0,-2.545963287E0,2.739781857E0,1.017667484E1
3.023923914E0,-2.160718918E0,2.514856577E0,1.024128056E1
3.033923914E0,-1.792224169E0,2.179861546E0,1.025563812E1
3.043923914E0,-1.354337573E0,1.823330879E0,1.060259724E1
3.053923914E0,-1.014556766E0,1.509871125E0,1.138504982E1
3.063923914E0,-8.638089895E-1,1.402194023E0,1.214596748E1
3.073923914E0,-6.077769399E-1,1.502692580E0,1.253121185E1
3.083923914E0,-2.344966233E-1,1.756331801E0,1.267717457E1
3.093923914E0,2.153540403E-1,1.990828395E0,1.125105190E1
3.103923914E0,4.498506486E-1,1.610369682E0,1.075095177E1
3.113923914E0,5.862415433E-1,1.110269666E0,1.067198944E1
3.123923914E0,3.278166950E-1,8.015955687E-1,1.074377346E1
3.133923914E0,-5.862415433E-1,1.024128079E0,1.083470058E1
3.143923914E0,-1.663011789E0,1.545763373E0,1.089452171E1
3.153923914E0,-1.663011789E0,1.545763373E0,1.089452171E1
3.163923914E0,-1.663011789E0,1.545763373E0,1.089452171E1
3.173923914E0,-7.944171429E-1,1.502692580E0,1.174397373E1
3.183923914E0,-2.703889608E-1,1.627119422E0,1.150469112E1
3.193923914E0,-2.703889608E-1,1.627119422E0,1.150469112E1
3.203923914E0,-3.349951655E-2,2.266003132E0,1.119601727E1
3.213923914E0,-1.196411327E-1,2.043470621E0,1.110987568E1
3.223923914E0,-3.493520916E-1,1.686939955E0,1.116491032E1
3.233923914E0,-3.493520916E-1,1.686939955E0,1.116491032E1
3.243923914E0,-3.493520916E-1,1.686939955E0,1.116491032E1
3.253923914E0,-3.493520916E-1,1.686939955E0,1.116491032E1
3.263923914E0,-1.043270707E0,2.105683982E-1,1.000199890E1
3.273923914E0,-1.045663476E0,2.871387303E-1,9.717252731E0
3.283923914E0,-8.494520187E-1,4.761717021E-1,9.757930756E0
3.293923914E0,-5.072783828E-1,7.226324677E-1,9.623932838E0
3.303923914E0,-5.072783828E-1,7.226324677E-1,9.623932838E0
3.313923914E0,-5.072783828E-1,7.226324677E-1,9.623932838E0
3.323923914E0,1.095912814E0,7.298108935E-1,7.814958572E0
3.333923914E0,1.071984529E0,7.106683254E-1,7.525427341E0
3.343923914E0,8.183453679E-1,6.915257573E-1,7.393822193E0
3.353923914E0,5.958128572E-1,7.106683254E-1,7.310073376E0
3.363923914E0,4.378865361E-1,6.532405615E-1,7.183253765E0
3.373923914E0,4.378865361E-1,6.532405615E-1,7.183253765E0
3.383923914E0,-2.177468538E-1,1.160519004E0,7.458428383E0
3.393923914E0,-3.014956415E-1,1.337587833E0,7.405786037E0
3.403923914E0,-3.397808075E-1,1.533799291E0,7.240681171E0
3.413923914E0,-3.684946895E-1,1.653440475E0,7.183253765E0
3.423923914E0,-3.732803464E-1,1.708475351E0,7.274180889E0
3.433923914E0,-3.373879790E-1,1.703689694E0,7.420143127E0
3.443923914E0,-3.373879790E-1,1.703689694E0,7.420143127E0
3.453923914E0,-3.373879790E-1,1.703689694E0,7.420143127E0
3.463923914E0,-7.609176040E-1,2.093719721E0,7.262216568E0
3.473923914E0,-6.508477330E-1,2.143969059E0,7.350750923E0
3.483923914E0,-5.192425251E-1,2.184647083E0,7.530212879E0
3.493923914E0,-5.096712112E-1,2.299502611E0,7.685746193E0
3.503923914E0,-5.814558864E-1,2.443071842E0,7.968099594E0
3.513923914E0,-2.344966233E-1,2.620140791E0,8.350951195E0
3.523923914E0,3.110669367E-2,2.694318295E0,8.592626572E0
3.533923914E0,3.014956415E-1,2.794816732E0,8.908478737E0
3.543923914E0,5.886343718E-1,2.895315409E0,9.276973724E0
3.553923914E0,7.872386575E-1,2.974278450E0,9.580862045E0
3.563923914E0,7.393822074E-1,2.950350285E0,9.755537987E0
3.573923914E0,6.867401004E-1,2.835494757E0,9.920642853E0
3.583923914E0,9.810572863E-2,2.488535643E0,1.010010433E1
3.593923914E0,-4.139583111E-1,2.380858421E0,1.010728264E1
3.603923914E0,-7.537391186E-1,2.352144718E0,1.002114105E1
3.613923914E0,-1.057627559E0,2.452643156E0,9.762716293E0
3.623923914E0,-1.232303619E0,2.660818815E0,9.518648148E0
3.633923914E0,-1.234696507E0,2.873780012E0,9.401400566E0
3.643923914E0,-1.174875975E0,3.031706333E0,9.422935486E0
3.653923914E0,-1.076770186E0,3.251846075E0,9.796216011E0
3.663923914E0,-1.067198873E0,3.369094372E0,9.946963310E0
3.673923914E0,-9.978070259E-1,3.378665686E0,1.035613632E1
3.683923914E0,-1.043270707E0,3.199203968E0,1.077966595E1
3.693923914E0,-1.043270707E0,3.199203968E0,1.077966595E1
3.703923914E0,-1.220339537E0,2.529213428E0,1.134197903E1
3.713923914E0,-1.538584948E0,2.230110645E0,1.151426220E1
3.723923914E0,-1.538584948E0,2.230110645E0,1.151426220E1
3.733923914E0,-1.538584948E0,2.230110645E0,1.151426220E1
3.743923914E0,-1.538584948E0,2.230110645E0,1.151426220E1
3.753923914E0,-3.105883837E0,2.512463808E0,1.055234814E1
3.763923914E0,-2.423929453E0,2.409572363E0,1.058824062E1
3.773923914E0,-1.567298889E0,2.378465652E0,1.081555843E1
3.783923914E0,-1.016949654E0,2.354537487E0,1.115294647E1
3.793923914E0,-1.016949654E0,2.354537487E0,1.115294647E1
3.803923914E0,-1.016949654E0,2.354537487E0,1.115294647E1
3.813923914E0,-1.016949654E0,2.354537487E0,1.115294647E1
3.823923914E0,-1.895115495E0,8.015955687E-1,1.289970684E1
3.833923914E0,-1.959721804E0,-1.028913707E-1,1.223450184E1
3.843923914E0,-1.631905079E0,-8.949156404E-1,1.146401310E1
3.853923914E0,-1.402194023E0,-1.359123230E0,1.052124119E1
3.863923914E0,-1.402194023E0,-1.359123230E0,1.052124119E1
3.873923914E0,-1.402194023E0,-1.359123230E0,1.052124119E1
3.883923914E0,-1.880758643E0,1.052841991E-1,7.664210796E0
3.893923914E0,-1.576870084E0,3.038884699E-1,7.054041386E0
3.903923914E0,-1.313659668E0,4.474578202E-1,6.503692150E0
3.913923914E0,-1.189232826E0,5.670989752E-1,6.108876228E0
3.923923914E0,-1.138983607E0,6.436693072E-1,5.972485542E0
3.933923914E0,-1.138983607E0,6.436693072E-1,5.972485542E0
3.943923914E0,-1.138983607E0,6.436693072E-1,5.972485542E0
3.953923914E0,-6.963114142E-1,2.081755698E-1,7.424928665E0
3.963923914E0,-3.373879790E-1,-6.699903309E-2,7.872386456E0
3.973923914E0,-1.555334777E-1,-3.397808075E-1,8.334200859E0
3.983923914E0,-3.397808075E-1,-4.067798555E-1,8.379665375E0
3.993923914E0,-7.776673436E-1,-3.326023519E-1,8.286344528E0
4.003923914E0,-7.776673436E-1,-3.326023519E-1,8.286344528E0
4.013923914E0,-1.289731383E0,6.939185411E-2,8.700303078E0
4.023923914E0,-1.174875975E0,1.890329868E-1,8.937192917E0
4.033923914E0,-8.446664214E-1,2.751746178E-1,9.253045082E0
4.043923914E0,-5.694918036E-1,3.230310678E-1,9.456435204E0
4.053923914E0,-4.785645306E-1,4.187439680E-1,9.446864128E0
4.063923914E0,-5.048855543E-1,5.144568682E-1,9.372686386E0
4.073923914E0,-5.551348329E-1,5.934200287E-1,9.128618240E0
4.083923914E0,-6.532405615E-1,7.585247755E-1,8.760123253E0
4.093923914E0,-8.709874153E-1,1.076770186E0,8.243273735E0
4.103923914E0,-1.122233868E0,1.380658627E0,7.795815945E0
4.113923914E0,-1.232303619E0,1.483550072E0,7.611568928E0
4.123923914E0,-1.304088354E0,1.550549030E0,7.503891945E0
4.133923914E0,-1.361516118E0,1.603191137E0,7.525427341E0
4.143923914E0,-1.375872970E0,1.777867198E0,8.035098076E0
4.153923914E0,-1.325623751E0,1.854437590E0,8.465806961E0
4.163923914E0,-1.136590719E0,1.761117458E0,8.922835350E0
4.173923914E0,-1.052842021E0,1.603191137E0,9.451649666E0
4.183923914E0,-1.203589797E0,1.519442320E0,9.937392235E0
4.193923914E0,-1.368694544E0,1.495514154E0,1.049491978E1
4.203923914E0,-1.342373490E0,1.383051515E0,1.095434189E1
4.213923914E0,-8.303094506E-1,1.000199914E0,1.102612686E1
4.223923914E0,-5.694918036E-1,9.571290612E-1,1.083709335E1
4.233923914E0,-5.694918036E-1,9.571290612E-1,1.083709335E1
4.243923914E0,-5.694918036E-1,9.571290612E-1,1.083709335E1
4.253923914E0,-8.709874153E-1,1.316052437E0,1.115294647E1
4.263923914E0,-9.475577474E-1,1.222732425E0,1.168415260E1
4.273923914E0,-9.475577474E-1,1.222732425E0,1.168415260E1
4.283923914E0,-9.475577474E-1,1.222732425E0,1.168415260E1
4.293923914E0,-9.475577474E-1,1.222732425E0,1.168415260E1
4.303923914E0,-9.475577474E-1,1.222732425E0,1.168415260E1
4.313923914E0,-9.690931439E-1,1.016949654E0,1.207657623E1
4.323923914E0,-6.173482537E-1,9.308080077E-1,1.188993549E1
4.333923914E0,-4.259224236E-1,1.024128079E0,1.187797165E1
4.343923914E0,-2.416750938E-1,1.009771109E0,1.217946720E1
4.353923914E0,-2.416750938E-1,1.009771109E0,1.217946720E1
4.363923914E0,-2.416750938E-1,1.009771109E0,1.217946720E1
4.373923914E0,3.086741269E-1,-3.134597540E-1,1.437129307E1
4.383923914E0,3.014956415E-1,-5.982056856E-1,1.429472256E1
4.393923914E0,3.373879790E-1,-8.422735929E-1,1.384487152E1
4.403923914E0,4.474578202E-1,-1.074377418E0,1.314616776E1
4.413923914E0,4.761717021E-1,-1.210768223E0,1.223689461E1
4.423923914E0,4.761717021E-1,-1.210768223E0,1.223689461E1
4.433923914E0,5.910272002E-1,-7.944171429E-1,9.494720459E0
4.443923914E0,8.063812256E-1,-6.843472719E-1,8.652446747E0
4.453923914E0,9.403793216E-1,-5.647061467E-1,7.980063438E0
4.463923914E0,9.332008362E-1,-4.139583111E-1,7.396214962E0
4.473923914E0,8.685946465E-1,-2.751746178E-1,6.872186661E0
4.483923914E0,7.537391186E-1,-1.962114573E-1,6.273981094E0
4.493923914E0,3.780659735E-1,2.081755698E-1,5.436492920E0
4.503923914E0,1.986042857E-1,3.254238665E-1,5.190032482E0
4.513923914E0,-5.503492057E-2,4.163511395E-1,5.012963295E0
4.523923914E0,-3.038884699E-1,5.096712112E-1,5.036891460E0
4.533923914E0,-5.216353536E-1,6.077769399E-1,5.233103275E0
4.543923914E0,-7.920243144E-1,7.345965505E-1,5.484349728E0
4.553923914E0,-1.050449133E0,7.513462901E-1,5.654240131E0
4.563923914E0,-1.670190215E0,8.279166222E-1,5.996413708E0
4.573923914E0,-1.665404558E0,7.920243144E-1,6.175875187E0
4.583923914E0,-1.478764415E0,7.393822074E-1,6.326622963E0
4.593923914E0,-1.323230863E0,8.135597110E-1,6.539584160E0
4.603923914E0,-1.246660590E0,9.451649189E-1,6.771687984E0
4.613923914E0,-1.083948612E0,1.088734269E0,7.032505512E0
4.623923914E0,-8.685946465E-1,1.246660590E0,7.223931789E0
4.633923914E0,-8.685946465E-1,1.246660590E0,7.223931789E0
4.643923914E0,-4.689932466E-1,1.540977836E0,7.298109055E0
4.653923914E0,-4.067798555E-1,1.667797327E0,7.657032490E0
4.663923914E0,-2.368894368E-1,1.804188251E0,8.243273735E0
4.673923914E0,9.571290575E-3,1.847259045E0,8.836693764E0
4.683923914E0,1.603191197E-1,1.825723648E0,9.245866776E0
4.693923914E0,2.153540403E-2,1.830509305E0,9.671789169E0
4.703923914E0,-6.436693072E-1,1.746760488E0,1.088255692E1
4.713923914E0,-8.398807645E-1,1.581655741E0,1.144008541E1
4.723923914E0,-1.057627559E0,1.395015597E0,1.179183006E1
4.733923914E0,-1.373480201E0,1.282552958E0,1.186361504E1
4.743923914E0,-1.777867198E0,1.328016520E0,1.185165024E1
4.753923914E0,-2.146361828E0,1.339980721E0,1.176072311E1
4.763923914E0,-2.486142635E0,1.335195065E0,1.171765232E1
4.773923914E0,-3.026920557E0,1.555334687E0,1.205743313E1
4.783923914E0,-3.153740168E0,1.624726534E0,1.219143105E1
4.793923914E0,-3.153740168E0,1.624726534E0,1.219143105E1
4.803923914E0,-3.153740168E0,1.624726534E0,1.219143105E1
4.813923914E0,-3.299702406E0,1.433300734E0,1.203829098E1
4.823923914E0,-3.321237803E0,1.313659668E0,1.196172047E1
4.833923914E0,-3.467200041E0,1.189232826E0,1.200000572E1
4.843923914E0,-3.467200041E0,1.189232826E0,1.200000572E1
4.853923914E0,-3.467200041E0,1.189232826E0,1.200000572E1
4.863923914E0,-3.467200041E0,1.189232826E0,1.200000572E1
4.873923914E0,-3.749552965E0,1.043270707E0,1.171047401E1
4.883923914E0,-2.974278450E0,9.475577474E-1,1.196650600E1
4.893923914E0,-2.220539331E0,7.848458290E-1,1.256231880E1
4.903923914E0,-1.696511269E0,3.948157430E-1,1.347159195E1
4.913923914E0,-1.696511269E0,3.948157430E-1,1.347159195E1
4.923923914E0,-1.696511269E0,3.948157430E-1,1.347159195E1
4.933923914E0,-2.773281336E0,-1.564906001E0,1.500778389E1
4.943923914E0,-3.180061340E0,-1.954936147E0,1.393340588E1
4.953923914E0,-3.290131092E0,-2.364108801E0,1.267956734E1
4.963923914E0,-3.347558975E0,-2.488535643E0,1.149272728E1
4.973923914E0,-3.567698479E0,-2.050648928E0,1.035135078E1
4.983923914E0,-3.567698479E0,-2.050648928E0,1.035135078E1
4.993923914E0,-2.560320139E0,-6.508477330E-1,7.377072334E0
5.003923914E0,-2.043470621E0,-2.321037948E-1,6.788437843E0
5.013923914E0,-1.651047587E0,1.339980662E-1,6.467799664E0
5.023923914E0,-1.229910851E0,2.033899277E-1,6.369693756E0
5.033923914E0,-8.398807645E-1,4.546362907E-2,6.482156754E0
5.043923914E0,-5.982056856E-1,-1.507478207E-1,6.809973240E0
5.053923914E0,-5.982056856E-1,-1.507478207E-1,6.809973240E0
5.063923914E0,-4.498506486E-1,-4.666004181E-1,8.025527000E0
5.073923914E0,-4.498506486E-1,-5.838487148E-1,8.147561073E0
5.083923914E0,-5.599204898E-1,-6.221339107E-1,8.154739380E0
5.093923914E0,-7.393822074E-1,-5.910272002E-1,8.030312538E0
5.103923914E0,-9.068797827E-1,-5.335994363E-1,7.747959614E0
5.113923914E0,-9.284151793E-1,-4.905286431E-1,7.448856831E0
5.123923914E0,-9.284151793E-1,-4.905286431E-1,7.448856831E0
5.133923914E0,-1.043270707E0,-4.067798331E-2,6.604190350E0
5.143923914E0,-1.196411371E0,2.392822644E-3,6.288337708E0
5.153923914E0,-1.311266780E0,6.699903309E-2,6.084948063E0
5.163923914E0,-1.380658627E0,1.244267747E-1,6.123233318E0
5.173923914E0,-1.416550994E0,1.459621787E-1,6.288337708E0
5.183923914E0,-1.521835208E0,1.842473447E-1,6.525227547E0
5.193923914E0,-1.543370605E0,5.958128572E-1,6.829115868E0
5.203923914E0,-1.471585870E0,8.542376757E-1,6.910471916E0
5.213923914E0,-1.356730461E0,1.024128079E0,6.936792850E0
5.223923914E0,-1.445264935E0,1.253839016E0,7.063612461E0
5.233923914E0,-1.385444283E0,1.308874011E0,7.324429989E0
5.243923914E0,-1.241874933E0,1.234696507E0,7.642675400E0
5.253923914E0,-1.284945726E0,1.220339537E0,8.068597794E0
5.263923914E0,-1.095912814E0,1.143769264E0,9.382257462E0
5.273923914E0,-1.000199914E0,1.119840980E0,1.003071213E1
5.283923914E0,-1.026520967E0,1.268195987E0,1.059302616E1
5.293923914E0,-1.136590719E0,1.354337573E0,1.095434189E1
5.303923914E0,-1.124626637E0,1.359123230E0,1.112423229E1
5.313923914E0,-9.044869542E-1,1.306481123E0,1.108355427E1
5.323923914E0,-7.704889178E-1,1.323230863E0,1.085384369E1
5.333923914E0,-7.704889178E-1,1.323230863E0,1.085384369E1
5.343923914E0,-7.704889178E-1,1.323230863E0,1.085384369E1
5.353923914E0,-7.704889178E-1,1.323230863E0,1.085384369E1
5.363923914E0,-1.502692580E0,2.105684042E0,1.010249710E1
5.373923914E0,-1.502692580E0,2.105684042E0,1.010249710E1
5.383923914E0,-1.423729420E0,1.952543259E0,1.049731255E1
5.393923914E0,-1.423729420E0,1.952543259E0,1.049731255E1
5.403923914E0,-1.423729420E0,1.952543259E0,1.049731255E1
5.413923914E0,-1.423729420E0,1.952543259E0,1.049731255E1
5.423923914E0,-1.162911773E0,1.605584025E0,1.080838013E1
5.433923914E0,-1.268195987E0,1.598405480E0,1.067438221E1
5.443923914E0,-1.258624673E0,1.426122308E0,1.054516983E1
5.453923914E0,-1.194018483E0,1.076770186E0,1.043749237E1
5.463923914E0,-1.194018483E0,1.076770186E0,1.043749237E1
5.473923914E0,-1.194018483E0,1.076770186E0,1.043749237E1
5.483923914E0,-4.618147612E-1,-3.326023519E-1,1.293799210E1
5.493923914E0,-4.618147612E-1,-3.326023519E-1,1.293799210E1
5.503923914E0,1.651047617E-1,-8.733802438E-1,1.450289822E1
5.513923914E0,3.972085714E-1,-1.105484009E0,1.444307709E1
5.523923914E0,5.312066078E-1,-1.296909928E0,1.380180073E1
5.533923914E0,5.312066078E-1,-1.296909928E0,1.380180073E1
5.543923914E0,6.939185858E-1,-7.058826685E-1,1.061216831E1
5.553923914E0,7.561319470E-1,-3.254238665E-1,9.399007797E0
5.563923914E0,8.709874153E-1,8.374879509E-2,8.190631866E0
5.573923914E0,1.143769264E0,3.900300860E-1,7.386643410E0
5.583923914E0,1.342373490E0,5.168496966E-1,7.015756130E0
5.593923914E0,1.194018483E0,7.082754970E-1,6.838686943E0
5.603923914E0,3.421736360E-1,7.657032609E-1,6.467799664E0
5.613923914E0,3.421736360E-1,7.657032609E-1,6.467799664E0
5.623923914E0,-3.086741269E-1,6.771687865E-1,6.362515450E0
5.633923914E0,-4.953143001E-1,7.633104324E-1,6.388836384E0
5.643923914E0,-6.891329288E-1,9.140582681E-1,6.321837425E0
5.653923914E0,-9.403793216E-1,1.069591761E0,6.257231236E0
5.663923914E0,-1.261017561E0,1.179661512E0,6.180660725E0
5.673923914E0,-1.502692580E0,1.138983607E0,6.273981094E0
5.683923914E0,-1.383051515E0,1.050449133E0,6.642475605E0
5.693923914E0,-1.246660590E0,1.038485050E0,7.142575741E0
5.703923914E0,-1.172483087E0,1.057627559E0,7.652246952E0
5.713923914E0,-1.136590719E0,9.499505758E-1,8.039883614E0
5.723923914E0,-1.129412293E0,8.422735929E-1,8.355736732E0
5.733923914E0,-1.186840057E0,8.087740541E-1,8.633303642E0
5.743923914E0,-1.328016520E0,6.891329288E-1,9.018548965E0
5.753923914E0,-1.387837172E0,6.771687865E-1,9.231510162E0
5.763923914E0,-1.361516118E0,6.508477330E-1,9.442078590E0
5.773923914E0,-1.205982566E0,6.101697683E-1,9.633503914E0
5.783923914E0,-9.930213690E-1,6.101697683E-1,9.724431038E0
5.793923914E0,-6.963114142E-1,6.795616150E-1,9.767501831E0
5.803923914E0,-3.900300860E-1,8.111668825E-1,9.769894600E0
5.813923914E0,3.038884699E-1,1.071984529E0,1.010488987E1
5.823923914E0,6.580262184E-1,1.100698471E0,1.056431198E1
5.833923914E0,9.834501147E-1,9.882357717E-1,1.127258778E1
5.843923914E0,9.834501147E-1,9.882357717E-1,1.127258778E1
5.853923914E0,1.552941918E0,5.910272002E-1,1.285185051E1
5.863923914E0,1.552941918E0,5.910272002E-1,1.285185051E1
5.873923914E0,1.799402595E0,3.182454109E-1,1.344287777E1
5.883923914E0,1.799402595E0,3.182454109E-1,1.344287777E1
5.893923914E0,1.799402595E0,3.182454109E-1,1.344287777E1
5.903923914E0,1.799402595E0,3.182454109E-1,1.344287777E1
5.913923914E0,1.799402595E0,3.182454109E-1,1.344287777E1
5.923923914E0,9.643075466E-1,8.590233326E-1,1.088973618E1
5.933923914E0,7.680960894E-1,9.284151793E-1,1.095194912E1
5.943923914E0,6.029912829E-1,8.518448472E-1,1.117208862E1
5.953923914E0,6.029912829E-1,8.518448472E-1,1.117208862E1
5.963923914E0,6.029912829E-1,8.518448472E-1,1.117208862E1
5.973923914E0,6.029912829E-1,8.518448472E-1,1.117208862E1
5.983923914E0,-1.062413216E0,1.110269666E0,1.094477081E1
5.993923914E0,-1.313659668E0,1.380658627E0,1.060499001E1
6.003923914E0,-1.378265858E0,1.567298889E0,1.055234814E1
6.013923914E0,-1.208375454E0,1.481157184E0,1.088016415E1
6.023923914E0,-1.208375454E0,1.481157184E0,1.088016415E1
6.033923914E0,-1.208375454E0,1.481157184E0,1.088016415E1
6.043923914E0,-1.323230863E0,-2.823530734E-1,1.415354633E1
6.053923914E0,-1.395015597E0,-6.604190469E-1,1.472064495E1
6.063923914E0,-1.557727575E0,-8.997012973E-1,1.480200100E1
6.073923914E0,-1.818545222E0,-1.055234790E0,1.428515148E1
6.083923914E0,-2.036292076E0,-1.158126116E0,1.321077347E1
6.093923914E0,-2.036292076E0,-1.158126116E0,1.321077347E1
6.103923914E0,-1.950150490E0,-3.684946895E-1,9.815358162E0
6.113923914E0,-1.682154298E0,1.531406492E-1,8.453842163E0
6.123923914E0,-1.234696507E0,6.771687865E-1,7.305287361E0
6.133923914E0,-9.882357717E-1,1.261017561E0,6.458228111E0
6.143923914E0,-9.044869542E-1,1.706082582E0,5.891129494E0
6.153923914E0,-8.015955687E-1,1.804188251E0,5.670989513E0
6.163923914E0,-2.727817893E-1,1.225125194E0,5.950950146E0
6.173923914E0,-1.052841991E-1,1.026520967E0,6.250052929E0
6.183923914E0,5.264209956E-2,9.284151793E-1,6.695117950E0
6.193923914E0,1.603191197E-1,8.183453679E-1,7.104290485E0
6.203923914E0,1.818545163E-1,6.293123364E-1,7.374679565E0
6.213923914E0,1.004985496E-1,4.450650215E-1,7.601997375E0
6.223923914E0,-1.220339537E-1,3.158525825E-1,7.834101200E0
6.233923914E0,-5.072783828E-1,7.417750359E-2,8.003992081E0
6.243923914E0,-6.436693072E-1,-2.392822690E-2,7.791030407E0
6.253923914E0,-7.058826685E-1,-1.674975827E-2,7.401000500E0
6.263923914E0,-7.728816867E-1,7.896314561E-2,6.898507595E0
6.273923914E0,-7.154539824E-1,2.321037948E-1,6.585047722E0
6.283923914E0,-6.293123364E-1,4.426721931E-1,6.587440968E0
6.293923914E0,-5.910272002E-1,7.226324677E-1,6.697510719E0
6.303923914E0,-5.910272002E-1,7.226324677E-1,6.697510719E0
6.313923914E0,-7.513462901E-1,1.179661512E0,6.984649181E0
6.323923914E0,-9.403793216E-1,1.237089276E0,6.994220734E0
6.333923914E0,-1.057627559E0,1.249053478E0,6.867401123E0
6.343923914E0,-1.115055323E0,1.292124271E0,6.709474564E0
6.353923914E0,-1.265803218E0,1.500299811E0,6.702296257E0
6.363923914E0,-1.445264935E0,1.818545222E0,6.903293133E0
6.373923914E0,-1.445264935E0,1.818545222E0,6.903293133E0
6.383923914E0,-1.445264935E0,1.818545222E0,6.903293133E0
6.393923914E0,-1.445264935E0,1.818545222E0,6.903293133E0
6.403923914E0,-1.445264935E0,1.818545222E0,6.903293133E0
6.413923914E0,-1.445264935E0,1.818545222E0,6.903293133E0
6.423923914E0,-1.588834286E0,1.739582062E0,1.015513897E1
6.433923914E0,-1.450050473E0,1.629512191E0,1.064088249E1
6.443923914E0,-1.450050473E0,1.629512191E0,1.064088249E1
6.453923914E0,-1.450050473E0,1.629512191E0,1.064088249E1
6.463923914E0,-1.450050473E0,1.629512191E0,1.064088249E1
6.473923914E0,-6.245267391E-1,7.800601721E-1,1.198564816E1
6.483923914E0,-7.058826685E-1,6.699903607E-1,1.223689461E1
6.493923914E0,-8.231309652E-1,5.551348329E-1,1.252642632E1
6.503923914E0,-8.590233326E-1,3.948157430E-1,1.266760349E1
6.513923914E0,-8.590233326E-1,3.948157430E-1,1.266760349E1
6.523923914E0,-8.590233326E-1,3.948157430E-1,1.266760349E1
6.533923914E0,-8.590233326E-1,3.948157430E-1,1.266760349E1
6.543923914E0,-9.762716293E-1,1.347159147E0,1.222732353E1
6.553923914E0,-7.968099117E-1,1.596012712E0,1.205504036E1
6.563923914E0,-4.785645306E-1,1.696511269E0,1.185643578E1
6.573923914E0,-8.135596663E-2,1.627119422E0,1.178704453E1
6.583923914E0,-8.135596663E-2,1.627119422E0,1.178704453E1
6.593923914E0,-8.135596663E-2,1.627119422E0,1.178704453E1
6.603923914E0,1.062413216E0,6.771687865E-1,1.168654537E1
6.613923914E0,9.451649189E-1,5.910272002E-1,1.172483063E1
6.623923914E0,6.652047038E-1,5.024927258E-1,1.165543938E1
6.633923914E0,3.756731451E-1,3.708875179E-1,1.150229836E1
6.643923914E0,1.962114573E-1,2.703889608E-1,1.127019501E1
6.653923914E0,1.962114573E-1,2.703889608E-1,1.127019501E1
6.663923914E0,-2.967100143E-1,2.727817893E-1,9.832108498E0
6.673923914E0,-2.967100143E-1,2.727817893E-1,9.832108498E0
6.683923914E0,-1.268195957E-1,2.799602449E-1,9.071190834E0
6.693923914E0,1.052841991E-1,2.488535494E-1,8.786444664E0
6.703923914E0,2.847459018E-1,1.794617027E-1,8.556734085E0
6.713923914E0,3.541377485E-1,8.853443712E-2,8.358129501E0
6.723923914E0,1.244267747E-1,-8.374879509E-2,8.097311974E0
6.733923914E0,-3.828516230E-2,-1.507478207E-1,7.929814339E0
6.743923914E0,-2.273181528E-1,-1.818545163E-1,7.712067604E0
6.753923914E0,-3.804588020E-1,-1.220339537E-1,7.386643410E0
6.763923914E0,-5.000999570E-1,3.828516230E-2,6.967899323E0
6.773923914E0,-6.245267391E-1,2.823530734E-1,6.530013084E0
6.783923914E0,-7.585247755E-1,6.053841114E-1,6.120840549E0
6.793923914E0,-9.834501147E-1,1.261017561E0,5.493920803E0
6.803923914E0,-1.220339537E0,1.488335729E0,5.278566837E0
6.813923914E0,-1.521835208E0,1.641476393E0,5.216353416E0
6.823923914E0,-1.789831281E0,1.674975872E0,5.388636589E0
6.833923914E0,-2.072184324E0,1.694118381E0,5.864808083E0
6.843923914E0,-2.208575249E0,1.658226132E0,6.508477688E0
6.853923914E0,-2.175075769E0,1.564906001E0,7.051648140E0
6.863923914E0,-2.170290232E0,1.421336651E0,7.743174076E0
6.873923914E0,-2.254039049E0,1.478764415E0,7.877171993E0
6.883923914E0,-2.397608280E0,1.607976794E0,7.855636597E0
6.893923914E0,-2.474178553E0,1.646261930E0,7.752745152E0
6.903923914E0,-2.522035122E0,1.639083505E0,7.812565804E0
6.913923914E0,-2.476571321E0,1.514656782E0,8.178668022E0
6.923923914E0,-2.426322222E0,1.239482164E0,8.712266922E0
6.933923914E0,-2.426322222E0,1.239482164E0,8.712266922E0
6.943923914E0,-2.426322222E0,1.239482164E0,8.712266922E0
6.953923914E0,-2.426322222E0,1.239482164E0,8.712266922E0
6.963923914E0,-2.426322222E0,1.239482164E0,8.712266922E0
6.973923914E0,-3.184846878E0,-3.732803464E-1,1.132762241E1
6.983923914E0,-3.617947817E0,-2.512463629E-1,1.141854954E1
6.993923914E0,-4.007977962E0,0.000000000E0,1.138026428E1
7.003923914E0,-4.007977962E0,0.000000000E0,1.138026428E1
7.013923914E0,-4.007977962E0,0.000000000E0,1.138026428E1
7.023923914E0,-4.007977962E0,0.000000000E0,1.138026428E1
7.033923914E0,-2.756531715E0,1.701296926E0,9.580862045E0
7.043923914E0,-2.756531715E0,1.701296926E0,9.580862045E0
7.053923914E0,-1.361516118E0,2.213361025E0,1.008096218E1
7.063923914E0,-6.819544435E-1,2.067398787E0,1.083230782E1
7.073923914E0,-6.819544435E-1,2.067398787E0,1.083230782E1
7.083923914E0,-6.819544435E-1,2.067398787E0,1.083230782E1
7.093923914E0,-1.617548108E0,7.154539824E-1,1.427079391E1
7.103923914E0,-2.560320139E0,4.809573591E-1,1.433779335E1
7.113923914E0,-3.570091486E0,4.426721931E-1,1.388076401E1
7.123923914E0,-4.225724697E0,4.953143001E-1,1.317488194E1
7.133923914E0,-4.364508629E0,5.072783828E-1,1.237567902E1
7.143923914E0,-2.967100143E0,6.221338734E-2,1.044467068E1
7.153923914E0,-2.230110645E0,-2.608176768E-1,9.645467758E0
7.163923914E0,-1.727617979E0,-7.106683254E-1,9.856036186E0
7.173923914E0,-1.342373490E0,-1.308874011E0,1.132522964E1
7.183923914E0,-1.320838094E0,-1.887937069E0,1.297149181E1
7.193923914E0,-1.634297848E0,-2.304288149E0,1.398365593E1
7.203923914E0,-2.213361025E0,-2.486142635E0,1.417508125E1
7.213923914E0,-3.184846878E0,-2.873780012E0,1.218425274E1
7.223923914E0,-3.285345554E0,-2.835494757E0,1.087777138E1
7.233923914E0,-3.278167009E0,-2.572284460E0,9.506684303E0
7.243923914E0,-3.122633457E0,-2.194218397E0,8.216953278E0
7.253923914E0,-2.734996319E0,-1.737189293E0,7.087540627E0
7.263923914E0,-2.294716835E0,-1.249053478E0,6.293123722E0
7.273923914E0,-1.799402595E0,-8.470591903E-1,5.845665932E0
7.283923914E0,-9.547362328E-1,-4.881358147E-1,5.639883041E0
7.293923914E0,-5.623133183E-1,-5.359922647E-1,5.931807518E0
7.303923914E0,-2.608176768E-1,-5.431707501E-1,6.441478729E0
7.313923914E0,-2.392822690E-2,-5.000999570E-1,7.022934437E0
7.323923914E0,2.081755698E-1,-4.474578202E-1,7.645068169E0
7.333923914E0,3.158525825E-1,-3.900300860E-1,8.137989998E0
7.343923914E0,2.392822653E-1,-3.038884699E-1,8.417949677E0
7.353923914E0,-4.115654826E-1,-1.770688742E-1,8.202595711E0
7.363923914E0,-7.298108935E-1,-1.507478207E-1,7.980063438E0
7.373923914E0,-9.595218897E-1,-7.896314561E-2,7.836493969E0
7.383923914E0,-1.170090318E0,7.896314561E-2,7.788637638E0
7.393923914E0,-1.359123230E0,2.751746178E-1,7.786244869E0
7.403923914E0,-1.445264935E0,4.809573591E-1,7.807780266E0
7.413923914E0,-1.433300734E0,6.412764788E-1,7.697710514E0
7.423923914E0,-1.052842021E0,7.872386575E-1,7.350750923E0
7.433923914E0,-1.052842021E0,7.872386575E-1,7.350750923E0
7.443923914E0,-5.503492355E-1,1.091127157E0,7.389036179E0
7.453923914E0,-2.482553422E-1,1.348953724E0,7.473383427E0
7.463923914E0,-8.075776696E-2,1.770090580E0,7.578667641E0
7.473923914E0,-8.075776696E-2,1.770090580E0,7.578667641E0
7.483923914E0,-8.075776696E-2,1.770090580E0,7.578667641E0
7.493923914E0,-3.320041299E-1,2.474776745E0,7.269993305E0
7.503923914E0,-3.320041299E-1,2.474776745E0,7.269993305E0
7.513923914E0,-3.320041299E-1,2.474776745E0,7.269993305E0
7.523923914E0,-7.830511928E-1,2.321636200E0,7.572087288E0
7.533923914E0,-7.830511928E-1,2.321636200E0,7.572087288E0
7.543923914E0,-7.830511928E-1,2.321636200E0,7.572087288E0
7.553923914E0,-7.830511928E-1,2.321636200E0,7.572087288E0
7.563923914E0,-7.830511928E-1,2.321636200E0,7.572087288E0
7.573923914E0,-7.830511928E-1,2.321636200E0,7.572087288E0
7.583923914E0,-7.830511928E-1,2.321636200E0,7.572087288E0
7.593923914E0,-7.830511928E-1,2.321636200E0,7.572087288E0
7.603923914E0,-7.830511928E-1,2.321636200E0,7.572087288E0
7.613923914E0,3.373879790E-1,-7.633104324E-1,1.276391411E1
7.623923914E0,-1.692921966E-1,-9.343972206E-1,1.264427280E1
7.633923914E0,-5.850451589E-1,-9.672985673E-1,1.216152096E1
7.643923914E0,-6.299105883E-1,-1.044467092E0,1.165603733E1
7.653923914E0,-8.321040869E-1,-7.411768436E-1,1.132403278E1
7.663923914E0,-8.321040869E-1,-7.411768436E-1,1.132403278E1
7.673923914E0,-8.321040869E-1,-7.411768436E-1,1.132403278E1
7.683923914E0,-8.321040869E-1,-7.411768436E-1,1.132403278E1
7.693923914E0,-8.321040869E-1,-7.411768436E-1,1.132403278E1
7.703923914E0,-8.321040869E-1,-7.411768436E-1,1.132403278E1
7.713923914E0,-8.321040869E-1,-7.411768436E-1,1.132403278E1
7.723923914E0,1.045065284E0,2.033899166E-2,1.018146038E1
7.733923914E0,1.045065284E0,2.033899166E-2,1.018146038E1
7.743923914E0,1.045065284E0,2.033899166E-2,1.018146038E1
7.753923914E0,1.045065284E0,2.033899166E-2,1.018146038E1
7.763923914E0,6.520441771E-1,2.709871531E-1,1.277109241E1
7.773923914E0,2.871387303E-1,-1.339980662E-1,1.407458305E1
7.783923914E0,1.914258152E-1,-3.397808075E-1,1.450529099E1
7.793923914E0,1.483550072E-1,-4.354937077E-1,1.466561031E1
7.803923914E0,2.871387303E-1,-5.455635786E-1,1.436650753E1
7.813923914E0,1.086341500E0,-1.004985452E0,1.230628681E1
7.823923914E0,1.265803218E0,-1.007378340E0,1.113380337E1
7.833923914E0,1.462014675E0,-9.116654396E-1,1.032263660E1
7.843923914E0,1.622333765E0,-8.470591903E-1,9.822537422E0
7.853923914E0,1.718046665E0,-8.159525394E-1,9.564111710E0
7.863923914E0,1.629512191E0,-7.800601721E-1,9.434899330E0
7.873923914E0,1.287338614E0,-6.867401004E-1,9.439684868E0
7.883923914E0,1.722832322E-1,-2.536391914E-1,9.322437286E0
7.893923914E0,-2.775674164E-1,-5.264209956E-2,8.918049812E0
7.903923914E0,-6.364908218E-1,1.651047617E-1,8.219346046E0
7.913923914E0,-8.829515576E-1,3.684946895E-1,7.345965385E0
7.923923914E0,-1.007378340E0,5.623133183E-1,6.412764549E0
7.933923914E0,-1.064806104E0,7.704889178E-1,5.501099110E0
7.943923914E0,-9.667003751E-1,1.024128079E0,4.792823792E0
7.953923914E0,-6.532405615E-1,1.631905079E0,4.163511276E0
7.963923914E0,-6.795616150E-1,1.890329838E0,4.237689018E0
7.973923914E0,-7.824530005E-1,2.041077614E0,4.462614059E0
7.983923914E0,-7.920243144E-1,2.019542217E0,4.768895626E0
7.993923914E0,-6.819544435E-1,1.933400750E0,5.017749310E0
8.003923914E0,-5.000999570E-1,1.916650891E0,5.257031441E0
8.013923914E0,-3.326023519E-1,1.947757602E0,5.446064472E0
8.023923914E0,-4.426721931E-1,2.163111687E0,5.953342915E0
8.033923914E0,-7.106683254E-1,2.199003935E0,6.352943897E0
8.043923914E0,-1.036092162E0,2.177468538E0,6.891329288E0
8.053923914E0,-1.473978758E0,2.146361828E0,7.580461979E0
8.063923914E0,-1.935793519E0,2.033899307E0,8.327022552E0
8.073923914E0,-2.340180635E0,1.837687731E0,9.131011009E0
8.083923914E0,-2.577069998E0,1.624726534E0,9.970891953E0
8.093923914E0,-2.778067112E0,1.316052437E0,1.165065384E1
8.103923914E0,-2.842673302E0,1.210768223E0,1.244746304E1
8.113923914E0,-2.924029350E0,1.064806104E0,1.308156109E1
8.123923914E0,-3.230310678E0,1.131805062E0,1.364387512E1
8.133923914E0,-3.414557934E0,1.012163997E0,1.415115356E1
8.143923914E0,-3.400201082E0,6.628118753E-1,1.442872047E1
8.153923914E0,-3.469592810E0,4.737788737E-1,1.426600838E1
8.163923914E0,-3.239881754E0,4.067798555E-1,1.398365593E1
8.173923914E0,-2.933600664E0,3.254238665E-1,1.376590824E1
8.183923914E0,-2.610569477E0,2.464607358E-1,1.365583897E1
8.193923914E0,-2.459821701E0,2.512463629E-1,1.364387512E1
8.203923914E0,-2.397608280E0,2.991028428E-1,1.367498112E1
8.213923914E0,-2.313859463E0,3.182454109E-1,1.356491184E1
8.223923914E0,-1.828116536E0,3.996013701E-1,1.267478180E1
8.233923914E0,-1.129412293E0,2.991028428E-1,1.221535969E1
8.243923914E0,-1.129412293E0,2.991028428E-1,1.221535969E1
8.253923914E0,-1.129412293E0,2.991028428E-1,1.221535969E1
8.263923914E0,-1.129412293E0,2.991028428E-1,1.221535969E1
8.273923914E0,-1.818545163E-1,-1.071984529E0,1.431865025E1
8.283923914E0,-3.517449200E-1,-1.557727575E0,1.509871101E1
8.293923914E0,-3.517449200E-1,-1.557727575E0,1.509871101E1
8.303923914E0,-3.517449200E-1,-1.557727575E0,1.509871101E1
8.313923914E0,-3.517449200E-1,-1.557727575E0,1.509871101E1
8.323923914E0,-3.517449200E-1,-1.557727575E0,1.509871101E1
8.333923914E0,-9.978070259E-1,-2.045863390E0,8.525627136E0
8.343923914E0,-6.269195080E-1,-1.536192179E0,7.063612461E0
8.353923914E0,-1.459621787E-1,-9.308080077E-1,6.005984783E0
8.363923914E0,-1.459621787E-1,-9.308080077E-1,6.005984783E0
8.373923914E0,-1.459621787E-1,-9.308080077E-1,6.005984783E0
8.383923914E0,-1.459621787E-1,-9.308080077E-1,6.005984783E0
8.393923914E0,1.986042857E-1,-4.953143001E-1,7.812565804E0
8.403923914E0,8.374879509E-2,-7.369893789E-1,8.315058708E0
8.413923914E0,-6.699903309E-2,-7.824530005E-1,8.602197647E0
8.423923914E0,-2.440679073E-1,-7.824530005E-1,8.542376518E0
8.433923914E0,-2.440679073E-1,-7.824530005E-1,8.542376518E0
8.443923914E0,-2.440679073E-1,-7.824530005E-1,8.542376518E0
8.453923914E0,-2.440679073E-1,-7.824530005E-1,8.542376518E0
8.463923914E0,-8.327022791E-1,-2.344966233E-1,7.202396393E0
8.473923914E0,-8.446664214E-1,2.392822644E-3,7.125825882E0
8.483923914E0,-8.901300430E-1,2.153540403E-1,7.312466145E0
8.493923914E0,-8.350951076E-1,2.895315289E-1,7.441678524E0
8.503923914E0,-8.350951076E-1,2.895315289E-1,7.441678524E0
8.513923914E0,-8.350951076E-1,2.895315289E-1,7.441678524E0
8.513923914E0,-3.421736360E-1,2.656033039E-1,6.991827965E0
8.523923914E0,-2.440679073E-1,4.522434771E-1,6.879364967E0
8.533923914E0,-9.571290575E-3,6.460621357E-1,6.999006271E0
8.543923914E0,1.722832322E-1,8.542376757E-1,7.238288403E0
8.553923914E0,3.445664644E-1,9.475577474E-1,7.491927624E0
8.563923914E0,4.283152521E-1,1.043270707E0,7.695317745E0
8.573923914E0,4.283152521E-1,1.043270707E0,7.695317745E0
8.583923914E0,3.804588020E-1,1.205982566E0,8.054241180E0
8.593923914E0,5.623133183E-1,1.263410330E0,8.300702095E0
8.603923914E0,6.867401004E-1,1.332802176E0,8.563912392E0
8.613923914E0,7.226324677E-1,1.366301775E0,8.817551613E0
8.623923914E0,6.293123364E-1,1.339980721E0,9.075976372E0
8.633923914E0,5.024927258E-1,1.313659668E0,9.317651749E0
8.643923914E0,4.235295951E-1,1.261017561E0,9.882357597E0
8.653923914E0,2.512463629E-1,1.332802176E0,1.021256733E1
8.663923914E0,1.004985496E-1,1.385444283E0,1.048295593E1
8.673923914E0,-2.153540403E-2,1.349551916E0,1.056670475E1
8.683923914E0,-2.225325108E-1,1.270588875E0,1.055713367E1
8.693923914E0,-4.785645306E-1,1.196411371E0,1.068395329E1
8.703923914E0,-6.436693072E-1,1.146162033E0,1.093280697E1
8.713923914E0,-9.284151793E-1,1.464407444E0,1.139462185E1
8.723923914E0,-9.427721500E-1,1.622333765E0,1.148315620E1
8.733923914E0,-7.226324677E-1,1.684547186E0,1.142094231E1
8.743923914E0,-3.278166950E-1,1.698904037E0,1.122233772E1
8.753923914E0,-3.349951655E-2,1.746760488E0,1.101177025E1
8.763923914E0,1.459621787E-1,1.787438512E0,1.086820030E1
8.773923914E0,2.177468538E-1,1.588834286E0,1.087777138E1
8.783923914E0,1.722832322E-1,1.036092162E0,1.277767277E1
8.793923914E0,2.727817893E-1,6.699903607E-1,1.423490238E1
8.803923914E0,1.842473447E-1,2.727817893E-1,1.541934872E1
8.813923914E0,-2.368894368E-1,-4.785645287E-3,1.615873146E1
8.823923914E0,-8.207381964E-1,-3.708875179E-1,1.605823326E1
8.833923914E0,-1.490728498E0,-4.522434771E-1,1.511546040E1
8.843923914E0,-1.808973908E0,-4.307080805E-1,1.388315678E1
8.853923914E0,-1.399801254E0,-5.527420044E-1,1.084666538E1
8.863923914E0,-1.399801254E0,-5.527420044E-1,1.084666538E1
8.873923914E0,-1.399801254E0,-5.527420044E-1,1.084666538E1
8.883923914E0,-1.399801254E0,-5.527420044E-1,1.084666538E1
8.893923914E0,4.546362907E-2,-2.584248483E-1,7.116254330E0
8.903923914E0,6.053841114E-1,-4.689932466E-1,7.549355507E0
8.913923914E0,1.081555843E0,-5.527420044E-1,8.315058708E0
8.923923914E0,1.081555843E0,-5.527420044E-1,8.315058708E0
8.933923914E0,1.081555843E0,-5.527420044E-1,8.315058708E0
8.943923914E0,1.081555843E0,-5.527420044E-1,8.315058708E0
8.953923914E0,3.637090325E-1,-3.924229145E-1,7.329215527E0
8.963923914E0,-1.220339537E-1,-2.225325108E-1,6.620940208E0
8.973923914E0,-5.192425251E-1,-6.699903309E-2,6.202196121E0
8.983923914E0,-1.002592683E0,1.004985496E-1,5.998806477E0
8.993923914E0,-1.002592683E0,1.004985496E-1,5.998806477E0
9.003923914E0,-1.002592683E0,1.004985496E-1,5.998806477E0
9.013923914E0,-2.017149448E0,1.770688742E-1,5.960521221E0
9.023923914E0,-1.861616015E0,2.081755698E-1,5.958128452E0
9.033923914E0,-1.548156261E0,2.727817893E-1,5.883950710E0
9.043923914E0,-1.239482164E0,4.498506486E-1,5.757131100E0
9.053923914E0,-9.188438654E-1,6.963114142E-1,5.690132141E0
9.063923914E0,-9.188438654E-1,6.963114142E-1,5.690132141E0
9.073923914E0,-9.188438654E-1,6.963114142E-1,5.690132141E0
9.083923914E0,-4.522434771E-1,1.351944804E0,6.570691109E0
9.093923914E0,-6.101697683E-1,1.320838094E0,6.910471916E0
9.103923914E0,-9.044869542E-1,1.270588875E0,7.307680130E0
9.113923914E0,-1.220339537E0,1.237089276E0,7.752745152E0
9.123923914E0,-1.399801254E0,1.158126116E0,8.130811691E0
9.133923914E0,-1.399801254E0,1.158126116E0,8.130811691E0
9.143923914E0,-1.677368641E0,1.261017561E0,9.142974854E0
9.153923914E0,-1.598405480E0,1.368694544E0,9.487542152E0
9.163923914E0,-1.481157184E0,1.560120344E0,9.836894035E0
9.173923914E0,-1.464407444E0,1.825723648E0,1.010967541E1
9.183923914E0,-1.481157184E0,2.057827473E0,1.051167011E1
9.193923914E0,-1.464407444E0,2.117648125E0,1.089930725E1
9.203923914E0,-1.596012712E0,2.103291035E0,1.146640587E1
9.213923914E0,-1.859223247E0,2.194218397E0,1.187557888E1
9.223923914E0,-2.132004976E0,2.249253273E0,1.231585789E1
9.233923914E0,-2.256431818E0,2.191825628E0,1.271785259E1
9.243923914E0,-2.316252232E0,2.021935225E0,1.295952702E1
9.253923914E0,-2.373680115E0,1.811366796E0,1.308395386E1
9.263923914E0,-2.368894339E0,1.533799291E0,1.317248821E1
9.273923914E0,-2.084148407E0,1.170090318E0,1.345962715E1
9.283923914E0,-2.002792597E0,1.093519926E0,1.367498112E1
9.293923914E0,-1.988435626E0,1.115055323E0,1.355294704E1
9.303923914E0,-2.045863390E0,1.217946768E0,1.310548973E1
9.313923914E0,-1.962114573E0,1.378265858E0,1.267478180E1
9.323923914E0,-1.576870084E0,1.383051515E0,1.236850071E1
9.333923914E0,-1.057627559E0,1.062413216E0,1.217946720E1
9.343923914E0,-5.694918036E-1,-2.751746178E-1,1.357209015E1
9.353923914E0,-7.800601721E-1,-9.044869542E-1,1.462732506E1
9.363923914E0,-1.229910851E0,-1.414158225E0,1.511306763E1
9.373923914E0,-1.720439434E0,-1.732403636E0,1.487617874E1
9.383923914E0,-2.120040894E0,-1.938186288E0,1.398365593E1
9.393923914E0,-2.282752752E0,-2.026720762E0,1.259821129E1
9.403923914E0,-1.758724689E0,-2.254039049E0,1.115533924E1
9.413923914E0,-1.179661512E0,-1.253839016E0,8.054241180E0
9.423923914E0,-5.694918036E-1,-6.077769399E-1,6.867401123E0
9.433923914E0,2.392822644E-3,0.000000000E0,5.862415314E0
9.443923914E0,2.392822644E-3,0.000000000E0,5.862415314E0
9.453923914E0,3.182454109E-1,1.057627559E0,4.771288395E0
9.463923914E0,4.043870270E-1,9.762716293E-1,4.859822750E0
9.473923914E0,9.762716293E-1,3.421736360E-1,5.943771362E0
9.483923914E0,9.762716293E-1,3.421736360E-1,5.943771362E0
9.493923914E0,9.762716293E-1,3.421736360E-1,5.943771362E0
9.503923914E0,9.762716293E-1,3.421736360E-1,5.943771362E0
9.513923914E0,1.119840980E0,-1.055234790E0,1.068156052E1
9.523923914E0,6.005984545E-1,-1.000199914E0,1.072463131E1
9.533923914E0,-1.507478207E-1,-6.771687865E-1,1.044706345E1
9.543923914E0,-5.575276613E-1,-5.814558864E-1,9.882357597E0
9.553923914E0,-5.575276613E-1,-5.814558864E-1,9.882357597E0
9.563923914E0,-5.575276613E-1,-5.814558864E-1,9.882357597E0
9.573923914E0,-5.575276613E-1,-5.814558864E-1,9.882357597E0
9.583923914E0,-1.062413216E0,2.464607358E-1,8.614161491E0
9.593923914E0,-9.308080077E-1,2.105683982E-1,8.537590981E0
9.603923914E0,-8.303094506E-1,1.363908947E-1,8.391629219E0
9.613923914E0,-7.800601721E-1,7.178467698E-3,8.276773453E0
9.623923914E0,-7.800601721E-1,7.178467698E-3,8.276773453E0
9.633923914E0,-7.800601721E-1,7.178467698E-3,8.276773453E0
9.643923914E0,-6.005984545E-1,7.417750359E-2,8.901300430E0
9.653923914E0,-3.900300860E-1,3.278166950E-1,8.635697365E0
9.663923914E0,-9.571290761E-2,6.364908218E-1,8.123632431E0
9.673923914E0,2.249253243E-1,9.762716293E-1,7.534998417E0
9.683923914E0,5.431707501E-1,1.316052437E0,6.979863644E0
9.693923914E0,5.431707501E-1,1.316052437E0,6.979863644E0
9.703923914E0,5.431707501E-1,1.316052437E0,6.979863644E0
9.713923914E0,1.213161111E0,2.132004976E0,7.891529083E0
9.723923914E0,1.162911773E0,2.172683001E0,8.769695282E0
9.733923914E0,1.045663476E0,2.158325911E0,9.530612946E0
9.743923914E0,9.068797827E-1,2.067398787E0,1.022213840E1
9.753923914E0,7.058826685E-1,1.962114573E0,1.079880905E1
9.763923914E0,3.038884699E-1,1.895115495E0,1.144008541E1
9.773923914E0,3.684946895E-1,1.775474429E0,1.167458153E1
9.783923914E0,5.000999570E-1,1.698904037E0,1.177986622E1
9.793923914E0,5.862415433E-1,1.720439434E0,1.178465176E1
9.803923914E0,6.340979934E-1,1.758724689E0,1.172243786E1
9.813923914E0,4.235295951E-1,1.887937069E0,1.176790142E1
9.823923914E0,1.268195957E-1,2.033899307E0,1.205025482E1
9.833923914E0,-6.699903309E-2,1.794616938E0,1.174397373E1
9.843923914E0,-4.546362907E-2,1.485942841E0,1.144965649E1
9.853923914E0,1.196411327E-1,1.095912814E0,1.115773201E1
9.863923914E0,1.794617027E-1,7.872386575E-1,1.098305607E1
9.873923914E0,1.028913707E-1,5.718846321E-1,1.143290615E1
9.883923914E0,-3.110669367E-2,3.972085714E-1,1.220339584E1
9.893923914E0,-1.316052526E-1,1.842473447E-1,1.287099266E1
9.903923914E0,-8.135596663E-2,-8.135596663E-2,1.320838070E1
9.913923914E0,1.938186288E-1,-1.028913707E-1,1.275135231E1
9.923923914E0,5.862415433E-1,-7.657032460E-2,1.186840057E1
9.933923914E0,9.882357717E-1,0.000000000E0,1.093041420E1
9.943923914E0,1.304088354E0,2.081755698E-1,1.018624592E1
9.953923914E0,1.505085468E0,4.307080805E-1,9.501898766E0
9.963923914E0,1.435693622E0,6.173482537E-1,8.961120605E0
9.973923914E0,9.308080077E-1,7.010970116E-1,8.257631302E0
9.983923914E0,6.652047038E-1,7.298108935E-1,8.123632431E0
9.993923914E0,4.283152521E-1,7.441678643E-1,8.008777618E0
1.000392391E1,2.727817893E-1,7.345965505E-1,7.843672752E0
1.001392391E1,3.134597540E-1,6.723831892E-1,7.570890903E0
1.002392391E1,2.225325108E-1,7.034898400E-1,7.226324558E0
1.003392391E1,4.067798331E-2,8.327022791E-1,6.996613503E0
1.004392391E1,4.067798331E-2,8.327022791E-1,6.996613503E0
1.005392391E1,4.067798331E-2,8.327022791E-1,6.996613503E0
1.006392391E1,4.067798331E-2,8.327022791E-1,6.996613503E0
1.007392391E1,4.067798331E-2,8.327022791E-1,6.996613503E0
1.008392391E1,-6.340979934E-1,1.371087432E0,6.137589931E0
1.009392391E1,-6.795616150E-1,1.490728498E0,6.003592014E0
1.010392391E1,-6.675975323E-1,1.576870084E0,5.938985825E0
1.011392391E1,-6.675975323E-1,1.576870084E0,5.938985825E0
1.012392391E1,-6.675975323E-1,1.576870084E0,5.938985825E0
1.013392391E1,-6.675975323E-1,1.576870084E0,5.938985825E0
1.014392391E1,-6.987041831E-1,1.797009826E0,7.271788120E0
1.015392391E1,-7.441678643E-1,1.907079697E0,7.680960655E0
1.016392391E1,-6.293123364E-1,1.957328916E0,8.027919769E0
1.017392391E1,-4.953143001E-1,1.983649969E0,8.147561073E0
1.018392391E1,-4.953143001E-1,1.983649969E0,8.147561073E0
1.019392391E1,-4.953143001E-1,1.983649969E0,8.147561073E0
1.020392391E1,-4.953143001E-1,1.983649969E0,8.147561073E0
1.021392391E1,2.632104978E-2,2.426322222E0,9.207581520E0
1.022392391E1,-2.153540403E-2,2.321038008E0,9.882357597E0
1.023392391E1,7.178467698E-3,2.134397745E0,1.046142101E1
1.024392391E1,-4.546362907E-2,1.931007862E0,1.087537861E1
1.025392391E1,-4.546362907E-2,1.931007862E0,1.087537861E1
1.026392391E1,-1.009771109E0,2.117648125E0,1.101416302E1
1.027392391E1,-1.155733347E0,2.344966173E0,1.093998528E1
1.028392391E1,-1.349551916E0,2.562713146E0,1.079641533E1
1.029392391E1,-1.538584948E0,2.773281336E0,1.075095177E1
1.030392391E1,-1.622333765E0,2.957528830E0,1.086102200E1
1.031392391E1,-1.596012712E0,3.081955671E0,1.102612686E1
1.032392391E1,-1.435693622E0,2.921636343E0,1.148554897E1
1.033392391E1,-1.318445325E0,2.598605394E0,1.181815147E1
1.034392391E1,-1.289731383E0,2.321038008E0,1.226321602E1
1.035392391E1,-1.289731383E0,2.321038008E0,1.226321602E1
1.036392391E1,-1.619940877E0,1.907079697E0,1.283749390E1
1.037392391E1,-2.038684845E0,1.887937069E0,1.272263813E1
1.038392391E1,-2.380858421E0,2.014756680E0,1.228235817E1
1.039392391E1,-1.646261930E0,1.895115495E0,1.155254745E1
1.040392391E1,-9.116654396E-1,1.610369682E0,1.191864967E1
1.041392391E1,-4.881358147E-1,1.227517962E0,1.285424328E1
1.042392391E1,-4.426721931E-1,7.250252366E-1,1.410090351E1
1.043392391E1,-7.322037220E-1,2.919243574E-1,1.502692604E1
1.044392391E1,-1.225125194E0,-1.196411327E-1,1.520878029E1
1.045392391E1,-1.835294962E0,-4.785645306E-1,1.476132298E1
1.046392391E1,-2.483749866E0,-1.304088354E0,1.251206970E1
1.047392391E1,-2.799602509E0,-1.225125194E0,1.130369377E1
1.048392391E1,-2.804388046E0,-9.690931439E-1,9.853643417E0
1.049392391E1,-2.667997360E0,-4.881358147E-1,8.264809608E0
1.050392391E1,-2.175075769E0,-2.153540403E-2,7.044469833E0
1.051392391E1,-1.495514154E0,3.278166950E-1,6.460621357E0
1.052392391E1,-1.062413216E0,6.245267391E-1,6.101697922E0
1.053392391E1,-8.829515576E-1,9.475577474E-1,5.819344521E0
1.054392391E1,-7.178468108E-1,8.207381964E-1,6.175875187E0
1.055392391E1,-4.977070987E-1,6.269195080E-1,6.754938126E0
1.056392391E1,-4.977070987E-1,6.269195080E-1,6.754938126E0
1.057392391E1,-6.221338734E-2,4.474578202E-1,7.982456207E0
1.058392391E1,6.699903309E-2,4.594219327E-1,8.417949677E0
1.059392391E1,2.129612118E-1,4.402793646E-1,8.738588333E0
1.060392391E1,2.129612118E-1,4.402793646E-1,8.738588333E0
1.061392391E1,2.129612118E-1,4.402793646E-1,8.738588333E0
1.062392391E1,2.129612118E-1,4.402793646E-1,8.738588333E0
1.063392391E1,-7.896314561E-2,9.595218897E-1,8.102097511E0
1.064392391E1,1.914258115E-2,1.038485050E0,7.738388538E0
1.065392391E1,9.810572863E-2,1.155733347E0,7.374679565E0
1.066392391E1,7.657032460E-2,1.244267821E0,7.042077065E0
1.067392391E1,7.657032460E-2,1.244267821E0,7.042077065E0
1.068392391E1,7.657032460E-2,1.244267821E0,7.042077065E0
1.069392391E1,-6.939185411E-2,1.497906923E0,7.130611420E0
1.070392391E1,-6.939185411E-2,1.497906923E0,7.130611420E0
1.071392391E1,3.445664644E-1,1.725225091E0,7.941778183E0
1.072392391E1,4.809573591E-1,1.971685886E0,8.236095428E0
1.073392391E1,5.288137794E-1,2.124826431E0,8.494520187E0
1.074392391E1,5.288137794E-1,2.124826431E0,8.494520187E0
1.075392391E1,5.288137794E-1,2.124826431E0,8.494520187E0
1.076392391E1,7.657032460E-2,2.175075769E0,9.578469276E0
1.077392391E1,6.460621208E-2,2.072184324E0,9.662218094E0
1.078392391E1,2.392822690E-2,2.127219439E0,9.712467194E0
1.079392391E1,-7.178467698E-3,2.328216314E0,9.667003632E0
1.080392391E1,1.076770201E-1,2.586641312E0,9.638289452E0
1.081392391E1,4.522434771E-1,2.912065268E0,9.961320877E0
1.082392391E1,6.364908218E-1,2.971885681E0,1.015753174E1
1.083392391E1,8.159525394E-1,2.921636343E0,1.049013424E1
1.084392391E1,8.542376757E-1,2.833101988E0,1.095673466E1
1.085392391E1,7.489534616E-1,2.641676188E0,1.142812061E1
1.086392391E1,6.173482537E-1,2.354537487E0,1.185404301E1
1.087392391E1,3.637090325E-1,2.132004976E0,1.216511059E1
1.088392391E1,-2.632105052E-1,2.057827473E0,1.180618668E1
1.089392391E1,-3.637090325E-1,2.026720762E0,1.134915733E1
1.090392391E1,-1.459621787E-1,1.868794441E0,1.090409279E1
1.091392391E1,2.991028428E-1,1.804188251E0,1.070070267E1
1.092392391E1,8.039883971E-1,1.818545222E0,1.088016415E1
1.093392391E1,1.256231904E0,1.663011789E0,1.164826107E1
1.094392391E1,1.619940877E0,1.253839016E0,1.280160141E1
1.095392391E1,1.938186288E0,2.297109663E-1,1.465603828E1
1.096392391E1,1.737189293E0,-9.571290761E-2,1.453639793E1
1.097392391E1,1.246660590E0,-1.627119333E-1,1.383051491E1
1.098392391E1,8.398807645E-1,-1.866401732E-1,1.294038486E1
1.099392391E1,6.604190469E-1,-2.775674164E-1,1.198325539E1
1.100392391E1,5.670989752E-1,-3.230310678E-1,1.079880905E1
1.101392391E1,4.522434771E-1,-2.009970993E-1,9.367900848E0
1.102392391E1,5.742774606E-1,2.225325108E-1,7.030112743E0
1.103392391E1,8.470591903E-1,3.924229145E-1,6.486942291E0
1.104392391E1,1.127019525E0,4.666004181E-1,6.142375946E0
1.105392391E1,1.488335729E0,3.876372576E-1,5.938985825E0
1.106392391E1,1.780260086E0,2.536391914E-1,5.950950146E0
1.107392391E1,1.962114573E0,1.627119333E-1,6.128018856E0
1.108392391E1,2.134397745E0,5.264209956E-2,6.400800705E0
1.109392391E1,2.208575249E0,-1.890329868E-1,6.908079147E0
1.110392391E1,2.132004976E0,-2.081755698E-1,7.176074982E0
1.111392391E1,1.952543259E0,-2.368894368E-1,7.412964344E0
1.112392391E1,1.952543259E0,-2.368894368E-1,7.412964344E0
1.113392391E1,1.134197950E0,-9.092725813E-2,7.446464062E0
1.114392391E1,7.465606928E-1,-4.307080805E-2,7.118647575E0
1.115392391E1,6.101697683E-1,-1.028913707E-1,6.673582554E0
1.116392391E1,6.101697683E-1,-1.028913707E-1,6.673582554E0
1.117392391E1,6.101697683E-1,-1.028913707E-1,6.673582554E0
1.118392391E1,6.101697683E-1,-1.028913707E-1,6.673582554E0
1.119392391E1,-4.761717021E-1,3.517449200E-1,5.548955917E0
1.120392391E1,-4.761717021E-1,3.517449200E-1,5.548955917E0
1.121392391E1,-5.335994363E-1,6.125625968E-1,5.864808083E0
1.122392391E1,-5.551348329E-1,7.872386575E-1,5.994020939E0
1.123392391E1,-5.551348329E-1,7.872386575E-1,5.994020939E0
1.124392391E1,-5.551348329E-1,7.872386575E-1,5.994020939E0
1.125392391E1,-5.551348329E-1,7.872386575E-1,5.994020939E0
1.126392391E1,-7.896314561E-2,5.958128572E-1,7.582854748E0
1.127392391E1,1.483550072E-1,6.604190469E-1,8.236095428E0
1.128392391E1,4.737788737E-1,7.920243144E-1,9.023334503E0
1.129392391E1,8.805587292E-1,7.944171429E-1,9.820143700E0
1.130392391E1,8.805587292E-1,7.944171429E-1,9.820143700E0
1.131392391E1,6.173482537E-1,1.339980721E0,1.213400364E1
1.132392391E1,6.077769399E-1,1.395015597E0,1.266760349E1
1.133392391E1,7.704889178E-1,1.256231904E0,1.311984634E1
1.134392391E1,7.609176040E-1,1.246660590E0,1.345484161E1
1.135392391E1,7.609176040E-1,1.246660590E0,1.345484161E1
1.136392391E1,-1.555334777E-1,1.497906923E0,1.394776344E1
1.137392391E1,-1.325623751E0,1.311266780E0,1.447179127E1
1.138392391E1,-2.007578135E0,1.136590719E0,1.467278862E1
1.139392391E1,-2.713460922E0,1.122233868E0,1.485703564E1
1.140392391E1,-3.038884640E0,1.083948612E0,1.497906971E1
1.141392391E1,-3.091526747E0,1.136590719E0,1.507238960E1
1.142392391E1,-2.799602509E0,1.182054400E0,1.498385525E1
1.143392391E1,-2.388036966E0,1.282552958E0,1.488335705E1
1.144392391E1,-2.062613010E0,1.313659668E0,1.479721546E1
1.145392391E1,-1.962114573E0,1.100698471E0,1.502214050E1
1.146392391E1,-1.751546144E0,9.020941257E-1,1.501256943E1
1.147392391E1,-1.548156261E0,8.781659007E-1,1.474217987E1
1.148392391E1,-1.205982566E0,8.039883971E-1,1.471346664E1
1.149392391E1,-5.335994363E-1,2.943171859E-1,1.517288876E1
1.150392391E1,2.057827413E-1,-5.383850932E-1,1.618505287E1
1.151392391E1,9.164510965E-1,-2.426322222E0,1.739103508E1
1.152392391E1,5.814558864E-1,-3.105883837E0,1.665165329E1
1.153392391E1,-1.196411345E-2,-3.455235958E0,1.535474300E1
1.154392391E1,-4.905286431E-1,-3.550948858E0,1.376830196E1
1.155392391E1,-7.561319470E-1,-3.522234917E0,1.197846985E1
1.156392391E1,-8.087740541E-1,-3.357130051E0,1.010728264E1
1.157392391E1,-7.657032609E-1,-3.005385160E0,8.420342445E0
1.158392391E1,-7.537391186E-1,-1.933400750E0,6.482156754E0
1.159392391E1,-6.652047038E-1,-1.430907965E0,6.072983742E0
1.160392391E1,-7.010970116E-1,-8.470591903E-1,5.809773445E0
1.161392391E1,-5.623133183E-1,-3.948157430E-1,5.778666496E0
1.162392391E1,-1.770688742E-1,-1.890329868E-1,6.001199245E0
1.163392391E1,1.962114573E-1,-1.028913707E-1,6.278766632E0
1.164392391E1,4.522434771E-1,-1.076770201E-1,6.508477688E0
1.165392391E1,7.704889178E-1,-2.775674164E-1,6.843472958E0
1.166392391E1,8.853443861E-1,-4.666004181E-1,6.967899323E0
1.167392391E1,8.781659007E-1,-5.982056856E-1,7.027719975E0
1.168392391E1,7.369893789E-1,-6.388836503E-1,6.996613503E0
1.169392391E1,5.288137794E-1,-6.484549642E-1,6.951149940E0
1.170392391E1,3.684946895E-1,-6.819544435E-1,6.982256413E0
1.171392391E1,1.531406492E-1,-7.728816867E-1,7.123433113E0
1.172392391E1,1.531406492E-1,-7.728816867E-1,7.123433113E0
1.173392391E1,1.531406492E-1,-7.728816867E-1,7.123433113E0
1.174392391E1,1.531406492E-1,-7.728816867E-1,7.123433113E0
1.175392391E1,1.531406492E-1,-7.728816867E-1,7.123433113E0
1.176392391E1,-8.973084688E-1,-8.949156404E-1,7.719245911E0
1.177392391E1,-8.039883971E-1,-8.685946465E-1,7.647460938E0
1.178392391E1,-6.484549642E-1,-8.757730722E-1,7.389036179E0
1.179392391E1,-6.484549642E-1,-8.757730722E-1,7.389036179E0
1.180392391E1,-6.484549642E-1,-8.757730722E-1,7.389036179E0
1.181392391E1,-6.484549642E-1,-8.757730722E-1,7.389036179E0
1.182392391E1,1.674975827E-2,-5.264209956E-2,6.364908218E0
1.183392391E1,1.244267747E-1,1.148554832E-1,6.187839508E0
1.184392391E1,2.679961324E-1,2.560320199E-1,6.077769279E0
1.185392391E1,2.679961324E-1,2.560320199E-1,6.077769279E0
1.186392391E1,2.679961324E-1,2.560320199E-1,6.077769279E0
1.187392391E1,2.679961324E-1,2.560320199E-1,6.077769279E0
1.188392391E1,2.560320199E-1,6.843472719E-1,6.979863644E0
1.189392391E1,7.896314561E-2,7.130611539E-1,7.245467186E0
1.190392391E1,-2.368894368E-1,8.590233326E-1,7.463213921E0
1.191392391E1,-5.551348329E-1,1.045663476E0,7.678567886E0
1.192392391E1,-7.202396393E-1,1.129412293E0,7.908278942E0
1.193392391E1,-7.202396393E-1,1.129412293E0,7.908278942E0
1.194392391E1,-7.896314859E-1,1.146162033E0,9.714859962E0
1.195392391E1,-6.699903607E-1,9.044869542E-1,1.051884842E1
1.196392391E1,-5.934200287E-1,6.843472719E-1,1.146640587E1
1.197392391E1,-6.963114142E-1,5.575276613E-1,1.247617722E1
1.198392391E1,-9.164510965E-1,4.905286431E-1,1.343569946E1
1.199392391E1,-1.167697430E0,5.718846321E-1,1.415115356E1
1.200392391E1,-8.183453679E-1,4.594219327E-1,1.412483215E1
1.201392391E1,-3.373879790E-1,4.283152521E-1,1.373958778E1
1.202392391E1,3.349951655E-2,5.862415433E-1,1.355055428E1
1.203392391E1,2.321037948E-1,6.987041831E-1,1.367019558E1
1.204392391E1,2.321037948E-1,6.987041831E-1,1.367019558E1
1.205392391E1,-3.110669367E-2,1.435693651E-1,1.490967751E1
1.206392391E1,-5.599204898E-1,-2.727817893E-1,1.555574036E1
1.207392391E1,-1.619940877E0,-8.207381964E-1,1.631426430E1
1.208392391E1,-1.885544300E0,-9.571290612E-1,1.620658684E1
1.209392391E1,-1.820937991E0,-1.165304661E0,1.567298794E1
1.210392391E1,-1.464407444E0,-1.397408366E0,1.487378597E1
1.211392391E1,-9.475577474E-1,-1.526620865E0,1.395972729E1
1.212392391E1,-3.852444589E-1,-1.555334687E0,1.304088306E1
1.213392391E1,1.220339537E-1,-1.538584948E0,1.210289669E1
1.214392391E1,8.925228715E-1,-1.344766378E0,9.808179855E0
1.215392391E1,1.117448211E0,-1.165304661E0,8.642875671E0
1.216392391E1,1.304088354E0,-9.308080077E-1,7.503891945E0
1.217392391E1,1.533799291E0,-7.130611539E-1,6.407979012E0
1.218392391E1,1.830509305E0,-5.814558864E-1,5.412564754E0
1.219392391E1,2.112862349E0,-4.618147612E-1,4.632504463E0
1.220392391E1,2.282752752E0,-3.038884699E-1,4.134797573E0
1.221392391E1,2.237289190E0,6.699903309E-2,3.852444410E0
1.222392391E1,1.988435626E0,1.603191197E-1,4.072584152E0
1.223392391E1,1.564906001E0,1.722832322E-1,4.433900356E0
1.224392391E1,1.079162955E0,7.657032460E-2,4.809573650E0
1.225392391E1,5.455635786E-1,-5.503492057E-2,5.091926575E0
1.226392391E1,5.742774159E-2,-1.866401732E-1,5.228317261E0
1.227392391E1,-3.613162339E-1,-3.326023519E-1,5.280959606E0
1.228392391E1,-8.279166222E-1,-3.924229145E-1,5.312066078E0
1.229392391E1,-8.279166222E-1,-3.924229145E-1,5.312066078E0
1.230392391E1,-8.279166222E-1,-3.924229145E-1,5.312066078E0
1.231392391E1,-1.050449133E0,5.982056633E-2,5.726024628E0
1.232392391E1,-1.205982566E0,2.536391914E-1,5.907878876E0
1.233392391E1,-1.366301775E0,3.804588020E-1,6.037091732E0
1.234392391E1,-1.438086390E0,4.905286431E-1,6.137589931E0
1.235392391E1,-1.438086390E0,4.905286431E-1,6.137589931E0
1.236392391E1,-1.438086390E0,4.905286431E-1,6.137589931E0
1.237392391E1,-1.438086390E0,4.905286431E-1,6.137589931E0
1.238392391E1,-1.438086390E0,4.905286431E-1,6.137589931E0
1.239392391E1,3.828516304E-1,1.249053478E0,6.245266914E0
1.240392391E1,5.694918036E-1,1.237089276E0,6.943971157E0
1.241392391E1,5.216353536E-1,1.148554921E0,7.881958008E0
1.242392391E1,5.216353536E-1,1.148554921E0,7.881958008E0
1.243392391E1,5.216353536E-1,1.148554921E0,7.881958008E0
1.244392391E1,-1.296909928E0,2.847459018E-1,1.184207916E1
1.245392391E1,-2.151147604E0,1.603191197E-1,1.255992603E1
1.246392391E1,-2.878565550E0,1.292124242E-1,1.314856052E1
1.247392391E1,-3.424129248E0,1.531406492E-1,1.360798264E1
1.248392391E1,-3.701696634E0,2.177468538E-1,1.390229988E1
1.249392391E1,-3.701696634E0,2.177468538E-1,1.390229988E1
1.250392391E1,-3.701696634E0,2.177468538E-1,1.390229988E1
1.251392391E1,-3.175275564E0,4.402793646E-1,1.410808277E1
1.252392391E1,-2.955136061E0,3.661018610E-1,1.409372520E1
1.253392391E1,-2.706282377E0,2.321037948E-1,1.419183064E1
1.254392391E1,-2.385644197E0,1.052841991E-1,1.434975719E1
1.255392391E1,-2.256431818E0,7.178468257E-2,1.441914940E1
1.256392391E1,-2.256431818E0,7.178468257E-2,1.441914940E1
1.257392391E1,-1.768295884E0,-7.178467698E-3,1.400040531E1
1.258392391E1,-1.768295884E0,-7.178467698E-3,1.400040531E1
1.259392391E1,-9.738788009E-1,-8.662018180E-1,1.485942841E1
1.260392391E1,-8.374879360E-1,-1.426122308E0,1.581655788E1
1.261392391E1,-9.523434043E-1,-1.952543259E0,1.655354691E1
1.262392391E1,-1.225125194E0,-2.438286304E0,1.669711685E1
1.263392391E1,-1.954936147E0,-3.309273720E0,1.544806290E1
1.264392391E1,-2.199003935E0,-3.550948858E0,1.435214996E1
1.265392391E1,-2.388036966E0,-3.524627686E0,1.316530991E1
1.266392391E1,-2.481357098E0,-3.242274761E0,1.187797165E1
1.267392391E1,-2.306680918E0,-2.883351326E0,1.057388306E1
1.268392391E1,-2.067398787E0,-2.493321180E0,9.317651749E0
1.269392391E1,-1.871187329E0,-2.069791555E0,8.121239662E0
1.270392391E1,-1.438086390E0,-1.433300734E0,6.092126369E0
1.271392391E1,-1.229910851E0,-1.191625714E0,5.505885124E0
1.272392391E1,-1.134197950E0,-9.954141974E-1,5.221138954E0
1.273392391E1,-1.088734269E0,-8.231309652E-1,5.271388054E0
1.274392391E1,-9.810572863E-1,-7.298108935E-1,5.520241737E0
1.275392391E1,-8.470591903E-1,-6.939185858E-1,5.826523304E0
1.276392391E1,-7.633104324E-1,-6.556333899E-1,6.104090691E0
1.277392391E1,-5.694918036E-1,-6.364908218E-1,6.766902447E0
1.278392391E1,-3.589234054E-1,-7.561319470E-1,7.190432072E0
1.279392391E1,-2.871387303E-1,-8.781659007E-1,7.616354465E0
1.280392391E1,-3.972085714E-1,-9.116654396E-1,8.018348694E0
1.281392391E1,-5.766702294E-1,-8.997012973E-1,8.439485550E0
1.282392391E1,-6.819544435E-1,-9.164510965E-1,8.748159409E0
1.283392391E1,-7.752745152E-1,-9.260223508E-1,8.827122688E0
1.284392391E1,-9.858429432E-1,-7.824530005E-1,8.420342445E0
1.285392391E1,-9.667003751E-1,-6.699903607E-1,7.929814339E0
1.286392391E1,-8.805587292E-1,-5.048855543E-1,7.415357590E0
1.287392391E1,-8.805587292E-1,-5.048855543E-1,7.415357590E0
1.288392391E1,-6.293123364E-1,-4.307080805E-2,6.532405853E0
1.289392391E1,-4.618147612E-1,1.531406492E-1,6.171089649E0
1.290392391E1,-3.206382394E-1,3.804588020E-1,5.946164131E0
1.291392391E1,-3.206382394E-1,3.804588020E-1,5.946164131E0
1.292392391E1,-3.206382394E-1,3.804588020E-1,5.946164131E0
1.293392391E1,-3.206382394E-1,3.804588020E-1,5.946164131E0
1.294392391E1,5.623133183E-1,8.566305041E-1,5.927021503E0
1.295392391E1,5.623133183E-1,8.566305041E-1,5.927021503E0
1.296392391E1,4.259224236E-1,1.203589797E0,6.376872540E0
1.297392391E1,2.895315289E-1,1.349551916E0,6.845865726E0
1.298392391E1,2.895315289E-1,1.349551916E0,6.845865726E0
1.299392391E1,2.895315289E-1,1.349551916E0,6.845865726E0
1.300392391E1,2.895315289E-1,1.349551916E0,6.845865726E0
1.301392391E1,3.086741269E-1,1.438086390E0,9.140582085E0
1.302392391E1,3.684946895E-1,1.402194023E0,9.430113792E0
1.303392391E1,4.283152521E-1,1.299302697E0,9.808179855E0
1.304392391E1,4.307080805E-1,1.129412293E0,1.023170948E1
1.305392391E1,4.307080805E-1,1.129412293E0,1.023170948E1
1.306392391E1,2.488535494E-1,7.728816867E-1,1.152383423E1
1.307392391E1,3.326023519E-1,6.388836503E-1,1.197129154E1
1.308392391E1,3.732803464E-1,5.694918036E-1,1.227039433E1
1.309392391E1,2.560320199E-1,5.766702294E-1,1.242353535E1
1.310392391E1,1.052841991E-1,6.317051649E-1,1.246421337E1
1.311392391E1,-8.614161611E-2,6.867401004E-1,1.232064342E1
1.312392391E1,-3.972085714E-1,9.164510965E-1,1.170568848E1
1.313392391E1,-2.057827413E-1,9.571290612E-1,1.132522964E1
1.314392391E1,6.460621208E-2,9.978070259E-1,1.076052380E1
1.315392391E1,4.283152521E-1,9.858429432E-1,1.021017456E1
1.316392391E1,8.159525394E-1,1.105484009E0,1.024606609E1
1.317392391E1,1.031306505E0,1.100698471E0,1.104287624E1
1.318392391E1,1.342373490E0,5.862415433E-1,1.253121185E1
1.319392391E1,8.470591903E-1,-7.274180651E-1,1.534517193E1
1.320392391E1,-2.392822690E-2,-1.150947690E0,1.604626846E1
1.321392391E1,-7.992027402E-1,-1.426122308E0,1.615155220E1
1.322392391E1,-1.229910851E0,-1.629512191E0,1.549352646E1
1.323392391E1,-1.375872970E0,-1.708475351E0,1.438086414E1
1.324392391E1,-1.277767301E0,-1.536192179E0,1.314377499E1
1.325392391E1,-8.853443861E-1,-1.246660590E0,1.181575775E1
1.326392391E1,1.579262912E-1,-7.489534616E-1,1.014078236E1
1.327392391E1,3.613162339E-1,-6.269195080E-1,9.710074425E0
1.328392391E1,3.206382394E-1,-7.058826685E-1,9.231510162E0
1.329392391E1,2.177468538E-1,-8.446664214E-1,8.724231720E0
1.330392391E1,4.785645381E-2,-8.925228715E-1,8.193024635E0
1.331392391E1,-9.571290761E-2,-8.662018180E-1,7.652246952E0
1.332392391E1,-2.177468538E-1,-7.968099117E-1,7.123433113E0
1.333392391E1,-5.790630579E-1,-5.192425251E-1,6.008377552E0
1.334392391E1,-6.532405615E-1,-3.493520916E-1,5.489135265E0
1.335392391E1,-5.982056856E-1,-1.842473447E-1,5.130211830E0
1.336392391E1,-4.881358147E-1,-9.571290575E-3,4.953142643E0
1.337392391E1,-3.972085714E-1,1.746760458E-1,4.862215519E0
1.338392391E1,-3.062812984E-1,2.919243574E-1,4.838287354E0
1.339392391E1,-2.321037948E-1,3.756731451E-1,4.888536453E0
1.340392391E1,-8.135596663E-2,4.594219327E-1,5.292923450E0
1.341392391E1,1.914258115E-2,4.019941986E-1,5.465207100E0
1.342392391E1,1.770688742E-1,2.991028428E-1,5.611168861E0
1.343392391E1,3.182454109E-1,2.297109663E-1,5.776273727E0
1.344392391E1,4.187439680E-1,2.081755698E-1,6.013163090E0
1.345392391E1,5.000999570E-1,1.627119333E-1,6.494120598E0
1.346392391E1,4.546363056E-1,1.292124242E-1,7.214360237E0
1.347392391E1,4.546363056E-1,1.292124242E-1,7.214360237E0
1.348392391E1,4.546363056E-1,1.292124242E-1,7.214360237E0
1.349392391E1,4.546363056E-1,1.292124242E-1,7.214360237E0
1.350392391E1,4.546363056E-1,1.292124242E-1,7.214360237E0
1.351392391E1,1.172483116E-1,4.331009090E-1,1.062652493E1
1.352392391E1,-8.853443712E-2,7.202396393E-1,1.022931671E1
1.353392391E1,-3.397808075E-1,1.012163997E0,9.863214493E0
1.354392391E1,-3.397808075E-1,1.012163997E0,9.863214493E0
1.355392391E1,-3.397808075E-1,1.012163997E0,9.863214493E0
1.356392391E1,-1.251446247E0,1.921436548E0,1.090170002E1
1.357392391E1,-1.411765337E0,1.911865234E0,1.138983536E1
1.358392391E1,-1.411765337E0,1.911865234E0,1.138983536E1
1.358392391E1,-1.605584025E0,1.895115495E0,1.162672520E1
1.360392391E1,-1.832902193E0,1.890329838E0,1.145204926E1
1.361392391E1,-1.832902193E0,1.890329838E0,1.145204926E1
1.362392391E1,-1.272981644E0,1.828116536E0,1.055952644E1
1.363392391E1,-1.002592683E0,1.916650891E0,1.017906761E1
1.364392391E1,-4.211367965E-1,1.957328916E0,1.001635551E1
1.365392391E1,2.249253243E-1,2.024327993E0,1.025085258E1
1.366392391E1,7.154539824E-1,1.792224169E0,1.066002464E1
1.367392391E1,7.154539824E-1,1.792224169E0,1.066002464E1
1.368392391E1,7.154539824E-1,1.792224169E0,1.066002464E1
1.369392391E1,1.225125194E0,-2.464607239E0,1.885065651E1
1.370392391E1,7.680960894E-1,-3.553341627E0,2.115015984E1
1.371392391E1,-7.178467698E-3,-4.185046673E0,2.207378960E1
1.372392391E1,-8.590233326E-1,-4.503292084E0,2.144208336E1
1.373392391E1,-1.383051515E0,-4.797609329E0,1.970968056E1
1.374392391E1,-1.383051515E0,-4.797609329E0,1.970968056E1
1.375392391E1,-1.026520967E0,-4.177868366E0,1.321316624E1
1.376392391E1,-1.026520967E0,-4.177868366E0,1.321316624E1
1.377392391E1,1.435693651E-1,-2.995813847E0,1.055713367E1
1.378392391E1,5.096712112E-1,-2.378465652E0,9.755537987E0
1.379392391E1,7.441678643E-1,-1.940579176E0,9.279366493E0
1.380392391E1,1.103091240E0,-1.835294962E0,9.020941734E0
1.381392391E1,1.103091240E0,-1.835294962E0,9.020941734E0
1.382392391E1,1.797009826E0,-2.021935225E0,8.408378601E0
1.383392391E1,1.789831281E0,-1.942971945E0,8.319844246E0
1.384392391E1,1.634297848E0,-1.923829436E0,8.257631302E0
1.385392391E1,1.392622828E0,-1.856830359E0,8.183453560E0
1.386392391E1,1.014556766E0,-1.744367719E0,8.111668587E0
1.387392391E1,6.125625968E-1,-1.593619823E0,7.994420528E0
1.388392391E1,8.374879509E-2,-1.466800332E0,7.434499741E0
1.389392391E1,-4.785645381E-2,-1.447657704E0,7.037291527E0
1.390392391E1,-9.332008660E-2,-1.428515077E0,6.597012043E0
1.391392391E1,-1.004985496E-1,-1.399801254E0,6.082555294E0
1.392392391E1,-1.674975827E-2,-1.296909928E0,5.699703693E0
1.393392391E1,1.292124242E-1,-1.112662554E0,5.345565796E0
1.394392391E1,3.206382394E-1,-9.284151793E-1,4.965106964E0
1.395392391E1,8.111668825E-1,-4.977070987E-1,4.429114819E0
1.396392391E1,1.127019525E0,-3.565305769E-1,4.206582069E0
1.397392391E1,1.462014675E0,-2.249253243E-1,4.096512318E0
1.398392391E1,1.718046665E0,-9.332008660E-2,4.115654945E0
1.399392391E1,1.909472466E0,6.699903309E-2,4.297509670E0
1.400392391E1,2.124826431E0,2.440679073E-1,4.567898273E0
1.401392391E1,2.404786825E0,3.541377485E-1,4.874179840E0
1.402392391E1,2.404786825E0,3.541377485E-1,4.874179840E0
1.403392391E1,2.404786825E0,3.541377485E-1,4.874179840E0
1.404392391E1,2.404786825E0,3.541377485E-1,4.874179840E0
1.405392391E1,2.404786825E0,3.541377485E-1,4.874179840E0
1.406392391E1,1.241874933E0,4.713860750E-1,6.553941250E0
1.407392391E1,1.107876897E0,4.307080805E-1,7.118647575E0
1.408392391E1,1.083948612E0,4.019941986E-1,7.767102242E0
1.409392391E1,1.083948612E0,4.019941986E-1,7.767102242E0
1.410392391E1,1.083948612E0,4.019941986E-1,7.767102242E0
1.411392391E1,1.083948612E0,4.019941986E-1,7.767102242E0
1.412392391E1,-6.699903309E-2,5.407779217E-1,9.954142570E0
1.413392391E1,-6.699903309E-2,5.407779217E-1,9.954142570E0
1.414392391E1,-1.004985452E0,5.072783828E-1,1.303849030E1
1.415392391E1,-1.540977836E0,7.704889178E-1,1.496232033E1
1.416392391E1,-1.540977836E0,7.704889178E-1,1.496232033E1
1.417392391E1,-1.540977836E0,7.704889178E-1,1.496232033E1
1.418392391E1,-1.540977836E0,7.704889178E-1,1.496232033E1
1.419392391E1,5.575276613E-1,1.323230863E0,1.628076553E1
1.420392391E1,6.652047038E-1,1.184447169E0,1.551984787E1
1.421392391E1,3.445664644E-1,1.031306505E0,1.499103355E1
1.422392391E1,3.110669367E-2,6.891329288E-1,1.488814259E1
1.423392391E1,3.110669367E-2,6.891329288E-1,1.488814259E1
1.424392391E1,-1.012163997E0,-7.728816867E-1,1.549352646E1
1.425392391E1,-1.344766378E0,-1.067198873E0,1.534995747E1
1.426392391E1,-1.450050473E0,-1.347159147E0,1.498864079E1
1.427392391E1,-1.399801254E0,-1.538584948E0,1.443111324E1
1.428392391E1,-1.191625714E0,-1.624726534E0,1.368933868E1
1.429392391E1,-6.221339107E-1,-1.780260086E0,1.287099266E1
1.430392391E1,8.925228715E-1,-2.072184324E0,1.094237804E1
1.431392391E1,1.569691658E0,-2.060220242E0,1.004267693E1
1.432392391E1,2.172683001E0,-2.021935225E0,9.274580956E0
1.433392391E1,2.562713146E0,-1.954936147E0,8.489734650E0
1.434392391E1,2.634497643E0,-1.758724689E0,7.685746193E0
1.435392391E1,2.388036966E0,-1.430907965E0,6.908079147E0
1.436392391E1,2.050648928E0,-1.150947690E0,6.309873104E0
1.437392391E1,1.552941918E0,-8.829515576E-1,5.297709465E0
1.438392391E1,1.275374413E0,-7.728816867E-1,4.847858906E0
1.439392391E1,1.060020447E0,-6.556333899E-1,4.472185612E0
1.440392391E1,8.925228715E-1,-5.431707501E-1,4.206582069E0
1.441392391E1,7.345965505E-1,-3.828516304E-1,4.070191383E0
1.442392391E1,5.264210105E-1,-1.818545163E-1,4.074976921E0
1.443392391E1,2.727817893E-1,1.674975827E-2,4.170690060E0
1.444392391E1,-1.435693651E-1,3.230310678E-1,4.371686935E0
1.445392391E1,-2.033899277E-1,3.541377485E-1,4.366901398E0
1.446392391E1,-9.810572863E-2,3.302095234E-1,4.338187218E0
1.447392391E1,1.363908947E-1,3.134597540E-1,4.287938118E0
1.448392391E1,2.129612118E-1,4.283152521E-1,4.287938118E0
1.449392391E1,2.057827413E-1,5.766702294E-1,4.326223373E0
1.450392391E1,3.493520916E-1,6.604190469E-1,4.551148891E0
1.451392391E1,6.723831892E-1,8.231309652E-1,5.218746185E0
1.452392391E1,7.322037220E-1,9.547362328E-1,5.752345562E0
1.453392391E1,7.537391186E-1,9.882357717E-1,6.403193474E0
1.454392391E1,7.489534616E-1,8.901300430E-1,7.034898758E0
1.455392391E1,6.604190469E-1,7.848458290E-1,7.594819069E0
1.456392391E1,4.546363056E-1,7.345965505E-1,8.152346611E0
1.457392391E1,2.679961324E-1,6.723831892E-1,8.822337151E0
1.458392391E1,2.679961324E-1,6.723831892E-1,8.822337151E0
1.459392391E1,2.679961324E-1,6.723831892E-1,8.822337151E0
1.460392391E1,2.679961324E-1,6.723831892E-1,8.822337151E0
1.461392391E1,2.679961324E-1,6.723831892E-1,8.822337151E0
1.462392391E1,3.828516230E-2,7.944171429E-1,1.412004662E1
1.463392391E1,-5.527420044E-1,8.015955687E-1,1.463689613E1
1.464392391E1,-1.205982566E0,7.657032609E-1,1.512263870E1
1.465392391E1,-1.205982566E0,7.657032609E-1,1.512263870E1
1.466392391E1,-1.205982566E0,7.657032609E-1,1.512263870E1
1.467392391E1,-1.205982566E0,7.657032609E-1,1.512263870E1
1.468392391E1,-1.978864312E0,9.164510965E-1,1.553659725E1
1.469392391E1,-1.808973908E0,9.571290612E-1,1.536670685E1
1.470392391E1,-1.753939033E0,9.499505758E-1,1.533320713E1
1.471392391E1,-1.753939033E0,9.499505758E-1,1.533320713E1
1.472392391E1,-1.753939033E0,9.499505758E-1,1.533320713E1
1.473392391E1,-1.753939033E0,9.499505758E-1,1.533320713E1
1.474392391E1,-1.983649969E0,1.165304661E0,1.321795273E1
1.475392391E1,-1.512263894E0,9.858429432E-1,1.306959724E1
1.476392391E1,-1.048056364E0,6.412764788E-1,1.332084370E1
1.477392391E1,-7.034898400E-1,8.853443712E-2,1.418704510E1
1.478392391E1,-7.034898400E-1,8.853443712E-2,1.418704510E1
1.479392391E1,-7.034898400E-1,8.853443712E-2,1.418704510E1
1.480392391E1,-1.584048629E0,-1.804188251E0,1.476610851E1
1.481392391E1,-1.584048629E0,-1.804188251E0,1.476610851E1
1.482392391E1,-1.952543259E0,-1.959721804E0,1.226082325E1
1.483392391E1,-1.744367719E0,-1.878365755E0,1.078684425E1
1.484392391E1,-1.323230863E0,-1.763510346E0,9.274580956E0
1.485392391E1,-7.609176040E-1,-1.627119422E0,7.889136314E0
1.486392391E1,3.397808075E-1,-1.282552958E0,5.788238049E0
1.487392391E1,7.154539824E-1,-1.117448211E0,5.211567879E0
1.488392391E1,1.040877819E0,-1.057627559E0,5.008177757E0
1.489392391E1,1.301695466E0,-1.045663476E0,5.084748268E0
1.490392391E1,1.526620865E0,-1.138983607E0,5.556134224E0
1.491392391E1,1.567298889E0,-1.251446247E0,6.321837425E0
1.492392391E1,1.445264935E0,-1.265803218E0,7.099504948E0
1.493392391E1,1.026520967E0,-1.246660590E0,8.051848412E0
1.494392391E1,1.026520967E0,-1.246660590E0,8.051848412E0
1.495392391E1,8.590233326E-1,-1.363908887E0,8.051848412E0
1.496392391E1,8.015955687E-1,-1.387837172E0,7.764709473E0
1.497392391E1,5.934200287E-1,-1.263410330E0,7.429714203E0
1.498392391E1,3.182454109E-1,-9.571290612E-1,7.142575741E0
1.499392391E1,1.507478207E-1,-6.867401004E-1,6.857829571E0
1.500392391E1,-1.698904037E-1,-1.794617027E-1,6.276373863E0
1.501392391E1,-4.331009090E-1,8.614161611E-2,6.039484501E0
1.502392391E1,-6.005984545E-1,3.038884699E-1,5.919843197E0
1.503392391E1,-6.101697683E-1,4.857429862E-1,6.094519138E0
1.504392391E1,-5.503492355E-1,6.412764788E-1,6.431907177E0
1.505392391E1,-4.498506486E-1,7.609176040E-1,6.790830612E0
1.506392391E1,-3.445664644E-1,9.068797827E-1,7.025327206E0
1.507392391E1,-6.221339107E-1,1.299302697E0,7.475177765E0
1.508392391E1,-8.638089895E-1,1.440479279E0,7.774280548E0
1.509392391E1,-1.143769264E0,1.529013634E0,8.037490845E0
1.510392391E1,-1.418943882E0,1.619940877E0,8.377271652E0
1.511392391E1,-1.691725612E0,1.787438512E0,8.733802795E0
1.512392391E1,-1.761117458E0,1.933400750E0,9.016156197E0
1.513392391E1,-1.572084427E0,2.007578135E0,9.296115875E0
1.514392391E1,-1.572084427E0,2.007578135E0,9.296115875E0
1.515392391E1,-1.572084427E0,2.007578135E0,9.296115875E0
1.516392391E1,-1.572084427E0,2.007578135E0,9.296115875E0
1.517392391E1,-1.572084427E0,2.007578135E0,9.296115875E0
1.518392391E1,-1.572084427E0,2.007578135E0,9.296115875E0
1.519392391E1,-8.590233326E-1,1.603191137E0,1.016949654E1
1.520392391E1,-1.014556766E0,1.555334687E0,1.049731255E1
1.521392391E1,-1.014556766E0,1.555334687E0,1.049731255E1
1.522392391E1,-1.014556766E0,1.555334687E0,1.049731255E1
1.523392391E1,-1.014556766E0,1.555334687E0,1.049731255E1
1.524392391E1,-5.312066078E-1,1.320838094E0,1.168893814E1
1.525392391E1,-6.053841114E-1,1.318445325E0,1.221775246E1
1.526392391E1,-5.072783828E-1,1.344766378E0,1.274895859E1
1.527392391E1,-2.632105052E-1,1.280160069E0,1.288774300E1
1.528392391E1,-2.632105052E-1,1.280160069E0,1.288774300E1
1.529392391E1,-2.632105052E-1,1.280160069E0,1.288774300E1
1.530392391E1,6.699903607E-1,7.657032460E-2,1.172243786E1
1.531392391E1,6.699903607E-1,7.657032460E-2,1.172243786E1
1.532392391E1,4.426721931E-1,-8.422735929E-1,1.278006554E1
1.533392391E1,-4.785645287E-3,-1.220339537E0,1.341416359E1
1.534392391E1,-6.388836503E-1,-1.378265858E0,1.384487152E1
1.535392391E1,-6.388836503E-1,-1.378265858E0,1.384487152E1
1.536392391E1,-1.584048629E0,-1.409372568E0,1.291167068E1
1.537392391E1,-1.385444283E0,-1.289731383E0,1.184207916E1
1.538392391E1,-8.877372146E-1,-1.045663476E0,1.073659515E1
1.539392391E1,-1.794617027E-1,-7.680960894E-1,9.619147301E0
1.540392391E1,6.197410822E-1,-5.742774606E-1,8.618947029E0
1.541392391E1,1.366301775E0,-4.666004181E-1,7.819744587E0
1.542392391E1,2.225325108E0,-2.943171859E-1,7.094718933E0
1.543392391E1,2.433500528E0,-2.847459018E-1,7.027719975E0
1.544392391E1,2.550748825E0,-2.751746178E-1,6.941578388E0
1.545392391E1,2.529213428E0,-2.703889608E-1,6.754938126E0
1.546392391E1,2.529213428E0,-2.703889608E-1,6.754938126E0
1.547392391E1,1.911865234E0,-6.460621208E-2,6.175875187E0
1.548392391E1,1.457229018E0,7.896314561E-2,5.783452511E0
1.549392391E1,7.393822074E-1,2.560320199E-1,5.139782906E0
1.550392391E1,4.378865361E-1,3.828516304E-1,4.989035130E0
1.551392391E1,2.751746178E-1,4.450650215E-1,4.991427898E0
1.552392391E1,2.727817893E-1,4.809573591E-1,5.137390137E0
1.553392391E1,3.206382394E-1,5.503492355E-1,5.369493961E0
1.554392391E1,4.019941986E-1,6.460621357E-1,5.620740414E0
1.555392391E1,4.905286431E-1,7.633104324E-1,5.929414749E0
1.556392391E1,5.240281820E-1,9.284151793E-1,6.317051888E0
1.557392391E1,5.000999570E-1,1.012163997E0,6.391229153E0
1.558392391E1,4.402793646E-1,1.095912814E0,6.539584160E0
1.559392391E1,3.684946895E-1,1.184447169E0,6.716653347E0
1.560392391E1,2.679961324E-1,1.239482164E0,6.929614544E0
1.561392391E1,1.986042857E-1,1.284945726E0,7.183253765E0
1.562392391E1,1.794617027E-1,1.363908887E0,7.367500782E0
1.563392391E1,3.541377485E-1,1.473978758E0,8.221738815E0
1.564392391E1,5.335994363E-1,1.452443361E0,8.934800148E0
1.565392391E1,7.561319470E-1,1.325623751E0,9.817750931E0
1.566392391E1,1.007378340E0,1.167697430E0,1.069591713E1
1.567392391E1,1.232303619E0,9.978070259E-1,1.143529987E1
1.568392391E1,1.330409408E0,8.087740541E-1,1.183250809E1
1.569392391E1,1.246660590E0,6.364908218E-1,1.208614731E1
1.570392391E1,5.216353536E-1,4.953143001E-1,1.233500099E1
1.571392391E1,5.216353536E-1,4.953143001E-1,1.233500099E1
1.572392391E1,5.216353536E-1,4.953143001E-1,1.233500099E1
1.573392391E1,5.216353536E-1,4.953143001E-1,1.233500099E1
1.574392391E1,5.216353536E-1,4.953143001E-1,1.233500099E1
1.575392391E1,-1.734796405E0,1.050449133E0,1.223210907E1
1.576392391E1,-1.887937069E0,1.095912814E0,1.232782269E1
1.577392391E1,-1.887937069E0,1.095912814E0,1.232782269E1
1.578392391E1,-1.887937069E0,1.095912814E0,1.232782269E1
1.579392391E1,-1.887937069E0,1.095912814E0,1.232782269E1
1.580392391E1,-1.887937069E0,1.095912814E0,1.232782269E1
1.581392391E1,-1.909472466E0,1.081555843E0,1.303131199E1
1.582392391E1,-2.136790514E0,1.189232826E0,1.281595802E1
1.583392391E1,-2.282752752E0,1.189232826E0,1.241157150E1
1.584392391E1,-2.282752752E0,1.189232826E0,1.241157150E1
1.585392391E1,-2.282752752E0,1.189232826E0,1.241157150E1
1.586392391E1,-2.282752752E0,1.189232826E0,1.241157150E1
1.587392391E1,-9.140582681E-1,-4.642075896E-1,1.439282799E1
1.588392391E1,-8.350951076E-1,-9.116654396E-1,1.506999683E1
1.589392391E1,-9.188438654E-1,-1.318445325E0,1.512981796E1
1.590392391E1,-1.098305583E0,-1.588834286E0,1.467518139E1
1.591392391E1,-1.098305583E0,-1.588834286E0,1.467518139E1
1.592392391E1,-1.098305583E0,-1.588834286E0,1.467518139E1
1.593392391E1,-1.261017561E0,-1.378265858E0,9.973284721E0
1.594392391E1,-1.002592683E0,-1.186840057E0,8.918049812E0
1.595392391E1,-7.657032609E-1,-9.451649189E-1,8.133204460E0
1.596392391E1,-5.790630579E-1,-7.633104324E-1,7.503891945E0
1.597392391E1,-4.522434771E-1,-6.604190469E-1,7.037291527E0
1.598392391E1,-4.522434771E-1,-6.604190469E-1,7.037291527E0
1.599392391E1,-4.522434771E-1,-6.604190469E-1,7.037291527E0
1.600392391E1,-1.268195957E-1,-1.174875975E0,8.126026154E0
1.601392391E1,-2.991028428E-1,-1.263410330E0,8.640482903E0
1.602392391E1,-5.527420044E-1,-1.356730461E0,9.097511292E0
1.603392391E1,-7.680960894E-1,-1.454836130E0,9.408578873E0
1.604392391E1,-9.403793216E-1,-1.521835208E0,9.499505997E0
1.605392391E1,-1.024128079E0,-1.536192179E0,8.879764557E0
1.606392391E1,-8.566305041E-1,-1.497906923E0,8.248059273E0
1.607392391E1,-6.484549642E-1,-1.342373490E0,7.520641804E0
1.608392391E1,-4.546363056E-1,-1.122233868E0,6.905686378E0
1.609392391E1,-2.943171859E-1,-9.092726111E-1,6.463014126E0
1.610392391E1,-1.579262912E-1,-7.250252366E-1,6.195017815E0
1.611392391E1,-6.221338734E-2,-6.101697683E-1,6.001199245E0
1.612392391E1,-1.555334777E-1,-4.139583111E-1,5.804987907E0
1.613392391E1,-1.244267747E-1,-3.852444589E-1,5.740381718E0
1.614392391E1,-1.148554832E-1,-3.589234054E-1,5.568098068E0
1.615392391E1,-1.316052526E-1,-2.608176768E-1,5.486742496E0
1.616392391E1,-1.722832322E-1,-9.571290761E-2,5.596812248E0
1.617392391E1,-3.254238665E-1,4.785645381E-2,5.848058701E0
1.618392391E1,-4.689932466E-1,1.746760458E-1,6.214160442E0
1.619392391E1,-6.891329288E-1,2.775674164E-1,7.262216568E0
1.620392391E1,-8.159525394E-1,2.297109663E-1,7.802994728E0
1.621392391E1,-7.992027402E-1,2.416750938E-1,8.293522835E0
1.622392391E1,-6.556333899E-1,2.823530734E-1,8.755337715E0
1.623392391E1,-4.402793646E-1,3.565305769E-1,9.219545364E0
1.624392391E1,-1.674975902E-1,4.091726840E-1,9.724431038E0
1.625392391E1,6.460621208E-2,4.929214716E-1,1.024606609E1
1.626392391E1,3.158525825E-1,6.532405615E-1,1.130369377E1
1.627392391E1,3.158525825E-1,5.910272002E-1,1.168415260E1
1.628392391E1,3.972085714E-1,4.546363056E-1,1.199282742E1
1.629392391E1,6.173482537E-1,2.392822653E-1,1.214596748E1
1.630392391E1,9.116654396E-1,7.417750359E-2,1.222253799E1
1.631392391E1,9.116654396E-1,7.417750359E-2,1.222253799E1
1.632392391E1,1.280160069E0,1.435693540E-2,1.248335552E1
1.633392391E1,1.280160069E0,1.435693540E-2,1.248335552E1
1.634392391E1,1.280160069E0,1.435693540E-2,1.248335552E1
1.635392391E1,1.280160069E0,1.435693540E-2,1.248335552E1
1.636392391E1,1.280160069E0,1.435693540E-2,1.248335552E1
1.637392391E1,1.196411327E-1,4.570291340E-1,1.213878918E1
1.638392391E1,1.483550072E-1,5.407779217E-1,1.166501045E1
1.639392391E1,4.139583111E-1,5.958128572E-1,1.110269737E1
1.640392391E1,4.139583111E-1,5.958128572E-1,1.110269737E1
1.641392391E1,4.139583111E-1,5.958128572E-1,1.110269737E1
1.642392391E1,4.139583111E-1,5.958128572E-1,1.110269737E1
1.643392391E1,1.713261008E0,9.810572863E-2,1.337587833E1
1.644392391E1,1.569691658E0,-3.182454109E-1,1.440000629E1
1.645392391E1,1.246660590E0,-7.322037220E-1,1.490967751E1
1.646392391E1,7.776673436E-1,-9.762716293E-1,1.485703564E1
1.647392391E1,7.776673436E-1,-9.762716293E-1,1.485703564E1
1.648392391E1,7.776673436E-1,-9.762716293E-1,1.485703564E1
1.649392391E1,7.776673436E-1,-9.762716293E-1,1.485703564E1
1.650392391E1,8.255237937E-1,-1.050449133E0,9.391828537E0
1.651392391E1,8.255237937E-1,-1.050449133E0,9.391828537E0
1.652392391E1,1.548156261E0,-7.752745152E-1,9.066405296E0
1.653392391E1,1.820937991E0,-7.274180651E-1,9.640682220E0
1.654392391E1,1.820937991E0,-7.274180651E-1,9.640682220E0
1.655392391E1,1.820937991E0,-7.274180651E-1,9.640682220E0
1.656392391E1,1.354337573E0,-5.934200287E-1,8.384450912E0
1.657392391E1,8.327022791E-1,-4.546363056E-1,7.446464062E0
1.658392391E1,3.397808075E-1,-3.469592929E-1,6.635297298E0
1.659392391E1,-1.100698411E-1,-2.153540403E-1,6.001199245E0
1.660392391E1,-5.024927258E-1,-6.939185411E-2,5.570491314E0
1.661392391E1,-5.024927258E-1,-6.939185411E-2,5.570491314E0
1.662392391E1,-1.052842021E0,1.100698411E-1,5.431707382E0
1.663392391E1,-1.122233868E0,5.503492057E-2,5.410171986E0
1.664392391E1,-1.217946768E0,7.657032460E-2,5.335994720E0
1.665392391E1,-1.229910851E0,1.148554832E-1,5.280959606E0
1.666392391E1,-1.162911773E0,1.531406492E-1,5.245067120E0
1.667392391E1,-9.020941257E-1,1.651047617E-1,5.355136871E0
1.668392391E1,-9.020941257E-1,1.651047617E-1,5.355136871E0
1.669392391E1,1.579262912E-1,3.828516304E-1,5.797809124E0
1.669392391E1,1.579262912E-1,3.828516304E-1,5.797809124E0
1.671392391E1,1.579262912E-1,3.828516304E-1,5.797809124E0
1.672392391E1,8.685946465E-1,6.005984545E-1,6.501298904E0
1.673392391E1,1.115055323E0,6.077769399E-1,6.824330330E0
1.674392391E1,1.201196909E0,6.101697683E-1,7.195217609E0
1.675392391E1,1.060020447E0,5.790630579E-1,8.260024071E0
1.676392391E1,9.834501147E-1,5.120640397E-1,8.925228119E0
1.677392391E1,9.451649189E-1,4.259224236E-1,9.547362328E0
1.678392391E1,9.260223508E-1,4.043870270E-1,1.008814049E1
1.679392391E1,9.164510965E-1,4.091726840E-1,1.056909752E1
1.680392391E1,8.925228715E-1,4.115654826E-1,1.096869946E1
1.681392391E1,7.848458290E-1,5.216353536E-1,1.135155106E1
1.682392391E1,3.565305769E-1,9.786644578E-1,1.154297638E1
1.683392391E1,-9.571290575E-3,1.186840057E0,1.124626637E1
1.684392391E1,-9.571290575E-3,1.186840057E0,1.124626637E1
1.685392391E1,-4.642075896E-1,1.380658627E0,1.088973618E1
1.686392391E1,-4.929214716E-1,1.483550072E0,1.115294647E1
1.687392391E1,-5.599204898E-1,1.586441398E0,1.161715412E1
1.688392391E1,-6.269195080E-1,1.596012712E0,1.215553856E1
1.689392391E1,-5.527420044E-1,1.495514154E0,1.335912895E1
1.690392391E1,-4.139583111E-1,1.359123230E0,1.400758362E1
1.691392391E1,-2.440679073E-1,1.172483087E0,1.440239906E1
1.692392391E1,-2.440679073E-1,1.172483087E0,1.440239906E1
1.693392391E1,-2.440679073E-1,1.172483087E0,1.440239906E1
1.694392391E1,-6.029912829E-1,1.493121386E0,1.364387512E1
1.695392391E1,-5.886343718E-1,1.713261008E0,1.294756317E1
1.696392391E1,1.842473447E-1,1.564906001E0,1.297867012E1
1.697392391E1,5.096712112E-1,1.040877819E0,1.427318668E1
1.698392391E1,5.599204898E-1,2.512463629E-1,1.548395538E1
1.699392391E1,1.507478207E-1,-5.503492355E-1,1.622094536E1
1.700392391E1,-4.737788737E-1,-1.217946768E0,1.661576080E1
1.701392391E1,-1.222732425E0,-1.670190215E0,1.652722549E1
1.702392391E1,-1.883151412E0,-1.957328916E0,1.596012688E1
1.703392391E1,-2.622533560E0,-2.232503414E0,1.351466274E1
1.704392391E1,-2.644068956E0,-2.160718918E0,1.203589821E1
1.705392391E1,-2.380858421E0,-1.995614052E0,1.062413216E1
1.706392391E1,-1.907079697E0,-1.751546144E0,9.391828537E0
1.707392391E1,-1.330409408E0,-1.485942841E0,8.315058708E0
1.708392391E1,-7.704889178E-1,-1.189232826E0,7.436892986E0
1.709392391E1,-3.038884699E-1,-8.829515576E-1,6.841079712E0
1.710392391E1,3.541377485E-1,-4.689932466E-1,6.606583118E0
1.711392391E1,6.005984545E-1,-4.929214716E-1,6.903293133E0
1.712392391E1,9.068797827E-1,-5.455635786E-1,7.563712597E0
1.713392391E1,1.112662554E0,-5.623133183E-1,8.319844246E0
1.714392391E1,1.201196909E0,-6.005984545E-1,8.896514893E0
1.715392391E1,1.155733347E0,-6.460621357E-1,9.107083321E0
1.716392391E1,9.236295223E-1,-7.058826685E-1,8.877371788E0
1.717392391E1,3.182454109E-1,-7.154539824E-1,7.829315662E0
1.718392391E1,1.100698411E-1,-6.532405615E-1,7.367500782E0
1.719392391E1,-4.546362907E-2,-5.479564071E-1,6.991827965E0
1.720392391E1,-1.124626622E-1,-3.852444589E-1,6.640082836E0
1.721392391E1,-3.110669367E-2,-2.273181528E-1,6.326622963E0
1.722392391E1,1.770688742E-1,-1.100698411E-1,5.991627693E0
1.723392391E1,4.498506486E-1,1.674975827E-2,5.754738331E0
1.724392391E1,4.498506486E-1,1.674975827E-2,5.754738331E0
1.725392391E1,4.498506486E-1,1.674975827E-2,5.754738331E0
1.726392391E1,4.498506486E-1,1.674975827E-2,5.754738331E0
1.727392391E1,8.853443861E-1,1.057627559E0,5.230710506E0
1.728392391E1,8.231309652E-1,1.158126116E0,5.493920803E0
1.729392391E1,7.920243144E-1,1.155733347E0,6.015556335E0
1.730392391E1,6.867401004E-1,1.191625714E0,6.912864685E0
1.731392391E1,6.867401004E-1,1.191625714E0,6.912864685E0
1.732392391E1,6.867401004E-1,1.191625714E0,6.912864685E0
1.733392391E1,6.867401004E-1,1.191625714E0,6.912864685E0
1.734392391E1,3.732803464E-1,1.361516118E0,7.970492363E0
1.735392391E1,4.929214716E-1,1.406979680E0,7.944170952E0
1.736392391E1,5.670989752E-1,1.490728498E0,8.154739380E0
1.737392391E1,6.556333899E-1,1.512263894E0,8.606983185E0
1.738392391E1,6.556333899E-1,1.512263894E0,8.606983185E0
1.739392391E1,6.556333899E-1,1.512263894E0,8.606983185E0
1.740392391E1,1.009771109E0,9.523434043E-1,1.065763187E1
1.741392391E1,1.253839016E0,9.332008362E-1,1.083948612E1
1.742392391E1,1.471585870E0,1.162911773E0,1.091844940E1
1.743392391E1,1.677368641E0,1.450050473E0,1.105005455E1
1.744392391E1,1.756331801E0,1.825723648E0,1.131087303E1
1.745392391E1,1.756331801E0,1.825723648E0,1.131087303E1
1.746392391E1,1.756331801E0,1.825723648E0,1.131087303E1
1.747392391E1,1.404586911E0,2.273181438E0,1.192582798E1
1.748392391E1,1.387837172E0,2.275574446E0,1.147597694E1
1.749392391E1,1.672582984E0,2.299502611E0,1.092323494E1
1.750392391E1,1.947757602E0,2.481357098E0,1.060977554E1
1.751392391E1,2.261217356E0,2.715853691E0,1.042074299E1
1.752392391E1,2.261217356E0,2.715853691E0,1.042074299E1
1.753392391E1,2.261217356E0,2.715853691E0,1.042074299E1
1.754392391E1,2.488535643E0,1.536192179E0,1.302652645E1
1.755392391E1,2.120040894E0,9.810572863E-1,1.356012630E1
1.756392391E1,1.679761529E0,5.335994363E-1,1.385922909E1
1.757392391E1,1.263410330E0,2.249253243E-1,1.377787304E1
1.758392391E1,9.164510965E-1,-1.674975827E-2,1.341177082E1
1.759392391E1,6.843472719E-1,-5.982056633E-2,1.226321602E1
1.760392391E1,8.709874153E-1,-4.546362907E-2,1.161236858E1
1.761392391E1,1.244267821E0,-1.651047617E-1,1.097109222E1
1.762392391E1,1.581655741E0,-3.397808075E-1,1.026999474E1
1.763392391E1,1.820937991E0,-4.594219327E-1,9.600004196E0
1.764392391E1,1.993221283E0,-5.144568682E-1,9.123832703E0
1.765392391E1,2.093719721E0,-5.551348329E-1,8.673981667E0
1.766392391E1,1.895115495E0,-4.953143001E-1,7.587640762E0
1.767392391E1,1.674975872E0,-4.354937077E-1,7.080362320E0
1.768392391E1,1.421336651E0,-3.278166950E-1,6.707081795E0
1.769392391E1,1.194018483E0,-1.746760458E-1,6.355337143E0
1.770392391E1,9.882357717E-1,-3.589234129E-2,6.039484501E0
1.771392391E1,8.422735929E-1,8.135596663E-2,5.742774487E0
1.772392391E1,6.891329288E-1,2.153540403E-1,5.493920803E0
1.773392391E1,3.278166950E-1,5.072783828E-1,5.041677475E0
1.774392391E1,1.579262912E-1,5.982056856E-1,4.859822750E0
1.775392391E1,-2.871387079E-2,6.436693072E-1,4.699503899E0
1.776392391E1,-1.746760458E-1,6.580262184E-1,4.677968502E0
1.777392391E1,-2.009970993E-1,6.771687865E-1,4.809573650E0
1.778392391E1,-1.651047617E-1,7.058826685E-1,5.091926575E0
1.779392391E1,-9.571290761E-2,7.824530005E-1,5.469992638E0
1.780392391E1,-2.392822644E-3,1.016949654E0,6.180660725E0
1.781392391E1,-2.392822644E-3,1.016949654E0,6.180660725E0
1.782392391E1,-2.392822644E-3,1.016949654E0,6.180660725E0
1.783392391E1,-2.392822644E-3,1.016949654E0,6.180660725E0
1.784392391E1,1.234696507E0,1.485942841E0,7.769495010E0
1.785392391E1,1.129412293E0,1.560120344E0,8.298309326E0
1.786392391E1,8.973084688E-1,1.500299811E0,8.807980537E0
1.787392391E1,8.973084688E-1,1.500299811E0,8.807980537E0
1.788392391E1,8.973084688E-1,1.500299811E0,8.807980537E0
1.789392391E1,8.973084688E-1,1.500299811E0,8.807980537E0
1.790392391E1,1.435693651E-1,1.316052437E0,1.243310642E1
1.791392391E1,7.657032460E-2,1.447657704E0,1.304088306E1
1.792392391E1,-3.589234129E-2,1.596012712E0,1.328973675E1
1.793392391E1,-2.991028428E-1,1.749153376E0,1.317248821E1
1.794392391E1,-2.991028428E-1,1.749153376E0,1.317248821E1
1.795392391E1,-2.991028428E-1,1.749153376E0,1.317248821E1
1.796392391E1,-1.127019525E0,2.206182480E0,1.260299683E1
1.797392391E1,-1.246660590E0,2.242074728E0,1.276570892E1
1.798392391E1,-1.292124271E0,2.175075769E0,1.287817192E1
1.799392391E1,-1.335195065E0,2.012363911E0,1.298584843E1
1.800392391E1,-1.390229940E0,1.816152334E0,1.308156109E1
1.801392391E1,-1.660618901E0,1.703689694E0,1.287577820E1
1.802392391E1,-1.909472466E0,1.820937991E0,1.244746304E1
1.803392391E1,-2.134397745E0,1.942971945E0,1.184207916E1
1.804392391E1,-2.218146563E0,2.060220242E0,1.107159042E1
1.805392391E1,-1.921436548E0,2.026720762E0,1.049491978E1
1.806392391E1,-1.165304661E0,1.701296926E0,1.098784161E1
1.807392391E1,-2.656033039E-1,1.141376376E0,1.281117249E1
1.808392391E1,-2.656033039E-1,1.141376376E0,1.281117249E1
1.809392391E1,2.536391914E-1,-7.824530005E-1,1.738385582E1
1.810392391E1,-1.914258152E-1,-1.170090318E0,1.742214203E1
1.811392391E1,-7.106683254E-1,-1.540977836E0,1.647697639E1
1.812392391E1,-1.232303619E0,-1.883151412E0,1.495514107E1
1.813392391E1,-1.663011789E0,-2.153540373E0,1.316770267E1
1.814392391E1,-1.952543259E0,-2.268395901E0,1.139701462E1
1.815392391E1,-1.825723648E0,-2.002792597E0,8.848658562E0
1.816392391E1,-1.521835208E0,-1.718046665E0,7.853243828E0
1.817392391E1,-1.107876897E0,-1.328016520E0,7.147361279E0
1.818392391E1,-6.173482537E-1,-9.547362328E-1,6.798008919E0
1.819392391E1,-1.363908947E-1,-6.939185858E-1,6.570691109E0
1.820392391E1,2.416750938E-1,-4.642075896E-1,6.573083878E0
1.821392391E1,5.431707501E-1,-3.302095234E-1,6.695117950E0
1.822392391E1,5.431707501E-1,-3.302095234E-1,6.695117950E0
1.823392391E1,1.103091240E0,-4.163511395E-1,7.398607731E0
1.824392391E1,8.781659007E-1,-3.708875179E-1,7.460821152E0
1.825392391E1,6.436693072E-1,-3.972085714E-1,7.343572617E0
1.826392391E1,4.594219327E-1,-4.809573591E-1,7.085147858E0
1.827392391E1,2.919243574E-1,-5.024927258E-1,6.843472958E0
1.828392391E1,2.249253243E-1,-4.977070987E-1,6.699903488E0
1.829392391E1,3.661018610E-1,-4.163511395E-1,6.855436802E0
1.830392391E1,3.948157430E-1,-3.230310678E-1,6.888936520E0
1.831392391E1,3.302095234E-1,-2.321037948E-1,6.838686943E0
1.832392391E1,2.512463629E-1,-1.746760458E-1,6.659225464E0
1.833392391E1,2.153540403E-1,-1.555334777E-1,6.388836384E0
1.834392391E1,1.770688742E-1,-1.172483116E-1,6.096911907E0
1.835392391E1,1.435693651E-1,-4.785645381E-2,5.862415314E0
1.836392391E1,1.100698411E-1,1.674975902E-1,5.752345562E0
1.837392391E1,1.196411327E-1,3.206382394E-1,5.881557941E0
1.838392391E1,2.201396823E-1,4.259224236E-1,6.017949104E0
1.839392391E1,3.445664644E-1,5.551348329E-1,6.144768715E0
1.840392391E1,4.905286431E-1,7.130611539E-1,6.273981094E0
1.841392391E1,5.718846321E-1,9.116654396E-1,6.479763508E0
1.842392391E1,6.029912829E-1,1.076770186E0,6.778866768E0
1.843392391E1,6.412764788E-1,1.210768223E0,7.721638680E0
1.844392391E1,6.508477330E-1,1.229910851E0,8.236095428E0
1.845392391E1,5.551348329E-1,1.265803218E0,8.762516975E0
1.846392391E1,3.924229145E-1,1.227517962E0,9.334401131E0
1.847392391E1,1.842473447E-1,1.098305583E0,9.973284721E0
1.848392391E1,2.392822690E-2,9.786644578E-1,1.063370419E1
1.849392391E1,-7.657032460E-2,8.662018180E-1,1.123430252E1
1.850392391E1,-7.657032460E-2,8.662018180E-1,1.123430252E1
1.851392391E1,-7.657032460E-2,8.662018180E-1,1.123430252E1
1.852392391E1,-7.657032460E-2,8.662018180E-1,1.123430252E1
1.853392391E1,-2.656033039E-1,4.881358147E-1,1.343569946E1
1.854392391E1,-8.135596663E-2,3.349951804E-1,1.384247875E1
1.855392391E1,7.178467698E-3,2.799602449E-1,1.418465233E1
1.856392391E1,-3.110669367E-2,3.900300860E-1,1.433779335E1
1.857392391E1,-3.110669367E-2,3.900300860E-1,1.433779335E1
1.858392391E1,-3.110669367E-2,3.900300860E-1,1.433779335E1
1.859392391E1,-3.110669367E-2,3.900300860E-1,1.433779335E1
1.860392391E1,-3.110669367E-2,3.900300860E-1,1.433779335E1
1.861392391E1,1.019342422E0,1.284945726E0,1.310309696E1
1.862392391E1,1.471585870E0,9.834501147E-1,1.398365593E1
1.863392391E1,1.674975872E0,4.211367965E-1,1.488335705E1
1.864392391E1,1.674975872E0,4.211367965E-1,1.488335705E1
1.865392391E1,1.674975872E0,4.211367965E-1,1.488335705E1
1.866392391E1,-2.632104978E-2,-1.141376376E0,1.543849182E1
1.867392391E1,-2.895315289E-1,-1.363908887E0,1.432582951E1
1.868392391E1,-3.278166950E-1,-1.423729420E0,1.297867012E1
1.869392391E1,-1.339980662E-1,-1.325623751E0,1.174158096E1
1.870392391E1,2.560320199E-1,-1.191625714E0,1.071027374E1
1.871392391E1,2.560320199E-1,-1.191625714E0,1.071027374E1
1.872392391E1,2.560320199E-1,-1.191625714E0,1.071027374E1
1.872392391E1,1.696511269E0,-9.954141974E-1,8.851051331E0
1.874392391E1,1.696511269E0,-9.954141974E-1,8.851051331E0
1.875392391E1,2.029113531E0,-8.111668825E-1,7.087540627E0
1.876392391E1,1.765903115E0,-6.628118753E-1,6.448657036E0
1.877392391E1,1.361516118E0,-5.216353536E-1,5.955735683E0
1.878392391E1,5.000999570E-1,-3.924229145E-1,5.343173027E0
1.879392391E1,5.000999570E-1,-3.924229145E-1,5.343173027E0
1.880392391E1,-2.967100143E-1,-3.326023519E-1,5.091926575E0
1.881392391E1,-6.460621357E-1,-3.086741269E-1,4.979464054E0
1.882392391E1,-9.403793216E-1,-2.727817893E-1,4.888536453E0
1.883392391E1,-1.201196909E0,-2.321037948E-1,4.835894585E0
1.884392391E1,-1.316052437E0,-1.890329868E-1,4.771288395E0
1.885392391E1,-1.043270707E0,-1.124626622E-1,4.637290478E0
1.886392391E1,-7.704889178E-1,-2.871387079E-2,4.589433670E0
1.887392391E1,-4.378865361E-1,1.268195957E-1,4.711467743E0
1.888392391E1,-1.986042857E-1,2.799602449E-1,4.917250633E0
1.889392391E1,-8.135596663E-2,3.637090325E-1,5.130211830E0
1.890392391E1,-3.589234129E-2,4.067798555E-1,5.357530117E0
1.891392391E1,-4.067798331E-2,4.522434771E-1,5.647061348E0
1.892392391E1,-3.349951655E-2,4.857429862E-1,6.228517532E0
1.893392391E1,-3.349951655E-2,5.982056856E-1,6.719046116E0
1.894392391E1,-1.196411345E-2,7.274180651E-1,7.417750359E0
1.895392391E1,8.853443712E-2,8.111668825E-1,8.252845764E0
1.896392391E1,1.746760458E-1,8.303094506E-1,9.102297783E0
1.897392391E1,2.536391914E-1,8.087740541E-1,9.973284721E0
1.898392391E1,3.517449200E-1,8.327022791E-1,1.088255692E1
1.899392391E1,6.077769399E-1,1.055234790E0,1.276092339E1
1.900392391E1,6.077769399E-1,1.055234790E0,1.276092339E1
1.901392391E1,6.077769399E-1,1.055234790E0,1.276092339E1
1.902392391E1,6.077769399E-1,1.055234790E0,1.276092339E1
1.903392391E1,-6.675975323E-1,1.646261930E0,1.279681587E1
1.904392391E1,-9.786644578E-1,1.730010748E0,1.236132145E1
1.905392391E1,-1.160519004E0,1.892722726E0,1.226082325E1
1.906392391E1,-1.160519004E0,1.892722726E0,1.226082325E1
1.907392391E1,-1.160519004E0,1.892722726E0,1.226082325E1
1.908392391E1,-1.160519004E0,1.892722726E0,1.226082325E1
1.909392391E1,-9.906286001E-1,1.569691658E0,1.383290768E1
1.910392391E1,-9.308080077E-1,1.339980721E0,1.395733452E1
1.911392391E1,-9.308080077E-1,1.339980721E0,1.395733452E1
1.912392391E1,-1.115055323E0,1.361516118E0,1.344527054E1
1.913392391E1,-1.115055323E0,1.361516118E0,1.344527054E1
1.914392391E1,-1.115055323E0,1.361516118E0,1.344527054E1
1.915392391E1,1.914258115E-2,1.103091240E0,1.259581852E1
1.916392391E1,5.958128572E-1,3.948157430E-1,1.401476192E1
1.917392391E1,9.212366939E-1,-4.019941986E-1,1.541217041E1
1.918392391E1,8.709874153E-1,-1.117448211E0,1.643629837E1
1.919392391E1,4.211367965E-1,-1.615155339E0,1.686940002E1
1.920392391E1,4.211367965E-1,-1.615155339E0,1.686940002E1
1.921392391E1,-1.354337573E0,-2.301895380E0,1.319402409E1
1.922392391E1,-1.519442320E0,-2.222932339E0,1.124387360E1
1.923392391E1,-1.359123230E0,-2.014756680E0,9.494720459E0
1.924392391E1,-9.188438654E-1,-1.682154298E0,8.212167740E0
1.925392391E1,-3.445664644E-1,-1.363908887E0,7.295716286E0
1.926392391E1,-3.445664644E-1,-1.363908887E0,7.295716286E0
1.927392391E1,-3.445664644E-1,-1.363908887E0,7.295716286E0
1.928392391E1,1.184447169E0,-1.201196909E0,7.312466145E0
1.929392391E1,1.220339537E0,-1.335195065E0,7.917850018E0
1.930392391E1,1.167697430E0,-1.464407444E0,8.446663857E0
1.931392391E1,1.019342422E0,-1.569691658E0,8.920442581E0
1.932392391E1,7.226324677E-1,-1.603191137E0,9.253045082E0
1.933392391E1,-1.052841991E-1,-1.490728498E0,9.387042999E0
1.934392391E1,-4.187439680E-1,-1.354337573E0,9.111868858E0
1.935392391E1,-4.953143001E-1,-1.167697430E0,8.571090698E0
1.936392391E1,-3.445664644E-1,-9.403793216E-1,7.877171993E0
1.937392391E1,-4.067798331E-2,-6.460621357E-1,7.137789726E0
1.938392391E1,3.110669553E-1,-3.421736360E-1,6.486942291E0
1.939392391E1,7.082754970E-1,-9.810572863E-2,5.922235966E0
1.940392391E1,7.082754970E-1,-9.810572863E-2,5.922235966E0
1.941392391E1,1.347159147E0,3.206382394E-1,5.118247509E0
1.942392391E1,1.347159147E0,3.206382394E-1,5.118247509E0
1.943392391E1,1.091127157E0,3.134597540E-1,5.422136307E0
1.944392391E1,8.757730722E-1,2.799602449E-1,5.618347645E0
1.945392391E1,6.747759581E-1,2.656033039E-1,5.776273727E0
1.946392391E1,5.168496966E-1,2.919243574E-1,5.912664890E0
1.947392391E1,1.986042857E-1,2.464607358E-1,6.314659119E0
1.948392391E1,-1.268195957E-1,3.062812984E-1,6.630511761E0
1.949392391E1,-3.900300860E-1,4.307080805E-1,7.063612461E0
1.950392391E1,-5.503492355E-1,5.168496966E-1,7.501499176E0
1.951392391E1,-5.958128572E-1,7.585247755E-1,7.925028801E0
1.952392391E1,-6.604190469E-1,1.031306505E0,8.293522835E0
1.953392391E1,-6.029912829E-1,1.177268744E0,8.654839516E0
1.954392391E1,-3.062812984E-1,1.284945726E0,9.339186668E0
1.955392391E1,-2.703889608E-1,1.316052437E0,9.772287369E0
1.956392391E1,-2.440679073E-1,1.203589797E0,1.017188931E1
1.957392391E1,-2.823530734E-1,1.014556766E0,1.059781170E1
1.958392391E1,-4.354937077E-1,7.920243144E-1,1.092802143E1
1.959392391E1,-4.354937077E-1,7.920243144E-1,1.092802143E1
1.960392391E1,-6.843472719E-1,7.369893789E-1,1.132283688E1
1.961392391E1,-6.843472719E-1,7.369893789E-1,1.132283688E1
1.962392391E1,-6.843472719E-1,7.369893789E-1,1.132283688E1
1.963392391E1,-6.843472719E-1,7.369893789E-1,1.132283688E1
1.964392391E1,-6.843472719E-1,7.369893789E-1,1.132283688E1
1.965392391E1,-6.364908218E-1,1.153340459E0,1.226082325E1
1.966392391E1,-6.867401004E-1,1.012163997E0,1.217228889E1
1.967392391E1,-7.609176040E-1,8.590233326E-1,1.190668583E1
1.968392391E1,-7.609176040E-1,8.590233326E-1,1.190668583E1
1.969392391E1,-7.609176040E-1,8.590233326E-1,1.190668583E1
1.970392391E1,-7.609176040E-1,8.590233326E-1,1.190668583E1
1.971392391E1,2.871387303E-1,2.129612118E-1,1.380419350E1
1.972392391E1,5.024927258E-1,-1.339980662E-1,1.475414467E1
1.973392391E1,7.130611539E-1,-5.168496966E-1,1.571366596E1
1.974392391E1,8.111668825E-1,-9.499505758E-1,1.642912102E1
1.975392391E1,8.111668825E-1,-9.499505758E-1,1.642912102E1
1.976392391E1,8.111668825E-1,-9.499505758E-1,1.642912102E1
1.977392391E1,8.111668825E-1,-9.499505758E-1,1.642912102E1
1.978392391E1,-1.076770201E-1,-1.667797327E0,1.131805134E1
1.979392391E1,1.076770201E-1,-1.485942841E0,9.920642853E0
1.980392391E1,4.761717021E-1,-1.328016520E0,8.843872070E0
1.981392391E1,8.949156404E-1,-1.194018483E0,8.078168869E0
1.982392391E1,8.949156404E-1,-1.194018483E0,8.078168869E0
1.983392391E1,2.007578135E0,-9.068797827E-1,6.910471916E0
1.984392391E1,2.065006018E0,-7.417750359E-1,6.628118515E0
1.985392391E1,1.940579176E0,-5.120640397E-1,6.305087566E0
1.986392391E1,1.636690736E0,-2.560320199E-1,5.907878876E0
1.987392391E1,1.249053478E0,-5.742774159E-2,5.422136307E0
1.988392391E1,8.255237937E-1,6.939185411E-2,4.895715237E0
1.989392391E1,1.627119333E-1,1.579262912E-1,4.204189301E0
1.990392391E1,-1.363908947E-1,1.531406492E-1,4.189832687E0
1.991392391E1,-4.139583111E-1,1.387837082E-1,4.383651257E0
1.992392391E1,-4.139583111E-1,1.387837082E-1,4.383651257E0
1.993392391E1,-6.556333899E-1,1.627119333E-1,5.154139996E0
1.994392391E1,-6.029912829E-1,1.579262912E-1,5.534598827E0
1.995392391E1,-5.192425251E-1,1.555334777E-1,5.819344521E0
1.996392391E1,-3.326023519E-1,3.062812984E-1,6.099305153E0
1.997392391E1,-3.589234129E-2,3.732803464E-1,6.168696880E0
1.998392391E1,3.086741269E-1,4.761717021E-1,6.357729912E0
1.999392391E1,5.312066078E-1,6.556333899E-1,6.616154671E0
2.000392391E1,6.221339107E-1,8.566305041E-1,6.853044033E0
2.001392391E1,6.867401004E-1,9.212366939E-1,7.085147858E0
2.002392391E1,6.484549642E-1,8.805587292E-1,7.362715244E0
2.003392391E1,1.794617027E-1,8.709874153E-1,8.379665375E0
2.004392391E1,1.435693540E-2,8.111668825E-1,9.059226990E0
2.005392391E1,-8.614161611E-2,7.154539824E-1,9.762716293E0
2.006392391E1,-1.962114573E-1,6.891329288E-1,1.049970531E1
2.007392391E1,-2.009970993E-1,6.652047038E-1,1.114816093E1
2.008392391E1,-2.105683982E-1,6.221339107E-1,1.167218876E1
2.009392391E1,-2.536391914E-1,6.340979934E-1,1.212921810E1
2.010392391E1,-4.522434771E-1,9.427721500E-1,1.274656582E1
2.011392391E1,-7.298108935E-1,1.095912814E0,1.278006554E1
2.012392391E1,-1.129412293E0,1.222732425E0,1.268674564E1
2.013392391E1,-1.418943882E0,1.325623751E0,1.255274773E1
2.014392391E1,-1.545763373E0,1.414158225E0,1.243549919E1
2.015392391E1,-1.674975872E0,1.557727575E0,1.232542896E1
2.016392391E1,-1.751546144E0,1.698904037E0,1.228475189E1
2.017392391E1,-1.751546144E0,1.698904037E0,1.228475189E1
2.018392391E1,-1.751546144E0,1.698904037E0,1.228475189E1
2.019392391E1,-1.751546144E0,1.698904037E0,1.228475189E1
2.020392391E1,-1.751546144E0,1.698904037E0,1.228475189E1
2.021392391E1,-2.294716835E0,4.570291340E-1,1.424686623E1
2.022392391E1,-2.632104874E0,5.335994363E-1,1.400040531E1
2.023392391E1,-2.861815929E0,7.202396393E-1,1.345005608E1
2.024392391E1,-2.861815929E0,7.202396393E-1,1.345005608E1
2.025392391E1,-2.861815929E0,7.202396393E-1,1.345005608E1
2.026392391E1,-2.861815929E0,7.202396393E-1,1.345005608E1
2.027392391E1,-8.374879509E-2,-4.881358147E-1,1.416311741E1
2.028392391E1,-1.100698411E-1,-1.170090318E0,1.502931881E1
2.029392391E1,-5.479564071E-1,-1.701296926E0,1.544327736E1
2.030392391E1,-1.179661512E0,-2.050648928E0,1.539302826E1
2.031392391E1,-1.179661512E0,-2.050648928E0,1.539302826E1
2.032392391E1,-1.179661512E0,-2.050648928E0,1.539302826E1
2.033392391E1,-2.088934183E0,-3.132204771E0,1.126540947E1
2.034392391E1,-1.775474429E0,-3.022135019E0,9.786644936E0
2.035392391E1,-1.249053478E0,-2.770888567E0,8.508877754E0
2.036392391E1,-5.862415433E-1,-2.378465652E0,7.393822193E0
2.037392391E1,-1.674975827E-2,-1.883151412E0,6.424728870E0
2.038392391E1,8.135597110E-1,-1.076770186E0,5.209175110E0
2.039392391E1,9.164510965E-1,-8.685946465E-1,5.058426857E0
2.040392391E1,7.274180651E-1,-7.968099117E-1,5.230710506E0
2.041392391E1,3.541377485E-1,-8.446664214E-1,5.769095421E0
2.042392391E1,1.196411345E-2,-9.619147182E-1,6.472585201E0
2.043392391E1,-2.632105052E-1,-1.062413216E0,7.125825882E0
2.044392391E1,-4.594219327E-1,-1.105484009E0,7.618747234E0
2.045392391E1,-4.594219327E-1,-1.105484009E0,7.618747234E0
2.046392391E1,-3.756731451E-1,-8.542376757E-1,8.135597229E0
2.047392391E1,-2.033899277E-1,-6.939185858E-1,7.984848976E0
2.048392391E1,1.196411345E-2,-5.120640397E-1,7.661818027E0
2.049392391E1,2.703889608E-1,-4.187439680E-1,7.228717327E0
2.050392391E1,4.498506486E-1,-2.967100143E-1,6.826723099E0
2.051392391E1,5.096712112E-1,-1.483550072E-1,6.642475605E0
2.052392391E1,3.014956415E-1,6.460621208E-2,6.498906136E0
2.053392391E1,1.627119333E-1,9.810572863E-2,6.388836384E0
2.054392391E1,-9.571290575E-3,2.033899277E-1,6.314659119E0
2.055392391E1,-1.794617027E-1,3.397808075E-1,6.319444656E0
2.056392391E1,-3.086741269E-1,4.642075896E-1,6.506084919E0
2.057392391E1,-3.397808075E-1,5.503492355E-1,6.920042992E0
2.058392391E1,-2.967100143E-1,5.982056856E-1,7.338787079E0
2.059392391E1,-1.914258152E-1,7.680960894E-1,8.080561638E0
2.060392391E1,-5.503492057E-2,8.279166222E-1,8.360522270E0
2.061392391E1,1.292124242E-1,8.638089895E-1,8.599804878E0
2.062392391E1,3.038884699E-1,8.901300430E-1,8.903693199E0
