"Time (s)","Gyroscope x (rad/s)","Gyroscope y (rad/s)","Gyroscope z (rad/s)"
1.314792400E-2,-1.634063274E-1,7.217367291E-1,2.426660359E-1
2.189584100E-2,-1.237001196E-1,5.360338688E-1,2.457203567E-1
3.189584100E-2,0.000000000E0,0.000000000E0,0.000000000E0
4.189584100E-2,0.000000000E0,0.000000000E0,0.000000000E0
5.189584100E-2,0.000000000E0,0.000000000E0,0.000000000E0
6.189584100E-2,-1.664606482E-1,3.356702030E-1,3.098611534E-1
7.189584100E-2,-1.664606482E-1,3.356702030E-1,3.098611534E-1
7.189584100E-2,-1.237001196E-1,2.238819450E-1,2.787070572E-1
9.189584100E-2,-1.237001196E-1,2.238819450E-1,2.787070572E-1
1.018958410E-1,-1.237001196E-1,2.238819450E-1,2.787070572E-1
1.118958410E-1,-1.237001196E-1,2.238819450E-1,2.787070572E-1
1.218958410E-1,2.901607752E-2,4.492910504E-1,6.185005978E-2
1.318958410E-1,-6.200277433E-2,6.661480665E-1,8.261945844E-2
1.418958410E-1,-1.469129771E-1,7.938187718E-1,1.094975099E-1
1.518958410E-1,-2.134972364E-1,8.035926223E-1,1.449276656E-1
1.618958410E-1,-2.134972364E-1,8.035926223E-1,1.449276656E-1
1.718958410E-1,-2.134972364E-1,8.035926223E-1,1.449276656E-1
1.818958410E-1,-2.134972364E-1,8.035926223E-1,1.449276656E-1
1.918958410E-1,-2.733619809E-1,2.202167511E-1,4.686860144E-1
2.018958410E-1,-1.456912458E-1,2.229656465E-2,5.554288030E-1
2.118958410E-1,-3.695731983E-2,-8.826996386E-2,6.177369952E-1
2.218958410E-1,3.756818548E-2,-1.524107605E-1,6.501128674E-1
2.318958410E-1,3.756818548E-2,-1.524107605E-1,6.501128674E-1
2.418958410E-1,3.756818548E-2,-1.524107605E-1,6.501128674E-1
2.518958410E-1,1.670715213E-1,5.833758786E-2,7.221949100E-1
2.618958410E-1,1.572976857E-1,1.566868126E-1,6.684387922E-1
2.718958410E-1,1.475238502E-1,1.658497900E-1,5.975784659E-1
2.818958410E-1,9.804379940E-2,1.456912458E-1,5.535961986E-1
2.918958410E-1,2.138026757E-3,8.704823256E-2,5.175551772E-1
3.018958410E-1,2.138026757E-3,8.704823256E-2,5.175551772E-1
3.118958410E-1,-4.450149834E-1,-1.298087686E-1,4.271472096E-1
3.218958410E-1,-5.170970559E-1,-2.086103261E-1,4.204276800E-1
3.318958410E-1,-5.482511520E-1,-1.994473487E-1,4.240928590E-1
3.418958410E-1,-5.311469436E-1,-1.133154184E-1,4.662425518E-1
3.518958410E-1,-4.499019086E-1,9.468403645E-3,5.548179150E-1
3.618958410E-1,-2.965748608E-1,1.157588735E-1,6.818777919E-1
3.718958410E-1,9.132428467E-2,3.436114490E-1,9.182825089E-1
3.818958410E-1,2.800815105E-1,3.851502538E-1,9.622647166E-1
3.918958410E-1,4.431824088E-1,3.381136656E-1,9.585995674E-1
4.018958410E-1,5.470294356E-1,2.415970266E-1,9.133955836E-1
4.118958410E-1,5.720748901E-1,1.609628648E-1,8.345940113E-1
4.218958410E-1,5.299251676E-1,1.371391416E-1,7.405208349E-1
4.318958410E-1,4.529562294E-1,1.304196268E-1,6.366738081E-1
4.418958410E-1,2.263254076E-1,4.245510325E-2,4.442514181E-1
4.518958410E-1,8.399390429E-2,-4.978547990E-2,3.868301213E-1
4.618958410E-1,-6.444623321E-2,-1.762344837E-1,3.434587121E-1
4.718958410E-1,-1.939495653E-1,-3.197877109E-1,3.098611534E-1
4.818958410E-1,-2.843575478E-1,-4.395172000E-1,2.658788860E-1
4.918958410E-1,-3.509418070E-1,-4.877755344E-1,2.115119249E-1
5.018958410E-1,-4.028653204E-1,-4.859429300E-1,1.565341055E-1
5.118958410E-1,-4.199695289E-1,-3.814850450E-1,9.239330143E-2
5.218958410E-1,-4.199695289E-1,-3.814850450E-1,9.239330143E-2
5.318958410E-1,-4.199695289E-1,-3.814850450E-1,9.239330143E-2
5.418958410E-1,-4.199695289E-1,-3.814850450E-1,9.239330143E-2
5.518958410E-1,-4.199695289E-1,-3.814850450E-1,9.239330143E-2
5.618958410E-1,-6.261363626E-2,-2.116646469E-1,-2.183841541E-2
5.718958410E-1,7.635809947E-3,-2.086103261E-1,-2.306014486E-2
5.818958410E-1,7.635809947E-3,-2.086103261E-1,-2.306014486E-2
5.918958410E-1,7.635809947E-3,-2.086103261E-1,-2.306014486E-2
6.018958410E-1,7.635809947E-3,-2.086103261E-1,-2.306014486E-2
6.118958410E-1,7.635809947E-3,-2.086103261E-1,-2.306014486E-2
6.218958410E-1,-2.892444730E-1,-3.680460155E-1,1.058323234E-1
6.318958410E-1,-3.851502538E-1,-4.902189970E-1,1.479819864E-1
6.418958410E-1,-4.150826037E-1,-6.539307237E-1,2.151771188E-1
6.518958410E-1,-4.150826037E-1,-6.539307237E-1,2.151771188E-1
6.618958410E-1,-4.150826037E-1,-6.539307237E-1,2.151771188E-1
6.718958410E-1,-4.150826037E-1,-6.539307237E-1,2.151771188E-1
6.818958410E-1,-4.150826037E-1,-6.539307237E-1,2.151771188E-1
6.918958410E-1,4.725039005E-1,-4.028653204E-1,4.130973220E-1
7.018958410E-1,6.814196706E-1,-6.954695582E-1,3.104720116E-1
7.118958410E-1,8.316923976E-1,-9.202677608E-1,1.791360974E-1
7.218958410E-1,8.316923976E-1,-9.202677608E-1,1.791360974E-1
7.318958410E-1,8.316923976E-1,-9.202677608E-1,1.791360974E-1
7.418958410E-1,8.316923976E-1,-9.202677608E-1,1.791360974E-1
7.518958410E-1,-2.257145345E-1,7.327322960E-1,-9.621120058E-3
7.618958410E-1,-5.054906011E-1,7.400626540E-1,-9.621120058E-3
7.718958410E-1,-7.199041247E-1,6.325504780E-1,-3.649916872E-2
7.818958410E-1,-8.292489648E-1,4.346303046E-1,-1.067486182E-1
7.918958410E-1,-8.292489648E-1,4.346303046E-1,-1.067486182E-1
8.018958410E-1,-8.292489648E-1,4.346303046E-1,-1.067486182E-1
8.118958410E-1,-9.630283117E-1,-5.769617558E-1,-5.514581800E-1
8.218958410E-1,-9.257655740E-1,-7.742711306E-1,-6.217076182E-1
8.318958410E-1,-7.620537877E-1,-8.616247773E-1,-6.595812440E-1
8.418958410E-1,-5.122101307E-1,-8.432988524E-1,-6.937896609E-1
8.518958410E-1,-2.257145345E-1,-7.412844300E-1,-7.255546451E-1
8.618958410E-1,-2.257145345E-1,-7.412844300E-1,-7.255546451E-1
8.718958410E-1,-2.257145345E-1,-7.412844300E-1,-7.255546451E-1
8.818958410E-1,7.797688842E-1,6.688969582E-2,-7.402154207E-1
8.918958410E-1,9.062178731E-1,1.780670881E-1,-7.463240623E-1
9.018958410E-1,9.300416112E-1,2.128863782E-1,-7.402154207E-1
9.118958410E-1,8.561269641E-1,2.385426909E-1,-7.170025110E-1
9.218958410E-1,7.064651251E-1,2.477056682E-1,-6.882919073E-1
9.318958410E-1,7.064651251E-1,2.477056682E-1,-6.882919073E-1
9.418958410E-1,-3.970621154E-3,2.718348242E-2,-4.366155863E-1
9.518958410E-1,-2.128863782E-1,8.765909821E-2,-3.425424397E-1
9.618958410E-1,-3.613265157E-1,2.263254076E-1,-2.814559340E-1
9.718958410E-1,-4.456258714E-1,3.698786199E-1,-2.521344423E-1
9.818958410E-1,-4.798342884E-1,4.480693042E-1,-2.619082630E-1
9.918958410E-1,-4.834994674E-1,4.456258714E-1,-2.936732471E-1
1.001895841E0,-4.315759540E-1,3.698786199E-1,-3.877464235E-1
1.011895841E0,-3.582721949E-1,3.686569035E-1,-4.268417656E-1
1.021895841E0,-2.745837271E-1,4.462367296E-1,-4.781544209E-1
1.031895841E0,-2.568686306E-1,6.087267399E-1,-4.769326746E-1
1.041895841E0,-3.423897028E-1,8.781180978E-1,-4.720457494E-1
1.051895841E0,-4.095848203E-1,1.049771070E0,-5.471821427E-1
1.061895841E0,-4.639517963E-1,1.149342060E0,-5.862774849E-1
1.071895841E0,-5.287034512E-1,1.173165798E0,-5.294670463E-1
1.081895841E0,-5.219839811E-1,1.061988473E0,-4.854847789E-1
1.091895841E0,-4.853320718E-1,8.909462690E-1,-4.928151667E-1
1.101895841E0,-4.370737374E-1,7.993165851E-1,-5.251910090E-1
1.111895841E0,-4.236347377E-1,6.337721944E-1,-5.062541962E-1
1.121895841E0,-4.272999167E-1,4.651735425E-1,-4.897608459E-1
1.131895841E0,-3.955349326E-1,2.696968019E-1,-4.567741454E-1
1.141895841E0,-2.525925934E-1,-3.268126398E-2,-4.085158110E-1
1.151895841E0,-1.872300506E-1,-4.489856213E-2,-4.323395491E-1
1.161895841E0,-1.383608729E-1,2.351829410E-2,-4.720457494E-1
1.171895841E0,-1.017089859E-1,1.200349256E-1,-5.203040838E-1
1.181895841E0,-6.505709887E-2,1.860083193E-1,-5.667297840E-1
1.191895841E0,-2.596175298E-2,1.915061027E-1,-6.021599770E-1
1.201895841E0,3.023780696E-2,1.108719558E-1,-6.192641854E-1
1.211895841E0,2.165515572E-1,-1.127045527E-1,-5.471821427E-1
1.221895841E0,3.155116439E-1,-1.401934624E-1,-4.555523992E-1
1.231895841E0,4.077522457E-1,-9.437860548E-2,-3.352120519E-1
1.241895841E0,4.834994674E-1,4.917461425E-2,-2.222020626E-1
1.251895841E0,5.421425104E-1,2.434296161E-1,-1.446222365E-1
1.261895841E0,5.904008150E-1,3.704894781E-1,-1.128572673E-1
1.271895841E0,6.136136651E-1,3.833176494E-1,-1.214093715E-1
1.281895841E0,6.044507027E-1,1.682932526E-1,-2.124282271E-1
1.291895841E0,5.769617558E-1,1.435532235E-2,-2.832885385E-1
1.301895841E0,5.396990180E-1,-9.437860548E-2,-3.443750143E-1
1.311895841E0,5.164861679E-1,-1.548542231E-1,-3.718639314E-1
1.321895841E0,5.219839811E-1,-1.463021189E-1,-3.572031856E-1
1.331895841E0,5.604684353E-1,-5.772672221E-2,-2.869537175E-1
1.341895841E0,6.166679859E-1,5.467239767E-2,-1.672242284E-1
1.351895841E0,6.948586702E-1,1.579085439E-1,8.750637621E-2
1.361895841E0,6.814196706E-1,7.788526267E-2,1.693622619E-1
1.371895841E0,6.215549111E-1,-1.985310577E-2,1.901316643E-1
1.381895841E0,5.329795480E-1,-9.560033679E-2,1.577558219E-1
1.391895841E0,5.329795480E-1,-9.560033679E-2,1.577558219E-1
1.401895841E0,3.454440236E-1,-1.976147592E-1,7.483093534E-3
1.411895841E0,2.831358314E-1,-2.006690800E-1,-6.032289565E-2
1.421895841E0,2.831358314E-1,-2.006690800E-1,-6.032289565E-2
1.431895841E0,2.831358314E-1,-2.006690800E-1,-6.032289565E-2
1.441895841E0,2.831358314E-1,-2.006690800E-1,-6.032289565E-2
1.451895841E0,2.831358314E-1,-2.006690800E-1,-6.032289565E-2
1.461895841E0,2.910770774E-1,-7.055488229E-2,-1.531743407E-1
1.471895841E0,3.179551065E-1,2.718348242E-2,-9.392046183E-2
1.481895841E0,3.466657698E-1,1.566868126E-1,-3.512472380E-3
1.491895841E0,3.466657698E-1,1.566868126E-1,-3.512472380E-3
1.501895841E0,3.466657698E-1,1.566868126E-1,-3.512472380E-3
1.511895841E0,2.751945853E-1,4.865537882E-1,4.405862093E-1
1.521895841E0,1.878409237E-1,4.999928176E-1,4.839576185E-1
1.531895841E0,8.277218044E-2,4.682278633E-1,4.870119393E-1
1.541895841E0,-2.657261863E-2,3.888154328E-1,4.570795596E-1
1.551895841E0,-1.261435747E-1,2.782489061E-1,4.027126133E-1
1.561895841E0,-1.261435747E-1,2.782489061E-1,4.027126133E-1
1.571895841E0,-2.813032269E-1,-1.701258421E-1,1.705839932E-1
1.581895841E0,-2.849684060E-1,-2.159406990E-1,1.003345400E-1
1.591895841E0,-2.806923687E-1,-2.098320574E-1,3.802633286E-2
1.601895841E0,-2.574795187E-1,-1.853974611E-1,5.650499370E-3
1.611895841E0,-2.025016695E-1,-1.359174103E-1,-4.123337101E-3
1.621895841E0,-1.298087686E-1,-6.261363626E-2,-1.572976820E-2
1.631895841E0,-1.298087686E-1,-6.261363626E-2,-1.572976820E-2
1.641895841E0,6.750056148E-2,1.860083193E-1,-6.520981342E-2
1.651895841E0,1.359174103E-1,2.018908113E-1,-1.006399691E-1
1.661895841E0,2.031125426E-1,1.835648715E-1,-1.464548260E-1
1.671895841E0,2.648098767E-1,1.469129771E-1,-1.977674663E-1
1.681895841E0,3.161225319E-1,1.017089859E-1,-2.625191510E-1
1.691895841E0,3.503309488E-1,9.193515033E-2,-3.352120519E-1
1.701895841E0,3.503309488E-1,9.193515033E-2,-3.352120519E-1
1.711895841E0,4.083631039E-1,4.856374860E-2,-4.909825623E-1
1.721895841E0,4.114174247E-1,8.582650125E-2,-5.135845542E-1
1.731895841E0,3.814850450E-1,1.634063274E-1,-5.074759126E-1
1.741895841E0,3.283398151E-1,1.554650813E-1,-4.702131748E-1
1.751895841E0,2.654207349E-1,6.994401664E-2,-4.140135944E-1
1.761895841E0,2.079994529E-1,-6.688969582E-2,-3.303251266E-1
1.771895841E0,1.463021189E-1,-3.949240744E-1,-8.414662629E-2
1.781895841E0,1.365282834E-1,-5.061014891E-1,6.734783947E-2
1.791895841E0,1.334739476E-1,-5.311469436E-1,2.267835438E-1
1.801895841E0,1.096502244E-1,-4.938841760E-1,3.752236962E-1
1.811895841E0,4.978547990E-2,-4.584540129E-1,4.479165971E-1
1.821895841E0,-4.673115537E-2,-3.949240744E-1,4.253146052E-1
1.831895841E0,-1.524107605E-1,-2.690859437E-1,3.611738086E-1
1.841895841E0,-3.167333901E-1,-9.987638891E-2,2.732092738E-1
1.851895841E0,-3.417788446E-1,-1.475238502E-1,2.768744528E-1
1.861895841E0,-2.953531146E-1,-2.055560052E-1,3.318522871E-1
1.871895841E0,-1.841757298E-1,-1.426369250E-1,4.118755758E-1
1.881895841E0,-3.451386094E-2,1.463021189E-1,4.888445437E-1
1.891895841E0,1.139262840E-1,5.574141145E-1,5.035052896E-1
1.901895841E0,2.434296161E-1,9.752455950E-1,4.595230222E-1
1.911895841E0,3.149007857E-1,1.404072642E0,3.074176908E-1
1.921895841E0,2.373209596E-1,1.364366531E0,2.023489624E-1
1.931895841E0,1.444695145E-1,1.275180221E0,8.323032409E-2
1.941895841E0,6.627883017E-2,1.218980670E0,-2.733619884E-2
1.951895841E0,2.351829410E-2,1.210428596E0,-9.330959618E-2
1.961895841E0,-1.130099874E-2,1.285564899E0,-9.575305134E-2
1.971895841E0,-7.910698652E-2,1.419955134E0,-2.672533318E-2
1.981895841E0,-3.222311735E-1,1.489593744E0,2.939786613E-1
1.991895841E0,-4.297433794E-1,1.394298911E0,4.735729098E-1
2.001895841E0,-4.773908257E-1,1.234252334E0,5.358811021E-1
2.011895841E0,-4.205803871E-1,9.141591191E-1,3.990474045E-1
2.021895841E0,-4.205803871E-1,9.141591191E-1,3.990474045E-1
2.031895841E0,-1.676823795E-1,6.172788739E-1,1.235474050E-1
2.041895841E0,-2.901607752E-2,7.382301092E-1,1.033888608E-1
2.051895841E0,-2.901607752E-2,7.382301092E-1,1.033888608E-1
2.061895841E0,3.546070158E-1,9.178243279E-1,1.577558219E-1
2.071895841E0,4.511236250E-1,8.732311726E-1,1.779143661E-1
2.081895841E0,5.311469436E-1,7.712168097E-1,1.559232324E-1
2.091895841E0,6.081159115E-1,6.429351568E-1,1.088866442E-1
2.101895841E0,6.826413870E-1,6.185005903E-1,6.490438432E-2
2.111895841E0,7.162389755E-1,8.005383015E-1,4.169152305E-2
2.121895841E0,7.162389755E-1,8.005383015E-1,4.169152305E-2
2.131895841E0,5.158752799E-1,1.178663611E0,-1.024725661E-1
2.141895841E0,3.491092324E-1,1.036942959E0,-2.741255760E-1
2.151895841E0,2.281579971E-1,8.622356653E-1,-4.457785785E-1
2.161895841E0,2.025016695E-1,7.730493546E-1,-5.691732764E-1
2.171895841E0,2.312123179E-1,7.174606919E-1,-6.320923567E-1
2.181895841E0,2.764163017E-1,6.624828577E-1,-6.217076182E-1
2.191895841E0,5.219839811E-1,5.842921734E-1,-4.769326746E-1
2.201895841E0,6.472112536E-1,4.871646762E-1,-4.433351159E-1
2.211895841E0,7.150171995E-1,4.156934917E-1,-4.311178327E-1
2.221895841E0,7.596103549E-1,3.057378232E-1,-4.109592736E-1
2.231895841E0,8.536835313E-1,1.835648715E-1,-3.798051775E-1
2.241895841E0,9.673043489E-1,9.315688163E-2,-3.382663727E-1
2.251895841E0,9.868520498E-1,1.346956789E-1,-2.802342176E-1
2.261895841E0,6.685914993E-1,6.979129910E-1,-9.208786488E-2
2.271895841E0,4.437932670E-1,1.161559343E0,-1.817322709E-2
2.281895841E0,1.951712966E-1,1.602603793E0,1.114828233E-2
2.291895841E0,-3.756818548E-2,1.919642568E0,-3.039052337E-2
2.301895841E0,-2.153298408E-1,1.240360975E0,-1.574503928E-1
2.311895841E0,-3.882045746E-1,-4.306596518E-2,-3.150535226E-1
2.321895841E0,-5.012145638E-1,-4.743365049E-1,-3.956876695E-1
2.331895841E0,-2.452622056E-1,-6.933315098E-2,-2.588539422E-1
2.341895841E0,-2.330449075E-1,1.963930279E-1,-2.429714650E-1
2.351895841E0,-4.444041252E-1,3.765981495E-1,-2.264781147E-1
2.361895841E0,-7.180715203E-1,4.871646762E-1,-1.928805560E-1
2.371895841E0,-9.098830819E-1,4.718930423E-1,-8.781181276E-2
2.381895841E0,-9.825760126E-1,3.222311735E-1,-9.621120058E-3
2.391895841E0,-9.526436329E-1,9.804379940E-2,7.483093534E-3
2.401895841E0,-7.565560341E-1,-5.109884143E-1,-5.299251899E-2
2.411895841E0,-6.325504780E-1,-5.745183229E-1,-5.177079141E-2
2.421895841E0,-5.983420610E-1,-5.048797131E-1,-1.206457894E-2
2.431895841E0,-7.370083332E-1,-3.301724195E-1,1.443168074E-1
2.441895841E0,-9.966259003E-1,-1.359174103E-1,3.923279047E-1
2.451895841E0,-1.195156932E0,1.328630894E-1,6.928733587E-1
2.461895841E0,-1.181717873E0,4.969384968E-1,1.003803492E0
2.471895841E0,-3.900371492E-1,1.333823204E0,1.325729251E0
2.481895841E0,-7.177661359E-2,1.044884205E0,1.195004225E0
2.491895841E0,8.460476995E-2,6.600393653E-1,8.950695992E-1
2.501895841E0,1.927278340E-1,4.004218578E-1,5.975784659E-1
2.511895841E0,1.927278340E-1,4.004218578E-1,5.975784659E-1
2.521895841E0,2.776380479E-1,-5.528326333E-2,2.109010667E-1
2.531895841E0,3.069595397E-1,-1.420260668E-1,9.361502528E-2
2.541895841E0,3.069595397E-1,-1.420260668E-1,9.361502528E-2
2.551895841E0,3.069595397E-1,-1.420260668E-1,9.361502528E-2
2.561895841E0,3.069595397E-1,-1.420260668E-1,9.361502528E-2
2.571895841E0,-5.213730931E-1,3.451386094E-2,5.039634649E-3
2.581895841E0,-5.604684353E-1,-4.065304995E-1,8.200860023E-2
2.591895841E0,-5.433642268E-1,-7.993165851E-1,1.638644785E-1
2.601895841E0,-5.299251676E-1,-1.198211312E0,1.375972927E-1
2.611895841E0,-5.299251676E-1,-1.198211312E0,1.375972927E-1
2.621895841E0,-5.299251676E-1,-1.198211312E0,1.375972927E-1
2.631895841E0,-8.781180978E-1,-2.420551777E0,-2.600756884E-1
2.641895841E0,-1.010675788E0,-2.638019562E0,-1.128572673E-1
2.651895841E0,-1.042440772E0,-2.619082689E0,1.101083755E-1
2.661895841E0,-9.734130502E-1,-2.295324326E0,3.391826749E-1
2.671895841E0,-8.524618149E-1,-1.759595990E0,5.065596104E-1
2.681895841E0,-8.524618149E-1,-1.759595990E0,5.065596104E-1
2.691895841E0,-3.136790693E-1,4.792234302E-1,5.951350331E-1
2.701895841E0,-3.940077871E-2,1.083368659E0,5.206094980E-1
2.711895841E0,5.161807314E-2,1.046716809E0,5.700895786E-1
2.721895841E0,1.102610901E-1,9.416480660E-1,5.627591610E-1
2.731895841E0,1.340848207E-1,7.266236544E-1,4.546361268E-1
2.741895841E0,1.328630894E-1,2.244928032E-1,3.562868834E-1
2.751895841E0,1.157588735E-1,-1.002123713E0,3.153589368E-1
2.761895841E0,1.334739476E-1,-1.339931846E0,3.068068326E-1
2.771895841E0,1.756236255E-1,-1.459050536E0,2.952004075E-1
2.781895841E0,2.580903769E-1,-1.502421975E0,2.848156989E-1
2.791895841E0,3.454440236E-1,-1.467602611E0,2.231183648E-1
2.801895841E0,4.272999167E-1,-1.261741161E0,1.333212405E-1
2.811895841E0,5.073232055E-1,-9.544762373E-1,4.657844082E-2
2.821895841E0,6.734784245E-1,-4.841103256E-1,-8.964440972E-2
2.831895841E0,7.608320713E-1,-3.924806118E-1,-1.293506175E-1
2.841895841E0,8.518509269E-1,-3.283398151E-1,-1.507308781E-1
2.851895841E0,9.556979537E-1,-3.332267404E-1,-1.501200199E-1
2.861895841E0,1.031445146E0,-5.317577720E-1,-1.562286615E-1
2.871895841E0,9.495893121E-1,-9.202677608E-1,-2.203694731E-1
2.881895841E0,7.205150127E-1,-1.260519505E0,-3.449858725E-1
2.891895841E0,1.267544478E-1,-1.157283306E0,-4.610501826E-1
2.901895841E0,-1.090393662E-1,-9.373720288E-1,-3.871355653E-1
2.911895841E0,-3.228420317E-1,-7.351757884E-1,-2.692386508E-1
2.921895841E0,-5.024362803E-1,-6.038398147E-1,-1.226311028E-1
2.931895841E0,-6.313287616E-1,-5.623010397E-1,1.542433538E-2
2.941895841E0,-7.131846547E-1,-5.207622051E-1,1.015562713E-1
2.951895841E0,-7.626646757E-1,-4.132500291E-1,1.638644785E-1
2.961895841E0,-7.987056971E-1,-5.036579967E-1,2.756527364E-1
2.971895841E0,-7.095194459E-1,-7.070759535E-1,3.911061883E-1
2.981895841E0,-6.276635528E-1,-8.158099055E-1,4.405862093E-1
2.991895841E0,-5.427533388E-1,-9.141591191E-1,4.442514181E-1
3.001895841E0,-4.474584460E-1,-9.905172586E-1,4.485274553E-1
3.011895841E0,-3.564395905E-1,-1.002123713E0,4.637990892E-1
3.021895841E0,-2.721402645E-1,-9.673043489E-1,5.028944016E-1
3.031895841E0,-1.359174103E-1,-7.651081085E-1,6.488910913E-1
3.041895841E0,-8.521563560E-2,-7.272345424E-1,7.136427760E-1
3.051895841E0,-1.863137633E-2,-8.164207935E-1,7.319687009E-1
3.061895841E0,8.460476995E-2,-1.030834317E0,6.965385675E-1
3.071895841E0,2.092211843E-1,-1.247080445E0,5.975784659E-1
3.081895841E0,3.295615613E-1,-1.379027247E0,4.399753511E-1
3.091895841E0,4.297433794E-1,-1.325271130E0,2.542724609E-1
3.101895841E0,4.297433794E-1,-1.325271130E0,2.542724609E-1
3.111895841E0,4.297433794E-1,-1.325271130E0,2.542724609E-1
3.121895841E0,4.297433794E-1,-1.325271130E0,2.542724609E-1
3.131895841E0,4.297433794E-1,-1.325271130E0,2.542724609E-1
3.141895841E0,2.116646469E-1,3.136790693E-1,-2.802342176E-1
3.151895841E0,2.116646469E-1,3.136790693E-1,-2.802342176E-1
3.161895841E0,2.116646469E-1,3.136790693E-1,-2.802342176E-1
3.171895841E0,2.116646469E-1,3.136790693E-1,-2.802342176E-1
3.181895841E0,2.116646469E-1,3.136790693E-1,-2.802342176E-1
3.191895841E0,2.116646469E-1,3.136790693E-1,-2.802342176E-1
3.201895841E0,2.342666388E-1,-3.307832778E-1,-1.287397593E-1
3.211895841E0,1.267544478E-1,-4.004218578E-1,-3.003927469E-1
3.221895841E0,2.046396956E-2,-4.834994674E-1,-4.109592736E-1
3.231895841E0,-5.467239767E-2,-5.806269646E-1,-4.390590489E-1
3.241895841E0,-5.467239767E-2,-5.806269646E-1,-4.390590489E-1
3.251895841E0,-5.467239767E-2,-5.806269646E-1,-4.390590489E-1
3.261895841E0,1.191186346E-2,-6.508764029E-1,-3.772090003E-2
3.271895841E0,7.727439702E-2,-6.905826330E-1,8.506292105E-2
3.281895841E0,1.566868126E-1,-7.687733173E-1,1.809686869E-1
3.291895841E0,2.483165264E-1,-8.781180978E-1,2.322813272E-1
3.301895841E0,3.277289569E-1,-9.324851036E-1,2.280052751E-1
3.311895841E0,3.277289569E-1,-9.324851036E-1,2.280052751E-1
3.321895841E0,3.106247485E-1,-7.706059217E-1,-3.649916872E-2
3.331895841E0,2.367101014E-1,-6.527090073E-1,-1.385135949E-1
3.341895841E0,1.511890292E-1,-5.342012644E-1,-2.044869810E-1
3.351895841E0,6.688969582E-2,-4.523453712E-1,-2.301433086E-1
3.361895841E0,-6.414080039E-3,-4.059196413E-1,-2.362519503E-1
3.371895841E0,-6.627883017E-2,-3.631591201E-1,-2.417497337E-1
3.381895841E0,-1.218675226E-1,-2.519817352E-1,-2.777907550E-1
3.391895841E0,-1.224783882E-1,-1.548542231E-1,-3.107774556E-1
3.401895841E0,-1.206457913E-1,-6.414080039E-3,-3.535379767E-1
3.411895841E0,-1.249218509E-1,1.853974611E-1,-3.950767815E-1
3.421895841E0,-1.340848207E-1,3.619373739E-1,-4.201222658E-1
3.431895841E0,-1.463021189E-1,4.822777510E-1,-4.292852283E-1
3.441895841E0,-1.603520066E-1,4.419606626E-1,-4.176788032E-1
3.451895841E0,-1.603520066E-1,4.419606626E-1,-4.176788032E-1
3.461895841E0,-2.409861535E-1,1.169806048E-1,-2.215912044E-1
3.471895841E0,-2.470948100E-1,1.548542231E-1,-1.690568328E-1
3.481895841E0,-2.422078848E-1,1.896735132E-1,-1.446222365E-1
3.491895841E0,-2.293797284E-1,2.141081095E-1,-1.464548260E-1
3.501895841E0,-2.134972364E-1,2.324340492E-1,-1.586721241E-1
3.511895841E0,-1.908952445E-1,2.196058929E-1,-1.641699076E-1
3.521895841E0,-1.517999023E-1,1.780670881E-1,-1.953240186E-1
3.531895841E0,-1.395826042E-1,1.255327165E-1,-2.301433086E-1
3.541895841E0,-1.249218509E-1,5.650499091E-2,-2.771798968E-1
3.551895841E0,-1.035415828E-1,2.138026757E-3,-3.413206935E-1
3.561895841E0,-7.422006875E-2,-1.130099874E-2,-4.182896614E-1
3.571895841E0,-3.940077871E-2,1.313359290E-2,-5.001455545E-1
3.581895841E0,1.130099874E-2,2.657261863E-2,-5.703949928E-1
3.591895841E0,1.084285006E-1,1.151480079E-1,-6.210967898E-1
3.601895841E0,1.084285006E-1,1.151480079E-1,-6.210967898E-1
3.611895841E0,1.084285006E-1,1.151480079E-1,-6.210967898E-1
3.621895841E0,1.084285006E-1,1.151480079E-1,-6.210967898E-1
3.631895841E0,1.267544478E-1,6.301070452E-1,-2.209803313E-1
3.641895841E0,6.627883017E-2,7.131846547E-1,-1.232419685E-1
3.651895841E0,-3.970621154E-3,6.985238791E-1,-5.787943676E-2
3.661895841E0,-3.970621154E-3,6.985238791E-1,-5.787943676E-2
3.671895841E0,-3.970621154E-3,6.985238791E-1,-5.787943676E-2
3.681895841E0,-3.970621154E-3,6.985238791E-1,-5.787943676E-2
3.691895841E0,-2.678641975E-1,3.313941360E-1,-1.397353113E-1
3.701895841E0,-2.580903769E-1,3.216203153E-1,-1.733328849E-1
3.711895841E0,-2.238819450E-1,3.356702030E-1,-1.831067204E-1
3.721895841E0,-1.713475734E-1,3.900371492E-1,-1.421787739E-1
3.731895841E0,-1.713475734E-1,3.900371492E-1,-1.421787739E-1
3.741895841E0,-1.713475734E-1,3.900371492E-1,-1.421787739E-1
3.751895841E0,8.246674202E-3,7.156280875E-1,4.198168218E-1
3.761895841E0,-1.374445762E-2,7.553343177E-1,4.992292523E-1
3.771895841E0,-9.560033679E-2,5.451968312E-1,5.108356476E-1
3.781895841E0,-2.269362658E-1,2.623664141E-1,4.247037470E-1
3.791895841E0,-3.778198659E-1,-1.863137633E-2,2.695440948E-1
3.801895841E0,-3.778198659E-1,-1.863137633E-2,2.695440948E-1
3.811895841E0,-3.778198659E-1,-1.863137633E-2,2.695440948E-1
3.821895841E0,-5.513054729E-1,-4.999928176E-1,-7.315105945E-2
3.831895841E0,-4.456258714E-1,-2.348775119E-1,-1.511890348E-2
3.841895841E0,-3.381136656E-1,1.090393662E-1,2.458730713E-2
3.851895841E0,-2.238819450E-1,3.869828284E-1,6.001746282E-2
3.861895841E0,-1.169806048E-1,6.331613660E-1,1.021671370E-1
3.871895841E0,-1.169806048E-1,6.331613660E-1,1.021671370E-1
3.881895841E0,1.395826042E-1,1.121242285E0,3.801106215E-1
3.891895841E0,1.340848207E-1,1.247080445E0,4.576904476E-1
3.901895841E0,5.528326333E-2,1.297782183E0,4.595230222E-1
3.911895841E0,-8.032871783E-2,1.280067086E0,3.911061883E-1
3.921895841E0,-2.525925934E-1,1.185383081E0,2.756527364E-1
3.931895841E0,-4.370737374E-1,9.978476167E-1,1.424842030E-1
3.941895841E0,-4.370737374E-1,9.978476167E-1,1.424842030E-1
3.951895841E0,-8.298597932E-1,1.456912458E-1,-2.124282271E-1
3.961895841E0,-8.597921729E-1,-1.120936871E-1,-3.187187016E-1
3.971895841E0,-8.402445316E-1,-3.307832778E-1,-4.237874448E-1
3.981895841E0,-8.017600179E-1,-5.806269646E-1,-5.044215918E-1
3.991895841E0,-7.504473925E-1,-7.822123766E-1,-5.215258002E-1
4.001895841E0,-6.747001410E-1,-8.921679854E-1,-4.726566374E-1
4.011895841E0,-4.315759540E-1,-9.007201195E-1,-2.600756884E-1
4.021895841E0,-2.690859437E-1,-7.699950337E-1,-1.464548260E-1
4.031895841E0,-9.376774728E-2,-5.720748901E-1,-5.482511222E-2
4.041895841E0,8.643736690E-2,-3.875937164E-1,8.093958721E-3
4.051895841E0,2.666424811E-1,-2.281579971E-1,4.657844082E-2
4.061895841E0,4.346303046E-1,-8.826996386E-2,5.940660089E-2
4.071895841E0,5.867356062E-1,-1.527161920E-3,5.268708616E-2
4.081895841E0,7.785471678E-1,-1.420260668E-1,-2.977965772E-2
4.091895841E0,7.840449214E-1,-3.045161068E-1,-8.659008145E-2
4.101895841E0,7.351757884E-1,-4.053087831E-1,-1.311832070E-1
4.111895841E0,6.551524997E-1,-4.285216331E-1,-1.592829973E-1
4.121895841E0,5.604684353E-1,-4.187478125E-1,-1.690568328E-1
4.131895841E0,4.572322965E-1,-3.839285076E-1,-1.629481763E-1
4.141895841E0,3.417788446E-1,-3.539961278E-1,-1.488982886E-1
4.151895841E0,3.417788446E-1,-3.539961278E-1,-1.488982886E-1
4.161895841E0,3.417788446E-1,-3.539961278E-1,-1.488982886E-1
4.171895841E0,3.417788446E-1,-3.539961278E-1,-1.488982886E-1
4.181895841E0,3.417788446E-1,-3.539961278E-1,-1.488982886E-1
4.191895841E0,-2.067777216E-1,-4.187478125E-1,-2.014326602E-1
4.201895841E0,-2.049451321E-1,-4.120282829E-1,-2.020435184E-1
4.211895841E0,-1.719584316E-1,-3.827067912E-1,-1.947131455E-1
4.221895841E0,-1.719584316E-1,-3.827067912E-1,-1.947131455E-1
4.231895841E0,-1.719584316E-1,-3.827067912E-1,-1.947131455E-1
4.241895841E0,-1.719584316E-1,-3.827067912E-1,-1.947131455E-1
4.251895841E0,-3.747655451E-1,-3.454440236E-1,-3.156643808E-1
4.261895841E0,-4.584540129E-1,-3.552178741E-1,-3.559814394E-1
4.271895841E0,-4.584540129E-1,-3.552178741E-1,-3.559814394E-1
4.281895841E0,-5.042688847E-1,-3.277289569E-1,-3.663661480E-1
4.291895841E0,-5.042688847E-1,-3.277289569E-1,-3.663661480E-1
4.301895841E0,-5.042688847E-1,-3.277289569E-1,-3.663661480E-1
4.311895841E0,-1.817322671E-1,-1.090393662E-1,-2.794706449E-2
4.321895841E0,-1.298087686E-1,-1.994473487E-1,-3.039052337E-2
4.331895841E0,-1.346956789E-1,-3.955349326E-1,-7.192932814E-2
4.341895841E0,-1.817322671E-1,-6.539307237E-1,-1.391244531E-1
4.351895841E0,-2.189950198E-1,-9.153808951E-1,-2.331976295E-1
4.361895841E0,-2.189950198E-1,-9.153808951E-1,-2.331976295E-1
4.371895841E0,-5.528326333E-2,-1.270293355E0,-4.860956371E-1
4.381895841E0,7.910698652E-2,-1.145066023E0,-4.934260249E-1
4.391895841E0,2.293797284E-1,-9.104939699E-1,-4.610501826E-1
4.401895841E0,3.814850450E-1,-6.044507027E-1,-3.993528485E-1
4.411895841E0,5.244274139E-1,-2.782489061E-1,-3.205513060E-1
4.421895841E0,6.307178736E-1,-9.468403645E-3,-2.289215773E-1
4.431895841E0,6.918043494E-1,2.141081095E-1,-5.910116807E-2
4.441895841E0,6.533198953E-1,2.403752953E-1,-2.306014486E-2
4.451895841E0,6.075050235E-1,2.855792940E-1,-2.794706449E-2
4.461895841E0,5.549706817E-1,3.258963525E-1,-6.032289565E-2
4.471895841E0,4.865537882E-1,3.277289569E-1,-1.036942974E-1
4.481895841E0,4.046979249E-1,3.191768527E-1,-1.617264450E-1
4.491895841E0,3.069595397E-1,3.271180987E-1,-2.301433086E-1
4.501895841E0,9.743293375E-2,3.313941360E-1,-3.602575064E-1
4.511895841E0,-4.581485875E-3,3.191768527E-1,-4.213439822E-1
4.521895841E0,-1.047633067E-1,2.776380479E-1,-4.763218164E-1
4.531895841E0,-1.896735132E-1,2.141081095E-1,-5.203040838E-1
4.541895841E0,-2.409861535E-1,1.597411335E-1,-5.490147471E-1
4.551895841E0,-2.562577724E-1,1.340848207E-1,-5.624537468E-1
4.561895841E0,-2.556469142E-1,9.437860548E-2,-5.642863512E-1
4.571895841E0,-2.183841616E-1,-3.695731983E-2,-4.641045034E-1
4.581895841E0,-1.890626550E-1,-1.206457913E-1,-3.810268939E-1
4.591895841E0,-1.640172005E-1,-2.012799382E-1,-3.071122766E-1
4.601895841E0,-1.371391416E-1,-2.550360560E-1,-2.533561587E-1
4.611895841E0,-1.120936871E-1,-2.898553312E-1,-2.222020626E-1
4.621895841E0,-8.826996386E-2,-2.947422564E-1,-2.185368687E-1
4.631895841E0,-7.299833745E-2,-2.464839369E-1,-2.307541668E-1
4.641895841E0,-1.493564397E-1,-9.865466505E-2,-2.948949635E-1
4.651895841E0,-2.464839369E-1,-5.955931544E-2,-3.223838806E-1
4.661895841E0,-3.381136656E-1,-3.268126398E-2,-3.498727977E-1
4.671895841E0,-4.046979249E-1,-2.138026757E-3,-3.920224607E-1
4.681895841E0,-4.046979249E-1,-2.138026757E-3,-3.920224607E-1
4.691895841E0,-5.195404887E-1,1.169806048E-1,-5.539016128E-1
4.701895841E0,-5.879573226E-1,2.000582218E-1,-6.259836555E-1
4.711895841E0,-5.879573226E-1,2.000582218E-1,-6.259836555E-1
4.721895841E0,-5.879573226E-1,2.000582218E-1,-6.259836555E-1
4.731895841E0,-5.879573226E-1,2.000582218E-1,-6.259836555E-1
4.741895841E0,-5.085449219E-1,6.533198953E-1,-6.131555438E-1
4.751895841E0,-4.535670877E-1,8.005383015E-1,-5.190823674E-1
4.761895841E0,-4.535670877E-1,8.005383015E-1,-5.190823674E-1
4.771895841E0,-3.222311735E-1,1.033277750E0,-2.466366589E-1
4.781895841E0,-3.222311735E-1,1.033277750E0,-2.466366589E-1
4.791895841E0,-3.222311735E-1,1.033277750E0,-2.466366589E-1
4.801895841E0,2.535088919E-2,7.571669221E-1,2.206749022E-1
4.811895841E0,8.277218044E-2,6.435460448E-1,3.013090491E-1
4.821895841E0,1.035415828E-1,5.140427351E-1,3.654498458E-1
4.831895841E0,9.743293375E-2,4.095848203E-1,4.308123887E-1
4.841895841E0,9.621120244E-2,3.723220825E-1,5.132791400E-1
4.851895841E0,9.621120244E-2,3.723220825E-1,5.132791400E-1
4.861895841E0,9.621120244E-2,3.723220825E-1,5.132791400E-1
4.871895841E0,4.428769648E-2,2.904661894E-1,1.028238177E0
4.881895841E0,-7.971785218E-2,5.406153202E-2,1.066722631E0
4.891895841E0,-2.342666388E-1,-2.434296161E-1,9.995275140E-1
4.901895841E0,-3.625482321E-1,-5.061014891E-1,8.541416526E-1
4.911895841E0,-4.016436040E-1,-7.040216327E-1,6.849321127E-1
4.921895841E0,-4.016436040E-1,-7.040216327E-1,6.849321127E-1
4.931895841E0,1.145371497E-1,-7.644972801E-1,4.705185890E-1
4.941895841E0,3.656025827E-1,-5.946768522E-1,5.969675779E-1
4.951895841E0,6.081159115E-1,-3.228420317E-1,7.900008559E-1
4.961895841E0,8.225294352E-1,-1.527161920E-3,9.976949096E-1
4.971895841E0,9.856303334E-1,3.014617562E-1,1.198669434E0
4.981895841E0,1.068097115E0,5.225948095E-1,1.393535256E0
4.991895841E0,9.728021622E-1,6.789761782E-1,1.587790251E0
5.001895841E0,8.347467184E-1,6.142245531E-1,1.523038626E0
5.011895841E0,6.673697829E-1,4.920515716E-1,1.379485369E0
5.021895841E0,4.963276386E-1,3.546070158E-1,1.198058605E0
5.031895841E0,3.307832778E-1,2.128863782E-1,1.002581835E0
5.041895841E0,1.792888194E-1,8.399390429E-2,8.168789148E-1
5.051895841E0,6.566796452E-2,3.054323897E-4,6.647735834E-1
5.061895841E0,-1.740964688E-2,-3.390299529E-2,4.656316638E-1
5.071895841E0,-1.191186346E-2,-1.863137633E-2,4.008800089E-1
5.081895841E0,1.740964688E-2,3.573558852E-2,3.611738086E-1
5.091895841E0,6.139190868E-2,1.237001196E-1,3.538434207E-1
5.101895841E0,1.108719558E-1,2.238819450E-1,3.825540543E-1
5.111895841E0,1.517999023E-1,3.130682111E-1,4.356993139E-1
5.121895841E0,1.853974611E-1,3.717112243E-1,4.900662601E-1
5.131895841E0,2.214384824E-1,4.486801922E-1,5.713112950E-1
5.141895841E0,2.073885947E-1,4.474584460E-1,5.969675779E-1
5.151895841E0,1.554650813E-1,3.827067912E-1,6.195695996E-1
5.161895841E0,9.071341902E-2,2.880227566E-1,6.556106210E-1
5.171895841E0,3.207040206E-2,1.945604384E-1,7.008146048E-1
5.181895841E0,-1.191186346E-2,1.194240674E-1,7.484620810E-1
5.191895841E0,-3.756818548E-2,9.254601598E-2,7.997747064E-1
5.201895841E0,-7.055488229E-2,1.212566569E-1,8.914044499E-1
5.211895841E0,-9.498947114E-2,1.395826042E-1,9.164499044E-1
5.221895841E0,-9.498947114E-2,1.395826042E-1,9.164499044E-1
5.231895841E0,-9.498947114E-2,1.395826042E-1,9.164499044E-1
5.241895841E0,-2.959639728E-1,-1.554650813E-1,8.724676371E-1
5.251895841E0,-3.882045746E-1,-3.399462402E-1,8.235984445E-1
5.261895841E0,-4.725039005E-1,-4.975493550E-1,7.893900275E-1
5.271895841E0,-4.725039005E-1,-4.975493550E-1,7.893900275E-1
5.281895841E0,-4.725039005E-1,-4.975493550E-1,7.893900275E-1
5.291895841E0,-4.725039005E-1,-4.975493550E-1,7.893900275E-1
5.301895841E0,-3.631591201E-1,-3.973675370E-1,7.900008559E-1
5.311895841E0,-2.495382577E-1,-2.079994529E-1,8.309288025E-1
5.321895841E0,-1.389717311E-1,-3.084867075E-2,8.437569737E-1
5.331895841E0,-8.155044913E-2,4.123337194E-2,8.272636533E-1
5.341895841E0,-8.155044913E-2,4.123337194E-2,8.272636533E-1
5.351895841E0,-8.155044913E-2,4.123337194E-2,8.272636533E-1
5.361895841E0,-2.715294063E-1,-1.010981202E-1,6.763800383E-1
5.371895841E0,-2.715294063E-1,-1.010981202E-1,6.763800383E-1
5.381895841E0,-3.827067912E-1,-1.353065521E-1,6.464476585E-1
5.391895841E0,-3.998109996E-1,-1.285870373E-1,6.433933377E-1
5.401895841E0,-3.998109996E-1,-1.285870373E-1,6.433933377E-1
5.411895841E0,-3.998109996E-1,-1.285870373E-1,6.433933377E-1
5.421895841E0,-2.922987938E-1,-1.802051067E-2,5.383245945E-1
5.431895841E0,-2.733619809E-1,-4.978547990E-2,5.181660652E-1
5.441895841E0,-2.721402645E-1,-1.591302752E-1,5.120574236E-1
5.451895841E0,-3.149007857E-1,-3.759872615E-1,5.120574236E-1
5.461895841E0,-4.016436040E-1,-6.618719697E-1,5.169443488E-1
5.471895841E0,-4.016436040E-1,-6.618719697E-1,5.169443488E-1
5.481895841E0,-6.007854939E-1,-1.435226798E0,5.768090487E-1
5.491895841E0,-6.007854939E-1,-1.435226798E0,5.768090487E-1
5.501895841E0,-3.344484568E-1,-1.423009515E0,6.623301506E-1
5.511895841E0,-8.643736690E-2,-1.268460751E0,7.331904769E-1
5.521895841E0,1.933387071E-1,-1.016784430E0,8.358157277E-1
5.531895841E0,4.670061171E-1,-7.058542371E-1,9.616538882E-1
5.541895841E0,8.567378521E-1,-2.354883701E-1,1.209664941E0
5.551895841E0,8.897245526E-1,-1.988364905E-1,1.277470946E0
5.561895841E0,7.816014886E-1,-3.039052188E-1,1.279303551E0
5.571895841E0,5.732966065E-1,-4.077522457E-1,1.200502038E0
5.581895841E0,3.582721949E-1,-4.028653204E-1,1.039233685E0
5.591895841E0,1.676823795E-1,-3.228420317E-1,8.376483321E-1
5.601895841E0,8.246674202E-3,-2.061668634E-1,6.574432254E-1
5.611895841E0,8.246674202E-3,-2.061668634E-1,6.574432254E-1
5.621895841E0,-3.484983444E-1,1.249218509E-1,4.039343297E-1
5.631895841E0,-4.034761786E-1,1.957821548E-1,3.856084049E-1
5.641895841E0,-4.266890585E-1,2.513708472E-1,3.691150546E-1
5.651895841E0,-4.346303046E-1,2.837466896E-1,3.410152495E-1
5.661895841E0,-4.425715208E-1,2.721402645E-1,3.037525117E-1
5.671895841E0,-4.541779757E-1,2.049451321E-1,2.732092738E-1
5.681895841E0,-4.865537882E-1,-1.053741723E-1,2.420551628E-1
5.691895841E0,-4.920515716E-1,-2.935205400E-1,2.200640440E-1
5.701895841E0,-4.749473631E-1,-4.248564541E-1,1.858556122E-1
5.711895841E0,-4.468475878E-1,-4.651735425E-1,1.418733448E-1
5.721895841E0,-4.468475878E-1,-4.651735425E-1,1.418733448E-1
5.731895841E0,-3.906480372E-1,-2.684750557E-1,9.239330143E-2
5.741895841E0,-3.594939113E-1,-8.460476995E-2,1.107192412E-1
5.751895841E0,-3.594939113E-1,-8.460476995E-2,1.107192412E-1
5.761895841E0,-3.594939113E-1,-8.460476995E-2,1.107192412E-1
5.771895841E0,-3.594939113E-1,-8.460476995E-2,1.107192412E-1
5.781895841E0,-3.594939113E-1,-8.460476995E-2,1.107192412E-1
5.791895841E0,-1.322522312E-1,5.739074349E-1,4.485274553E-1
5.801895841E0,-1.133154184E-1,5.977311730E-1,4.876227975E-1
5.811895841E0,-1.273653060E-1,5.995637774E-1,5.016726851E-1
5.821895841E0,-1.273653060E-1,5.995637774E-1,5.016726851E-1
5.831895841E0,-1.273653060E-1,5.995637774E-1,5.016726851E-1
5.841895841E0,-1.273653060E-1,5.995637774E-1,5.016726851E-1
5.851895841E0,-2.354883701E-1,3.601047993E-1,2.231183648E-1
5.861895841E0,-2.354883701E-1,3.601047993E-1,2.231183648E-1
5.871895841E0,5.345066637E-2,4.486801922E-1,1.418733448E-1
5.881895841E0,2.226602137E-1,5.574141145E-1,1.168278903E-1
5.891895841E0,2.226602137E-1,5.574141145E-1,1.168278903E-1
5.901895841E0,2.226602137E-1,5.574141145E-1,1.168278903E-1
5.911895841E0,3.918697536E-1,7.644972801E-1,1.082757786E-1
5.921895841E0,3.075704277E-1,7.040216327E-1,6.612611562E-2
5.931895841E0,2.208276242E-1,6.221657991E-1,2.214384824E-2
5.941895841E0,1.505781710E-1,5.225948095E-1,-1.756236330E-2
5.951895841E0,1.157588735E-1,4.193586707E-1,-4.505127668E-2
5.961895841E0,1.157588735E-1,4.193586707E-1,-4.505127668E-2
5.971895841E0,1.157588735E-1,4.193586707E-1,-4.505127668E-2
5.981895841E0,2.391535640E-1,3.857611120E-1,3.985892609E-2
5.991895841E0,2.067777216E-1,3.631591201E-1,7.834340632E-2
6.001895841E0,9.010255337E-2,2.434296161E-1,8.261945844E-2
6.011895841E0,-7.605266571E-2,6.261363626E-2,3.619373962E-2
6.021895841E0,-2.519817352E-1,-1.420260668E-1,-5.421425030E-2
6.031895841E0,-5.164861679E-1,-4.993819594E-1,-1.867718995E-1
6.041895841E0,-5.134318471E-1,-5.653553605E-1,-1.702785641E-1
6.051895841E0,-4.083631039E-1,-5.342012644E-1,-9.880737960E-2
6.061895841E0,-2.220493406E-1,-4.132500291E-1,1.664606482E-2
6.071895841E0,8.857538924E-3,-1.982256174E-1,1.919642538E-1
6.081895841E0,2.556469142E-1,1.285870373E-1,4.247037470E-1
6.091895841E0,4.999928176E-1,5.500837564E-1,6.806560755E-1
6.101895841E0,8.982766867E-1,1.149342060E0,1.080772519E0
6.111895841E0,9.728021622E-1,1.170111537E0,1.171791315E0
6.121895841E0,9.556979537E-1,1.074816585E0,1.162017584E0
6.131895841E0,8.665117025E-1,8.842267394E-1,1.043509722E0
6.141895841E0,7.363975048E-1,6.490437984E-1,8.626937866E-1
6.151895841E0,5.965094566E-1,4.224129915E-1,6.714931130E-1
6.161895841E0,4.651735425E-1,1.884517819E-1,4.937314689E-1
6.171895841E0,2.513708472E-1,-3.149007857E-1,1.565341055E-1
6.181895841E0,1.713475734E-1,-5.085449219E-1,2.596175298E-3
6.191895841E0,1.133154184E-1,-6.429351568E-1,-1.501200199E-1
6.201895841E0,6.994401664E-2,-7.095194459E-1,-2.991710305E-1
6.211895841E0,3.695731983E-2,-6.838631034E-1,-4.256200492E-1
6.221895841E0,2.596175298E-2,-5.702422857E-1,-5.117519498E-1
6.231895841E0,4.795288667E-2,-3.985892832E-1,-5.465712547E-1
6.241895841E0,1.786779463E-1,4.428769648E-2,-4.805978537E-1
6.251895841E0,2.409861535E-1,2.874118686E-1,-4.054614902E-1
6.261895841E0,2.409861535E-1,2.874118686E-1,-4.054614902E-1
6.271895841E0,2.409861535E-1,2.874118686E-1,-4.054614902E-1
6.281895841E0,2.409861535E-1,2.874118686E-1,-4.054614902E-1
6.291895841E0,1.933387071E-1,6.294961572E-1,-1.598938555E-1
6.301895841E0,1.658497900E-1,5.702422857E-1,-1.916588247E-1
6.311895841E0,1.658497900E-1,5.702422857E-1,-1.916588247E-1
6.321895841E0,1.658497900E-1,5.702422857E-1,-1.916588247E-1
6.331895841E0,1.658497900E-1,5.702422857E-1,-1.916588247E-1
6.341895841E0,1.658497900E-1,5.702422857E-1,-1.916588247E-1
6.351895841E0,1.267544478E-1,2.086103261E-1,-2.674060464E-1
6.361895841E0,5.589412898E-2,1.676823795E-1,-2.600756884E-1
6.371895841E0,-1.679878123E-2,1.194240674E-1,-2.545779049E-1
6.381895841E0,-1.679878123E-2,1.194240674E-1,-2.545779049E-1
6.391895841E0,-1.679878123E-2,1.194240674E-1,-2.545779049E-1
6.401895841E0,-1.679878123E-2,1.194240674E-1,-2.545779049E-1
6.411895841E0,-2.977965772E-1,-2.629773021E-1,-2.759581506E-1
6.421895841E0,-2.910770774E-1,-3.295615613E-1,-2.466366589E-1
6.431895841E0,-2.660316229E-1,-3.924806118E-1,-2.325867712E-1
6.441895841E0,-2.360992432E-1,-4.462367296E-1,-2.313650399E-1
6.451895841E0,-2.360992432E-1,-4.462367296E-1,-2.313650399E-1
6.461895841E0,-2.360992432E-1,-4.462367296E-1,-2.313650399E-1
6.471895841E0,-1.475238502E-1,-5.940660238E-1,-2.582430840E-1
6.481895841E0,-1.786779463E-1,-5.940660238E-1,-2.753472924E-1
6.491895841E0,-2.037234008E-1,-5.195404887E-1,-2.515235841E-1
6.501895841E0,-2.067777216E-1,-3.711003661E-1,-1.867718995E-1
6.511895841E0,-1.939495653E-1,-2.018908113E-1,-1.036942974E-1
6.521895841E0,-1.939495653E-1,-2.018908113E-1,-1.036942974E-1
6.531895841E0,-7.299833745E-2,5.650499091E-2,1.534797698E-1
6.541895841E0,3.054323897E-4,-8.246674202E-3,1.803578287E-1
6.551895841E0,7.422006875E-2,-1.676823795E-1,1.760817766E-1
6.561895841E0,1.267544478E-1,-4.077522457E-1,1.479819864E-1
6.571895841E0,1.560759544E-1,-6.649262905E-1,1.058323234E-1
6.581895841E0,1.792888194E-1,-9.092722535E-1,4.413498193E-2
6.591895841E0,1.792888194E-1,-9.092722535E-1,4.413498193E-2
6.601895841E0,1.505781710E-1,-1.294117093E0,-2.338084877E-1
6.611895841E0,1.041524485E-1,-1.196378708E0,-3.394880891E-1
6.621895841E0,7.910698652E-2,-1.002123713E0,-3.975202441E-1
6.631895841E0,6.627883017E-2,-7.168498039E-1,-4.317286909E-1
6.641895841E0,7.238747925E-2,-4.193586707E-1,-4.421133697E-1
6.651895841E0,9.682206810E-2,-1.640172005E-1,-4.402807951E-1
6.661895841E0,1.426369250E-1,1.249218509E-1,-4.140135944E-1
6.671895841E0,1.426369250E-1,1.249218509E-1,-4.140135944E-1
6.681895841E0,1.237001196E-1,1.802051067E-2,-4.072940946E-1
6.691895841E0,9.560033679E-2,-1.340848207E-1,-4.347830117E-1
6.701895841E0,6.078104675E-2,-2.831358314E-1,-4.897608459E-1
6.711895841E0,1.618791744E-2,-3.894262910E-1,-5.618428588E-1
6.721895841E0,-3.573558852E-2,-4.407389462E-1,-6.382009983E-1
6.731895841E0,-1.163697392E-1,-3.582721949E-1,-7.426588535E-1
6.741895841E0,-1.316413581E-1,-2.422078848E-1,-7.585413456E-1
6.751895841E0,-1.371391416E-1,-9.682206810E-2,-7.457131743E-1
6.761895841E0,-1.346956789E-1,5.711585656E-2,-7.145590782E-1
6.771895841E0,-1.359174103E-1,1.957821548E-1,-6.821832657E-1
6.781895841E0,-1.469129771E-1,2.916879356E-1,-6.693550944E-1
6.791895841E0,-1.707367003E-1,3.332267404E-1,-6.907353401E-1
6.801895841E0,-1.707367003E-1,3.332267404E-1,-6.907353401E-1
6.811895841E0,-1.707367003E-1,3.332267404E-1,-6.907353401E-1
6.821895841E0,-1.707367003E-1,3.332267404E-1,-6.907353401E-1
6.831895841E0,-1.707367003E-1,3.332267404E-1,-6.907353401E-1
6.841895841E0,-1.707367003E-1,3.332267404E-1,-6.907353401E-1
6.851895841E0,-6.013963819E-1,4.566214085E-1,-8.978185058E-1
6.861895841E0,-5.598575473E-1,6.111702323E-1,-8.556688428E-1
6.871895841E0,-5.598575473E-1,6.111702323E-1,-8.556688428E-1
6.881895841E0,-5.598575473E-1,6.111702323E-1,-8.556688428E-1
6.891895841E0,-5.598575473E-1,6.111702323E-1,-8.556688428E-1
6.901895841E0,-5.598575473E-1,6.111702323E-1,-8.556688428E-1
6.911895841E0,-2.965748608E-1,6.472112536E-1,-8.666644096E-1
6.921895841E0,-3.362810612E-1,4.376846254E-1,-9.234748483E-1
6.931895841E0,-3.735437989E-1,2.654207349E-1,-9.723440409E-1
6.941895841E0,-3.735437989E-1,2.654207349E-1,-9.723440409E-1
6.951895841E0,-3.735437989E-1,2.654207349E-1,-9.723440409E-1
6.961895841E0,-3.735437989E-1,2.654207349E-1,-9.723440409E-1
6.971895841E0,-2.525925934E-1,2.397644222E-1,-6.125446558E-1
6.981895841E0,-1.756236255E-1,2.721402645E-1,-4.262309074E-1
6.991895841E0,-1.090393662E-1,2.605338395E-1,-1.824958473E-1
7.001895841E0,-4.367683083E-2,2.470948100E-1,1.131627038E-1
7.011895841E0,-4.367683083E-2,2.470948100E-1,1.131627038E-1
7.021895841E0,-4.367683083E-2,2.470948100E-1,1.131627038E-1
7.031895841E0,-5.772672221E-2,3.552178741E-1,9.897536635E-1
7.041895841E0,-5.772672221E-2,3.552178741E-1,9.897536635E-1
7.051895841E0,-4.627300799E-1,4.163043499E-1,1.007468700E0
7.061895841E0,-6.282744408E-1,4.505127668E-1,8.773545623E-1
7.071895841E0,-7.260127664E-1,4.334085584E-1,6.818777919E-1
7.081895841E0,-7.260127664E-1,4.334085584E-1,6.818777919E-1
7.091895841E0,-4.218021333E-1,1.646280587E-1,1.901316643E-1
7.101895841E0,-1.401934624E-1,1.151480079E-1,1.724165827E-1
7.111895841E0,1.744018942E-1,1.359174103E-1,2.567159235E-1
7.121895841E0,4.670061171E-1,1.798996776E-1,4.308123887E-1
7.131895841E0,6.777544618E-1,1.658497900E-1,6.366738081E-1
7.141895841E0,7.840449214E-1,6.750056148E-2,8.028290272E-1
7.151895841E0,5.061014891E-1,-4.285216331E-1,7.698423266E-1
7.161895841E0,1.200349256E-1,-7.199041247E-1,6.085740328E-1
7.171895841E0,-2.538143098E-1,-8.768963814E-1,4.485274553E-1
7.181895841E0,-4.523453712E-1,-8.304706812E-1,3.367392123E-1
7.191895841E0,-4.358520210E-1,-5.855138898E-1,2.909243405E-1
7.201895841E0,-2.495382577E-1,-2.281579971E-1,3.306305707E-1
7.211895841E0,2.718348242E-2,1.597411335E-1,4.723511934E-1
7.221895841E0,5.647444725E-1,7.516691089E-1,9.298889041E-1
7.231895841E0,7.467821836E-1,8.359684348E-1,1.148578525E0
7.241895841E0,8.268054724E-1,7.266236544E-1,1.319620609E0
7.251895841E0,8.066469431E-1,4.828886092E-1,1.417969823E0
7.261895841E0,7.058542371E-1,1.805105358E-1,1.428354621E0
7.271895841E0,5.543597937E-1,-1.285870373E-1,1.360548615E0
7.281895841E0,3.723220825E-1,-4.004218578E-1,1.237153888E0
7.291895841E0,-4.550942779E-2,-7.535017133E-1,9.451605082E-1
7.301895841E0,-2.489273995E-1,-8.286380768E-1,8.119919896E-1
7.311895841E0,-4.108065665E-1,-8.158099055E-1,6.922625303E-1
7.321895841E0,-5.134318471E-1,-7.302888632E-1,5.743656158E-1
7.331895841E0,-5.561923981E-1,-5.916225314E-1,4.583013058E-1
7.341895841E0,-5.464185476E-1,-4.114174247E-1,3.520108163E-1
7.351895841E0,-4.975493550E-1,-1.994473487E-1,2.701549530E-1
7.361895841E0,-4.975493550E-1,-1.994473487E-1,2.701549530E-1
7.371895841E0,-4.975493550E-1,-1.994473487E-1,2.701549530E-1
7.381895841E0,-4.975493550E-1,-1.994473487E-1,2.701549530E-1
7.391895841E0,-4.975493550E-1,-1.994473487E-1,2.701549530E-1
7.401895841E0,-1.310304999E-1,1.823431402E-1,4.369210303E-1
7.411895841E0,-4.367683083E-2,1.579085439E-1,5.132791400E-1
7.421895841E0,4.306596518E-2,1.499672979E-1,5.810851455E-1
7.431895841E0,4.306596518E-2,1.499672979E-1,5.810851455E-1
7.441895841E0,4.306596518E-2,1.499672979E-1,5.810851455E-1
7.451895841E0,4.306596518E-2,1.499672979E-1,5.810851455E-1
7.461895841E0,4.306596518E-2,1.499672979E-1,5.810851455E-1
7.471895841E0,3.310887218E-1,7.620538026E-2,6.201804876E-1
7.481895841E0,3.888154328E-1,1.803578287E-1,5.225948095E-1
7.491895841E0,4.390590489E-1,2.981020212E-1,4.053087831E-1
7.501895841E0,4.390590489E-1,2.981020212E-1,4.053087831E-1
7.511895841E0,4.390590489E-1,2.981020212E-1,4.053087831E-1
7.521895841E0,2.380845547E-1,-3.726275265E-2,1.313359290E-2
7.531895841E0,2.380845547E-1,-3.726275265E-2,1.313359290E-2
7.541895841E0,2.380845547E-1,-3.726275265E-2,1.313359290E-2
7.551895841E0,2.380845547E-1,-3.726275265E-2,1.313359290E-2
7.561895841E0,2.380845547E-1,-3.726275265E-2,1.313359290E-2
7.571895841E0,2.380845547E-1,-3.726275265E-2,1.313359290E-2
7.581895841E0,2.380845547E-1,-3.726275265E-2,1.313359290E-2
7.591895841E0,-9.071341902E-2,-2.064722925E-1,-3.894262910E-1
7.601895841E0,-1.081230640E-1,-5.833758786E-2,-4.636463821E-1
7.611895841E0,-9.208786488E-2,8.185587823E-2,-4.859429300E-1
7.621895841E0,-6.062832847E-2,2.075413018E-1,-4.080576599E-1
7.631895841E0,-5.650499370E-3,3.776671588E-1,-2.316704690E-1
7.641895841E0,7.101303339E-2,5.461131334E-1,-3.558287397E-2
7.651895841E0,1.379027218E-1,5.760455132E-1,1.253799945E-1
7.661895841E0,1.379027218E-1,5.760455132E-1,1.253799945E-1
7.671895841E0,1.379027218E-1,5.760455132E-1,1.253799945E-1
7.681895841E0,1.379027218E-1,5.760455132E-1,1.253799945E-1
7.691895841E0,1.379027218E-1,5.760455132E-1,1.253799945E-1
7.701895841E0,1.823431402E-1,1.160643063E-2,3.494146466E-1
7.711895841E0,1.172860414E-1,-1.374445707E-1,2.860374451E-1
7.721895841E0,-1.023198478E-2,-3.165806830E-1,1.785252392E-1
7.731895841E0,-1.023198478E-2,-3.165806830E-1,1.785252392E-1
7.741895841E0,-1.023198478E-2,-3.165806830E-1,1.785252392E-1
7.751895841E0,-1.023198478E-2,-3.165806830E-1,1.785252392E-1
7.761895841E0,-1.023198478E-2,-3.165806830E-1,1.785252392E-1
7.771895841E0,-1.023198478E-2,-3.165806830E-1,1.785252392E-1
7.781895841E0,-8.370374441E-1,-5.815432668E-1,-7.206677198E-1
7.791895841E0,-5.280926228E-1,-3.417788446E-1,-8.458949924E-1
7.801895841E0,-3.265072107E-1,-2.861901522E-1,-7.951932549E-1
7.811895841E0,-1.188132018E-1,-2.354883701E-1,-7.457131743E-1
7.821895841E0,6.078104675E-2,-2.770271897E-1,-7.402154207E-1
7.831895841E0,1.863137633E-2,-3.747655451E-1,-7.725912333E-1
7.841895841E0,-6.200277433E-2,-4.938841760E-1,-8.177952170E-1
7.851895841E0,-1.493564397E-1,-6.038398147E-1,-8.727730513E-1
7.861895841E0,-2.263254076E-1,-6.765327454E-1,-9.363030195E-1
7.871895841E0,-2.819140851E-1,-6.844739914E-1,-9.973894954E-1
7.881895841E0,-2.929096520E-1,-6.044507027E-1,-1.033430457E0
7.891895841E0,-1.035415828E-1,-1.774562150E-1,-9.589049816E-1
7.901895841E0,5.589412898E-2,7.788526267E-2,-8.593340516E-1
7.911895841E0,2.232710719E-1,3.051269650E-1,-7.347176075E-1
7.921895841E0,3.680460155E-1,4.566214085E-1,-6.088794470E-1
7.931895841E0,4.645626545E-1,4.987711012E-1,-4.977020919E-1
7.941895841E0,4.957167804E-1,4.279107749E-1,-4.164570570E-1
7.951895841E0,4.749473631E-1,2.886336148E-1,-3.810268939E-1
7.961895841E0,3.778198659E-1,-2.901607752E-2,-4.518872201E-1
7.971895841E0,3.350593448E-1,-1.786779463E-1,-5.258018374E-1
7.981895841E0,2.990183234E-1,-3.063486814E-1,-5.936078429E-1
7.991895841E0,2.635881603E-1,-3.906480372E-1,-6.436987519E-1
8.001895841E0,2.202167511E-1,-4.046979249E-1,-6.821832657E-1
8.011895841E0,1.585194170E-1,-3.546070158E-1,-7.225003242E-1
8.021895841E0,7.360920310E-2,-2.495382577E-1,-7.793107629E-1
8.031895841E0,-1.389717311E-1,-4.795288667E-2,-9.430224895E-1
8.041895841E0,-2.611446977E-1,-5.406153202E-2,-1.028543591E0
8.051895841E0,-3.796524704E-1,-1.059850380E-1,-1.096349597E0
8.061895841E0,-4.773908257E-1,-1.658497900E-1,-1.128114581E0
8.071895841E0,-4.773908257E-1,-1.658497900E-1,-1.128114581E0
8.081895841E0,-6.178897023E-1,-3.252854943E-1,-1.063362837E0
8.091895841E0,-6.557633281E-1,-3.704894781E-1,-9.796743989E-1
8.101895841E0,-6.557633281E-1,-3.704894781E-1,-9.796743989E-1
8.111895841E0,-6.557633281E-1,-3.704894781E-1,-9.796743989E-1
8.121895841E0,-6.557633281E-1,-3.704894781E-1,-9.796743989E-1
8.131895841E0,-3.216203153E-1,-2.718348242E-2,-3.553705812E-1
8.141895841E0,-1.530216336E-1,5.955931544E-2,-1.965457499E-1
8.151895841E0,2.046396956E-2,1.408043355E-1,-2.916879393E-2
8.161895841E0,2.046396956E-2,1.408043355E-1,-2.916879393E-2
8.171895841E0,2.046396956E-2,1.408043355E-1,-2.916879393E-2
8.181895841E0,2.046396956E-2,1.408043355E-1,-2.916879393E-2
8.191895841E0,2.046396956E-2,1.408043355E-1,-2.916879393E-2
8.201895841E0,2.550360560E-1,3.619373739E-1,7.130318880E-1
8.211895841E0,2.880227566E-1,4.615083337E-1,7.557924390E-1
8.221895841E0,3.283398151E-1,5.464185476E-1,7.906117439E-1
8.231895841E0,3.283398151E-1,5.464185476E-1,7.906117439E-1
8.241895841E0,3.283398151E-1,5.464185476E-1,7.906117439E-1
8.251895841E0,3.283398151E-1,5.464185476E-1,7.906117439E-1
8.261895841E0,-1.951712966E-1,-5.989528894E-1,1.846338809E-1
8.271895841E0,-2.690859437E-1,-8.042035103E-1,1.847865991E-2
8.281895841E0,-2.067777216E-1,-8.054252267E-1,-7.864884287E-2
8.291895841E0,-1.679878123E-2,-6.392700076E-1,-9.819651395E-2
8.301895841E0,-1.679878123E-2,-6.392700076E-1,-9.819651395E-2
8.311895841E0,-1.679878123E-2,-6.392700076E-1,-9.819651395E-2
8.321895841E0,-1.679878123E-2,-6.392700076E-1,-9.819651395E-2
8.331895841E0,1.088255644E0,1.084590435E0,7.472403646E-1
8.341895841E0,1.063210130E0,9.978476167E-1,8.969022036E-1
8.351895841E0,8.695660233E-1,7.058542371E-1,9.335541129E-1
8.361895841E0,5.855138898E-1,3.601047993E-1,8.156571984E-1
8.371895841E0,5.855138898E-1,3.601047993E-1,8.156571984E-1
8.381895841E0,5.855138898E-1,3.601047993E-1,8.156571984E-1
8.391895841E0,-3.362810612E-1,-4.181369543E-1,-1.543960720E-1
8.401895841E0,-3.698786199E-1,-3.729329407E-1,-2.270889878E-1
8.411895841E0,-3.252854943E-1,-2.568686306E-1,-2.374736816E-1
8.421895841E0,-2.299905866E-1,-1.102610901E-1,-2.002109289E-1
8.431895841E0,-1.206457913E-1,2.657261863E-2,-1.256854236E-1
8.441895841E0,-1.206457913E-1,2.657261863E-2,-1.256854236E-1
8.451895841E0,-1.206457913E-1,2.657261863E-2,-1.256854236E-1
8.461895841E0,1.756236255E-1,3.222311735E-1,2.939786613E-1
8.471895841E0,1.786779463E-1,3.405571282E-1,3.782780170E-1
8.481895841E0,1.853974611E-1,3.674351573E-1,4.399753511E-1
8.491895841E0,2.196058929E-1,4.040870368E-1,4.925097227E-1
8.501895841E0,2.800815105E-1,4.364628792E-1,5.480984449E-1
8.511895841E0,4.065304995E-1,4.040870368E-1,6.904299259E-1
8.521895841E0,4.364628792E-1,3.326158822E-1,7.564033270E-1
8.531895841E0,4.437932670E-1,2.189950198E-1,7.961094975E-1
8.541895841E0,4.517345130E-1,8.032871783E-2,7.991638184E-1
8.551895841E0,4.712821841E-1,-5.772672221E-2,7.716749310E-1
8.561895841E0,4.896081090E-1,-1.860083193E-1,7.173079848E-1
8.571895841E0,4.951058924E-1,-2.825249732E-1,6.568323374E-1
8.581895841E0,4.297433794E-1,-3.533852696E-1,5.749764442E-1
8.591895841E0,3.729329407E-1,-3.472766280E-1,5.389354229E-1
8.601895841E0,3.142899275E-1,-3.094030023E-1,4.870119393E-1
8.611895841E0,2.605338395E-1,-2.415970266E-1,4.222602844E-1
8.621895841E0,2.061668634E-1,-1.774562150E-1,3.489564955E-1
8.631895841E0,1.475238502E-1,-1.450803876E-1,2.817613780E-1
8.641895841E0,9.193515033E-2,-1.322522312E-1,2.212857604E-1
8.651895841E0,3.359756200E-3,-1.554650813E-1,1.033888608E-1
8.661895841E0,-2.596175298E-2,-1.695149690E-1,4.596757516E-2
8.671895841E0,-4.978547990E-2,-1.798996776E-1,-4.581485991E-4
8.681895841E0,-8.582650125E-2,-1.896735132E-1,-3.283398226E-2
8.691895841E0,-1.395826042E-1,-1.878409237E-1,-4.321868345E-2
8.701895841E0,-1.988364905E-1,-1.695149690E-1,-2.794706449E-2
8.711895841E0,-2.483165264E-1,-1.340848207E-1,5.039634649E-3
8.721895841E0,-2.959639728E-1,-9.162971983E-4,5.818486959E-2
8.731895841E0,-3.100138903E-1,3.756818548E-2,4.291325063E-2
8.741895841E0,-3.344484568E-1,1.313359290E-2,-2.306014486E-2
8.751895841E0,-3.344484568E-1,1.313359290E-2,-2.306014486E-2
8.761895841E0,-3.344484568E-1,1.313359290E-2,-2.306014486E-2
8.771895841E0,-5.940660238E-1,-5.207622051E-1,-4.488328993E-1
8.781895841E0,-7.828232050E-1,-8.457422853E-1,-6.155989766E-1
8.791895841E0,-7.828232050E-1,-8.457422853E-1,-6.155989766E-1
8.801895841E0,-7.828232050E-1,-8.457422853E-1,-6.155989766E-1
8.811895841E0,-7.828232050E-1,-8.457422853E-1,-6.155989766E-1
8.821895841E0,-7.828232050E-1,-8.457422853E-1,-6.155989766E-1
8.831895841E0,-2.189950198E-1,-3.368919194E-1,-6.284271479E-1
8.841895841E0,6.200277433E-2,5.955931544E-2,-3.578140438E-1
8.851895841E0,3.301724195E-1,3.979783952E-1,-6.032289565E-2
8.861895841E0,3.301724195E-1,3.979783952E-1,-6.032289565E-2
8.871895841E0,3.301724195E-1,3.979783952E-1,-6.032289565E-2
8.881895841E0,3.301724195E-1,3.979783952E-1,-6.032289565E-2
8.891895841E0,1.976147592E-1,-1.646280587E-1,5.261073112E-1
8.901895841E0,4.123337194E-2,-3.613265157E-1,4.802924395E-1
8.911895841E0,-4.612028971E-2,-4.584540129E-1,4.118755758E-1
8.921895841E0,-4.978547990E-2,-4.450149834E-1,3.190241456E-1
8.931895841E0,-4.978547990E-2,-4.450149834E-1,3.190241456E-1
8.941895841E0,-4.978547990E-2,-4.450149834E-1,3.190241456E-1
8.951895841E0,2.532034516E-1,3.454440236E-1,-5.115992576E-2
8.961895841E0,2.251036763E-1,4.505127668E-1,-9.453132749E-2
8.971895841E0,1.615737379E-1,4.951058924E-1,-1.226311028E-1
8.981895841E0,9.437860548E-2,5.042688847E-1,-1.342375278E-1
8.991895841E0,4.245510325E-2,4.969384968E-1,-1.214093715E-1
9.001895841E0,4.245510325E-2,4.969384968E-1,-1.214093715E-1
9.011895841E0,3.207040206E-2,3.301724195E-1,1.113301069E-1
9.021895841E0,5.833758786E-2,2.489273995E-1,2.243400961E-1
9.031895841E0,7.971785218E-2,1.756236255E-1,3.226893246E-1
9.041895841E0,7.666353136E-2,1.224783882E-1,3.880518377E-1
9.051895841E0,4.123337194E-2,9.315688163E-2,4.173733592E-1
9.061895841E0,-2.840521187E-2,6.872228533E-2,4.051560760E-1
9.071895841E0,-2.238819450E-1,5.833758786E-2,2.671006322E-1
9.081895841E0,-3.106247485E-1,9.498947114E-2,1.797469556E-1
9.091895841E0,-3.888154328E-1,1.267544478E-1,1.046105921E-1
9.101895841E0,-4.651735425E-1,1.591302752E-1,5.818486959E-2
9.111895841E0,-5.232056975E-1,1.982256174E-1,5.757400393E-2
9.121895841E0,-5.623010397E-1,2.348775119E-1,1.009454057E-1
9.131895841E0,-5.946768522E-1,2.666424811E-1,1.699731201E-1
9.141895841E0,-6.429351568E-1,3.436114490E-1,3.501782417E-1
9.151895841E0,-6.539307237E-1,3.796524704E-1,4.356993139E-1
9.161895841E0,-6.514872909E-1,4.065304995E-1,5.022835732E-1
9.171895841E0,-6.380482912E-1,4.132500291E-1,5.468766689E-1
9.181895841E0,-6.123919487E-1,4.101957083E-1,5.816959739E-1
9.191895841E0,-5.616901517E-1,3.961458206E-1,6.201804876E-1
9.201895841E0,-4.834994674E-1,3.711003661E-1,6.641627550E-1
9.211895841E0,-3.197877109E-1,3.106247485E-1,7.631227970E-1
9.221895841E0,-2.434296161E-1,2.257145345E-1,8.034399152E-1
9.231895841E0,-1.627954692E-1,1.395826042E-1,8.309288025E-1
9.241895841E0,-8.582650125E-2,7.299833745E-2,8.510873318E-1
9.251895841E0,-2.412915789E-2,3.268126398E-2,8.779653907E-1
9.261895841E0,1.679878123E-2,2.107483521E-2,9.182825089E-1
9.271895841E0,3.756818548E-2,4.123337194E-2,9.726494551E-1
9.281895841E0,6.994401664E-2,2.507599890E-1,1.054505348E0
9.291895841E0,6.994401664E-2,2.507599890E-1,1.054505348E0
9.301895841E0,6.994401664E-2,2.507599890E-1,1.054505348E0
9.311895841E0,6.994401664E-2,2.507599890E-1,1.054505348E0
9.321895841E0,6.994401664E-2,2.507599890E-1,1.054505348E0
9.331895841E0,-1.249218509E-1,6.637045741E-1,7.863357067E-1
9.341895841E0,-3.063486814E-1,3.594939113E-1,5.841394663E-1
9.351895841E0,-3.063486814E-1,3.594939113E-1,5.841394663E-1
9.361895841E0,-3.063486814E-1,3.594939113E-1,5.841394663E-1
9.371895841E0,-3.063486814E-1,3.594939113E-1,5.841394663E-1
9.381895841E0,-3.063486814E-1,3.594939113E-1,5.841394663E-1
9.391895841E0,5.824595690E-1,3.136790693E-1,4.967857897E-1
9.401895841E0,8.347467184E-1,5.396990180E-1,7.435751557E-1
9.411895841E0,1.007621408E0,7.156280875E-1,9.634864926E-1
9.421895841E0,1.007621408E0,7.156280875E-1,9.634864926E-1
9.431895841E0,1.007621408E0,7.156280875E-1,9.634864926E-1
9.441895841E0,1.007621408E0,7.156280875E-1,9.634864926E-1
9.451895841E0,3.894262910E-1,1.432477981E-1,8.810197115E-1
9.461895841E0,5.955931544E-2,-1.004872546E-1,6.995928884E-1
9.471895841E0,-2.721402645E-1,-3.656025827E-1,5.389354229E-1
9.481895841E0,-5.311469436E-1,-6.478220820E-1,3.697259128E-1
9.491895841E0,-5.311469436E-1,-6.478220820E-1,3.697259128E-1
9.501895841E0,-5.311469436E-1,-6.478220820E-1,3.697259128E-1
9.511895841E0,-5.598575473E-1,-4.706713259E-1,-1.207985133E-1
9.521895841E0,-4.150826037E-1,-2.397644222E-1,-1.568395346E-1
9.531895841E0,-2.367101014E-1,5.833758786E-2,-1.006399691E-1
9.541895841E0,-6.261363626E-2,3.338375986E-1,4.108065739E-2
9.551895841E0,6.444623321E-2,4.767799675E-1,1.986837685E-1
9.561895841E0,6.444623321E-2,4.767799675E-1,1.986837685E-1
9.571895841E0,2.599229515E-1,2.061668634E-1,4.692968726E-1
9.581895841E0,3.692677617E-1,5.772672221E-2,5.273290277E-1
9.591895841E0,4.999928176E-1,-8.826996386E-2,5.731438994E-1
9.601895841E0,6.252201200E-1,-2.257145345E-1,6.195695996E-1
9.611895841E0,7.296779752E-1,-3.472766280E-1,6.745474339E-1
9.621895841E0,8.176425099E-1,-4.480693042E-1,7.374665141E-1
9.631895841E0,8.176425099E-1,-4.480693042E-1,7.374665141E-1
9.641895841E0,1.126129270E0,-5.549706817E-1,9.909753799E-1
9.651895841E0,1.219591498E0,-5.073232055E-1,1.075274706E0
9.661895841E0,1.262962937E0,-4.040870368E-1,1.130252600E0
9.671895841E0,1.230587125E0,-2.941313982E-1,1.148578525E0
9.681895841E0,1.115744472E0,-2.086103261E-1,1.121089578E0
9.691895841E0,9.245438576E-1,-1.646280587E-1,1.045342326E0
9.701895841E0,4.034761786E-1,-2.202167511E-1,7.796161771E-1
9.711895841E0,1.750127524E-1,-2.874118686E-1,6.317868829E-1
9.721895841E0,3.970621154E-3,-3.552178741E-1,4.961749315E-1
9.731895841E0,-1.084285006E-1,-4.022544622E-1,3.831649423E-1
9.741895841E0,-1.750127524E-1,-4.156934917E-1,2.915352285E-1
9.751895841E0,-2.067777216E-1,-4.242455959E-1,2.249509543E-1
9.761895841E0,-2.116646469E-1,-4.456258714E-1,1.858556122E-1
9.771895841E0,-1.860083193E-1,-5.445859432E-1,1.711948514E-1
9.781895841E0,-1.725693047E-1,-6.276635528E-1,1.534797698E-1
9.791895841E0,-1.695149690E-1,-6.991347671E-1,1.168278903E-1
9.801895841E0,-1.878409237E-1,-7.406735420E-1,6.551524997E-2
9.811895841E0,-2.214384824E-1,-7.217367291E-1,1.175914705E-2
9.821895841E0,-2.336557806E-1,-6.441569328E-1,-2.306014486E-2
9.831895841E0,-2.067777216E-1,-5.592467189E-1,-4.016435891E-2
9.841895841E0,-1.560759544E-1,-4.492910504E-1,-7.192932814E-2
9.851895841E0,-1.890626550E-1,-5.170970559E-1,-8.659008145E-2
9.861895841E0,-2.782489061E-1,-6.062833071E-1,-1.085812151E-1
9.871895841E0,-3.930914998E-1,-6.637045741E-1,-1.269071549E-1
9.881895841E0,-4.767799675E-1,-6.795870662E-1,-1.262962967E-1
9.891895841E0,-4.743365049E-1,-6.356047988E-1,-1.012508348E-1
9.901895841E0,-3.717112243E-1,-5.323686600E-1,-6.032289565E-2
9.911895841E0,1.802051067E-2,-2.483165264E-1,5.757400393E-2
9.921895841E0,1.802051067E-2,-2.483165264E-1,5.757400393E-2
9.931895841E0,1.802051067E-2,-2.483165264E-1,5.757400393E-2
9.941895841E0,1.802051067E-2,-2.483165264E-1,5.757400393E-2
9.951895841E0,3.094030023E-1,-1.059850380E-1,-3.772090003E-2
9.961895841E0,2.257145345E-1,-1.359174103E-1,-1.611155868E-1
9.971895841E0,1.127045527E-1,-1.444695145E-1,-2.814559340E-1
9.981895841E0,1.127045527E-1,-1.444695145E-1,-2.814559340E-1
9.991895841E0,1.127045527E-1,-1.444695145E-1,-2.814559340E-1
1.000189584E1,1.127045527E-1,-1.444695145E-1,-2.814559340E-1
1.001189584E1,1.127045527E-1,-1.444695145E-1,-2.814559340E-1
1.002189584E1,-2.147189677E-1,2.000582218E-1,-5.154171586E-1
1.003189584E1,-2.293797284E-1,3.375027776E-1,-5.099193454E-1
1.004189584E1,-2.550360560E-1,4.480693042E-1,-4.818195999E-1
1.005189584E1,-2.550360560E-1,4.480693042E-1,-4.818195999E-1
1.006189584E1,-2.550360560E-1,4.480693042E-1,-4.818195999E-1
1.007189584E1,-2.550360560E-1,4.480693042E-1,-4.818195999E-1
1.008189584E1,-8.826996386E-2,7.015781999E-1,-3.132209182E-1
1.009189584E1,-3.145953640E-2,5.891790986E-1,-3.052796721E-1
1.010189584E1,9.162971983E-4,4.572322965E-1,-3.083339930E-1
1.011189584E1,7.635809947E-3,3.466657698E-1,-3.248273432E-1
1.012189584E1,7.635809947E-3,3.466657698E-1,-3.248273432E-1
1.013189584E1,7.635809947E-3,3.466657698E-1,-3.248273432E-1
1.014189584E1,-6.505709887E-2,2.941313982E-1,-4.298960865E-1
1.015189584E1,-3.207040206E-2,3.258963525E-1,-4.396699369E-1
1.016189584E1,2.779434808E-2,3.631591201E-1,-4.366155863E-1
1.017189584E1,9.743293375E-2,3.649916947E-1,-4.323395491E-1
1.018189584E1,1.505781710E-1,3.460549116E-1,-4.347830117E-1
1.019189584E1,1.505781710E-1,3.460549116E-1,-4.347830117E-1
1.020189584E1,1.505781710E-1,3.460549116E-1,-4.347830117E-1
1.021189584E1,-8.032871783E-2,1.383608729E-1,-5.887209177E-1
1.022189584E1,-1.554650813E-1,2.840521187E-2,-6.217076182E-1
1.023189584E1,-1.689041108E-1,-1.740964688E-2,-6.461422443E-1
1.024189584E1,-1.237001196E-1,9.468403645E-3,-6.565269232E-1
1.025189584E1,-5.772672221E-2,5.955931544E-2,-6.339249015E-1
1.026189584E1,7.666353136E-2,2.360992432E-1,-4.616610706E-1
1.027189584E1,1.114828214E-1,2.941313982E-1,-3.523162603E-1
1.028189584E1,1.157588735E-1,3.417788446E-1,-2.448040545E-1
1.029189584E1,1.017089859E-1,4.059196413E-1,-1.379027218E-1
1.030189584E1,6.750056148E-2,4.364628792E-1,-4.382954910E-2
1.031189584E1,1.374445762E-2,3.967566788E-1,3.008509055E-2
1.032189584E1,-4.184423760E-2,3.197877109E-1,7.712167501E-2
1.033189584E1,-1.334739476E-1,1.298087686E-1,1.082757786E-1
1.034189584E1,-1.591302752E-1,3.268126398E-2,1.192713454E-1
1.035189584E1,-1.401934624E-1,2.290742844E-2,1.504254490E-1
1.036189584E1,-6.750056148E-2,1.438586563E-1,2.054032832E-1
1.037189584E1,2.840521187E-2,3.185659945E-1,2.817613780E-1
1.038189584E1,8.582650125E-2,4.156934917E-1,3.733910918E-1
1.039189584E1,6.811141968E-2,3.814850450E-1,4.595230222E-1
1.040189584E1,-2.538143098E-1,-8.582650125E-2,4.308123887E-1
1.041189584E1,-4.407389462E-1,-3.350593448E-1,2.829830945E-1
1.042189584E1,-5.256491303E-1,-5.024362803E-1,1.180496216E-1
1.043189584E1,-4.608974755E-1,-5.629118681E-1,-9.010255337E-3
1.044189584E1,-2.525925934E-1,-4.798342884E-1,-6.337722391E-2
1.045189584E1,4.489856213E-2,-2.690859437E-1,-2.489273995E-2
1.046189584E1,3.845393658E-1,4.123337194E-2,1.009454057E-1
1.047189584E1,3.845393658E-1,4.123337194E-2,1.009454057E-1
1.048189584E1,3.845393658E-1,4.123337194E-2,1.009454057E-1
1.049189584E1,3.845393658E-1,4.123337194E-2,1.009454057E-1
1.050189584E1,3.845393658E-1,4.123337194E-2,1.009454057E-1
1.051189584E1,7.082977295E-1,2.122755051E-1,1.052672744E0
1.052189584E1,7.082977295E-1,2.122755051E-1,1.052672744E0
1.053189584E1,3.185659945E-1,5.772672221E-2,8.510873318E-1
1.054189584E1,3.185659945E-1,5.772672221E-2,8.510873318E-1
1.055189584E1,3.185659945E-1,5.772672221E-2,8.510873318E-1
1.056189584E1,3.185659945E-1,5.772672221E-2,8.510873318E-1
1.057189584E1,-4.034761786E-1,-5.158752799E-1,4.338667095E-1
1.058189584E1,-3.955349326E-1,-5.513054729E-1,4.008800089E-1
1.059189584E1,-3.393353820E-1,-5.543597937E-1,3.813323379E-1
1.060189584E1,-2.495382577E-1,-5.421425104E-1,3.740019500E-1
1.061189584E1,-2.495382577E-1,-5.421425104E-1,3.740019500E-1
1.062189584E1,-2.495382577E-1,-5.421425104E-1,3.740019500E-1
1.063189584E1,1.505781710E-1,-4.389063418E-1,4.228711426E-1
1.064189584E1,1.817322671E-1,-4.071413875E-1,4.418079555E-1
1.065189584E1,1.927278340E-1,-3.466657698E-1,4.399753511E-1
1.066189584E1,1.750127524E-1,-2.916879356E-1,4.259254634E-1
1.067189584E1,1.365282834E-1,-2.666424811E-1,4.100429714E-1
1.068189584E1,1.365282834E-1,-2.666424811E-1,4.100429714E-1
1.069189584E1,1.007926930E-2,-3.717112243E-1,4.130973220E-1
1.070189584E1,1.007926930E-2,-3.717112243E-1,4.130973220E-1
1.071189584E1,4.581485875E-3,-4.236347377E-1,4.185950756E-1
1.072189584E1,2.229656465E-2,-3.992001414E-1,4.039343297E-1
1.073189584E1,3.329212964E-2,-3.399462402E-1,3.721693754E-1
1.074189584E1,3.573558852E-2,-2.819140851E-1,3.312414289E-1
1.075189584E1,3.573558852E-2,-2.819140851E-1,3.312414289E-1
1.076189584E1,1.029307172E-1,-1.927278340E-1,3.055851161E-1
1.077189584E1,1.456912458E-1,-1.432477981E-1,3.336848915E-1
1.078189584E1,1.939495653E-1,-9.376774728E-2,3.752236962E-1
1.079189584E1,2.379318327E-1,-5.161807314E-2,4.289797843E-1
1.080189584E1,2.611446977E-1,-2.351829410E-2,4.735729098E-1
1.081189584E1,2.568686306E-1,-1.740964688E-2,4.918988645E-1
1.082189584E1,1.664606482E-1,-1.591302752E-1,4.082103968E-1
1.083189584E1,8.888082206E-2,-2.587012351E-1,2.988655865E-1
1.084189584E1,2.229656465E-2,-3.320049942E-1,1.766926348E-1
1.085189584E1,-1.924224012E-2,-3.814850450E-1,7.834340632E-2
1.086189584E1,-3.145953640E-2,-3.967566788E-1,2.031125315E-2
1.087189584E1,-1.557705179E-2,-3.698786199E-1,7.483093534E-3
1.088189584E1,2.901607752E-2,-2.709185183E-1,4.657844082E-2
1.089189584E1,8.155044913E-2,2.474002354E-2,2.408334464E-1
1.090189584E1,1.618791744E-2,5.345066637E-2,3.355174661E-1
1.091189584E1,-1.401934624E-1,-6.566796452E-2,3.794997334E-1
1.092189584E1,-3.625482321E-1,-2.648098767E-1,3.532325625E-1
1.093189584E1,-5.971203446E-1,-4.590648711E-1,2.609919906E-1
1.094189584E1,-7.718276381E-1,-5.763509274E-1,1.266017258E-1
1.095189584E1,-8.213077188E-1,-5.739074349E-1,-3.512472380E-3
1.096189584E1,-5.574141145E-1,-2.819140851E-1,-1.434005052E-1
1.097189584E1,-3.454440236E-1,-6.994401664E-2,-1.140789986E-1
1.098189584E1,-1.133154184E-1,1.994473487E-1,-1.328630932E-2
1.099189584E1,1.200349256E-1,4.547888339E-1,1.125518382E-1
1.100189584E1,1.200349256E-1,4.547888339E-1,1.125518382E-1
1.101189584E1,4.187478125E-1,5.592467189E-1,3.061959743E-1
1.102189584E1,3.851502538E-1,3.906480372E-1,3.819431961E-1
1.103189584E1,3.851502538E-1,3.906480372E-1,3.819431961E-1
1.104189584E1,3.851502538E-1,3.906480372E-1,3.819431961E-1
1.105189584E1,3.851502538E-1,3.906480372E-1,3.819431961E-1
1.106189584E1,3.851502538E-1,3.906480372E-1,3.819431961E-1
1.107189584E1,3.851502538E-1,3.906480372E-1,3.819431961E-1
1.108189584E1,-8.463531733E-1,-3.631591201E-1,8.078686893E-2
1.109189584E1,-9.642500281E-1,-3.820959330E-1,-2.977965772E-2
1.110189584E1,-9.642500281E-1,-3.820959330E-1,-2.977965772E-2
1.111189584E1,-9.642500281E-1,-3.820959330E-1,-2.977965772E-2
1.112189584E1,-9.642500281E-1,-3.820959330E-1,-2.977965772E-2
1.113189584E1,-9.062178731E-1,8.765909821E-2,-3.908007443E-1
1.114189584E1,-8.048143387E-1,2.641990185E-1,-3.669770062E-1
1.115189584E1,-7.095194459E-1,4.419606626E-1,-3.266599476E-1
1.116189584E1,-6.447677612E-1,5.971203446E-1,-3.010036349E-1
1.117189584E1,-6.447677612E-1,5.971203446E-1,-3.010036349E-1
1.118189584E1,-6.447677612E-1,5.971203446E-1,-3.010036349E-1
1.119189584E1,-6.136136651E-1,9.337068200E-1,-7.925970852E-2
1.120189584E1,-6.136136651E-1,9.337068200E-1,-7.925970852E-2
1.121189584E1,-6.081159115E-1,7.131846547E-1,-2.550360374E-2
1.122189584E1,-5.818486810E-1,5.812378526E-1,-3.344484791E-2
1.123189584E1,-5.580250025E-1,4.101957083E-1,-6.215549260E-2
1.124189584E1,-5.580250025E-1,4.101957083E-1,-6.215549260E-2
1.125189584E1,-5.580250025E-1,4.101957083E-1,-6.215549260E-2
1.126189584E1,-6.374374032E-1,-4.712821841E-1,-1.214093715E-1
1.127189584E1,-6.722567081E-1,-5.280926228E-1,-9.025526792E-2
1.128189584E1,-7.052434087E-1,-5.012145638E-1,-5.604684353E-2
1.129189584E1,-7.278453708E-1,-3.875937164E-1,-4.199695215E-2
1.130189584E1,-7.370083332E-1,-2.141081095E-1,-6.582067907E-2
1.131189584E1,-7.162389755E-1,1.285870373E-1,-9.208786488E-2
1.132189584E1,-6.869174242E-1,2.892444730E-1,-6.826414168E-2
1.133189584E1,-6.417134404E-1,4.431824088E-1,-5.177079141E-2
1.134189584E1,-5.879573226E-1,5.946768522E-1,-6.032289565E-2
1.135189584E1,-5.366446972E-1,7.376192212E-1,-7.803797722E-2
1.136189584E1,-4.920515716E-1,8.781180978E-1,-7.987056673E-2
1.137189584E1,-4.492910504E-1,1.009454012E0,-5.482511222E-2
1.138189584E1,-3.460549116E-1,1.222645879E0,1.180496216E-1
1.139189584E1,-2.855792940E-1,1.257465124E0,2.780961990E-1
1.140189584E1,-2.141081095E-1,1.211039424E0,4.760163724E-1
1.141189584E1,-1.401934624E-1,1.087644696E0,6.763800383E-1
1.142189584E1,-7.360920310E-2,9.190460443E-1,8.523091078E-1
1.143189584E1,-2.290742844E-2,7.993165851E-1,9.726494551E-1
1.144189584E1,6.414080039E-3,7.192932963E-1,1.032514215E0
1.145189584E1,5.528326333E-2,4.608974755E-1,1.034957647E0
1.146189584E1,1.175914705E-1,3.234528899E-1,1.003192663E0
1.147189584E1,1.572976857E-1,1.853974611E-1,9.683734179E-1
1.148189584E1,1.267544478E-1,5.803215317E-3,9.304997921E-1
1.149189584E1,6.322450191E-2,-2.086103261E-1,8.529199362E-1
1.150189584E1,4.184423760E-2,-4.297433794E-1,6.971494555E-1
1.151189584E1,1.432477981E-1,-5.879573226E-1,4.876227975E-1
1.152189584E1,6.747001410E-1,-4.682278633E-1,1.406516135E-1
1.153189584E1,9.563088417E-1,-2.073885947E-1,9.605848789E-2
1.154189584E1,1.189048290E0,1.029307172E-1,1.461493969E-1
1.155189584E1,1.348484039E0,4.046979249E-1,2.499964088E-1
1.156189584E1,1.413235664E0,6.539307237E-1,3.611738086E-1
1.157189584E1,1.364366531E0,8.176425099E-1,4.424188137E-1
1.158189584E1,1.218980670E0,8.958331943E-1,4.827359021E-1
1.159189584E1,8.500183225E-1,8.933897614E-1,4.686860144E-1
1.160189584E1,8.500183225E-1,8.933897614E-1,4.686860144E-1
1.161189584E1,8.500183225E-1,8.933897614E-1,4.686860144E-1
1.162189584E1,8.500183225E-1,8.933897614E-1,4.686860144E-1
1.163189584E1,3.203985691E-1,4.731147587E-1,1.815795600E-1
1.164189584E1,2.800815105E-1,2.800815105E-1,4.902189970E-2
1.165189584E1,2.611446977E-1,6.627883017E-2,-8.597921580E-2
1.166189584E1,2.611446977E-1,6.627883017E-2,-8.597921580E-2
1.167189584E1,2.611446977E-1,6.627883017E-2,-8.597921580E-2
1.168189584E1,2.611446977E-1,6.627883017E-2,-8.597921580E-2
1.169189584E1,1.933387071E-1,-5.287034512E-1,-5.801688433E-1
1.170189584E1,1.383608729E-1,-5.421425104E-1,-6.168206930E-1
1.171189584E1,8.032871783E-2,-5.311469436E-1,-6.382009983E-1
1.172189584E1,3.695731983E-2,-4.877755344E-1,-6.430879235E-1
1.173189584E1,3.695731983E-2,-4.877755344E-1,-6.430879235E-1
1.174189584E1,3.695731983E-2,-4.877755344E-1,-6.430879235E-1
1.175189584E1,1.243109852E-1,-2.086103261E-1,-4.329504073E-1
1.176189584E1,1.982256174E-1,-1.829539984E-1,-3.437641561E-1
1.177189584E1,2.965748608E-1,-1.646280587E-1,-2.466366589E-1
1.178189584E1,3.918697536E-1,-1.560759544E-1,-1.446222365E-1
1.179189584E1,4.615083337E-1,-1.737910360E-1,-5.054906011E-2
1.180189584E1,4.615083337E-1,-1.737910360E-1,-5.054906011E-2
1.181189584E1,4.615083337E-1,-1.737910360E-1,-5.054906011E-2
1.182189584E1,5.360338688E-1,-1.817322671E-1,1.101083755E-1
1.183189584E1,5.146535635E-1,-1.713475734E-1,1.107192412E-1
1.184189584E1,4.761691093E-1,-1.866191924E-1,9.300415963E-2
1.185189584E1,4.163043499E-1,-2.434296161E-1,5.024362728E-2
1.186189584E1,3.326158822E-1,-3.265072107E-1,-2.244928107E-2
1.187189584E1,3.326158822E-1,-3.265072107E-1,-2.244928107E-2
1.188189584E1,7.666353136E-2,-4.926624298E-1,-2.588539422E-1
1.189189584E1,8.857538924E-3,-5.146535635E-1,-3.217730224E-1
1.190189584E1,-5.222893879E-2,-5.244274139E-1,-3.712530732E-1
1.191189584E1,-1.188132018E-1,-5.335903764E-1,-3.987419903E-1
1.192189584E1,-2.018908113E-1,-5.592467189E-1,-4.152353406E-1
1.193189584E1,-3.063486814E-1,-5.995637774E-1,-4.378373325E-1
1.194189584E1,-5.525271893E-1,-6.325504780E-1,-4.775435328E-1
1.195189584E1,-6.832522750E-1,-6.331613660E-1,-4.995346665E-1
1.196189584E1,-8.072578311E-1,-5.946768522E-1,-5.203040838E-1
1.197189584E1,-8.940005898E-1,-4.902189970E-1,-5.294670463E-1
1.198189584E1,-9.251546860E-1,-3.149007857E-1,-5.129737258E-1
1.199189584E1,-8.946114779E-1,-9.010255337E-2,-4.641045034E-1
1.200189584E1,-8.243620396E-1,1.438586563E-1,-3.950767815E-1
1.201189584E1,-7.669407129E-1,3.906480372E-1,-3.278816640E-1
1.202189584E1,-8.402445316E-1,3.503309488E-1,-3.840812445E-1
1.203189584E1,-9.599739909E-1,2.464839369E-1,-5.007563829E-1
1.204189584E1,-9.599739909E-1,2.464839369E-1,-5.007563829E-1
1.205189584E1,-1.126129270E0,7.605266571E-2,-8.000801206E-1
1.206189584E1,-1.090088248E0,3.695731983E-2,-8.807142973E-1
1.207189584E1,-9.636391997E-1,4.795288667E-2,-8.648318052E-1
1.208189584E1,-5.024362803E-1,1.212566569E-1,-5.893318057E-1
1.209189584E1,-2.183841616E-1,1.695149690E-1,-3.810268939E-1
1.210189584E1,4.978547990E-2,1.817322671E-1,-1.653916389E-1
1.211189584E1,2.874118686E-1,1.517999023E-1,3.497200832E-2
1.212189584E1,5.012145638E-1,9.804379940E-2,2.072358727E-1
1.213189584E1,6.985238791E-1,2.412915789E-2,3.404043913E-1
1.214189584E1,8.781180978E-1,-4.245510325E-2,4.356993139E-1
1.215189584E1,1.126129270E0,-1.420260668E-1,5.334376693E-1
1.216189584E1,1.178052783E0,-1.902843714E-1,5.468766689E-1
1.217189584E1,1.178052783E0,-2.214384824E-1,5.377137065E-1
1.218189584E1,1.114522815E0,-2.507599890E-1,4.906771481E-1
1.219189584E1,1.114522815E0,-2.507599890E-1,4.906771481E-1
1.220189584E1,7.962622643E-1,-3.399462402E-1,2.396117151E-1
1.221189584E1,5.726857185E-1,-4.101957083E-1,5.635227636E-2
1.222189584E1,5.726857185E-1,-4.101957083E-1,5.635227636E-2
1.223189584E1,5.726857185E-1,-4.101957083E-1,5.635227636E-2
1.224189584E1,5.726857185E-1,-4.101957083E-1,5.635227636E-2
1.225189584E1,5.726857185E-1,-4.101957083E-1,5.635227636E-2
1.226189584E1,-3.949240744E-1,-6.994401664E-2,-8.324559927E-1
1.227189584E1,-3.949240744E-1,-6.994401664E-2,-8.324559927E-1
1.228189584E1,-4.120282829E-1,1.829539984E-1,-7.622065544E-1
1.229189584E1,-4.120282829E-1,1.829539984E-1,-7.622065544E-1
1.230189584E1,-4.120282829E-1,1.829539984E-1,-7.622065544E-1
1.231189584E1,-3.894262910E-1,1.768453568E-1,-4.115701318E-1
1.232189584E1,-3.631591201E-1,1.194240674E-1,-3.627009690E-1
1.233189584E1,-3.289506733E-1,7.177661359E-2,-3.205513060E-1
1.234189584E1,-2.892444730E-1,3.940077871E-2,-2.771798968E-1
1.235189584E1,-2.525925934E-1,2.657261863E-2,-2.276998460E-1
1.236189584E1,-2.525925934E-1,2.657261863E-2,-2.276998460E-1
1.237189584E1,-2.525925934E-1,2.657261863E-2,-2.276998460E-1
1.238189584E1,-2.525925934E-1,2.657261863E-2,-2.276998460E-1
1.239189584E1,-8.170316219E-1,1.792888194E-1,-4.537198246E-1
1.240189584E1,-1.034499526E0,2.073885947E-1,-6.186532974E-1
1.241189584E1,-1.226311088E0,2.189950198E-1,-7.994692922E-1
1.242189584E1,-1.368642569E0,2.183841616E-1,-9.686788321E-1
1.243189584E1,-1.368642569E0,2.183841616E-1,-9.686788321E-1
1.244189584E1,-1.469435215E0,5.555815101E-1,-1.213635564E0
1.245189584E1,-1.420566082E0,7.425061464E-1,-1.156825185E0
1.246189584E1,-1.327103734E0,8.762855530E-1,-1.026100159E0
1.247189584E1,-1.179885268E0,9.471458197E-1,-8.379537463E-1
1.248189584E1,-9.844086170E-1,9.410371780E-1,-6.229293346E-1
1.249189584E1,-7.602212429E-1,8.445205688E-1,-4.164570570E-1
1.250189584E1,-3.203985691E-1,4.187478125E-1,-1.006399691E-1
1.251189584E1,-1.359174103E-1,1.994473487E-1,7.483093534E-3
1.252189584E1,1.618791744E-2,1.924224012E-2,9.422589093E-2
1.253189584E1,1.365282834E-1,-1.096502244E-1,1.595884264E-1
1.254189584E1,2.434296161E-1,-1.609628648E-1,2.127336562E-1
1.255189584E1,3.436114490E-1,-1.487455666E-1,2.506072819E-1
1.256189584E1,4.272999167E-1,-9.621120244E-2,2.756527364E-1
1.257189584E1,4.389063418E-1,-9.376774728E-2,2.567159235E-1
1.258189584E1,4.389063418E-1,-9.376774728E-2,2.567159235E-1
1.259189584E1,2.244928032E-1,-3.930914998E-1,5.696314201E-2
1.260189584E1,1.640172005E-1,-5.012145638E-1,-5.421425030E-2
1.261189584E1,2.037234008E-1,-5.354229808E-1,-1.324049383E-1
1.262189584E1,3.393353820E-1,-4.932733178E-1,-1.586721241E-1
1.263189584E1,5.225948095E-1,-4.077522457E-1,-1.244636998E-1
1.264189584E1,8.909462690E-1,-2.556469142E-1,1.320995092E-1
1.265189584E1,1.044884205E0,-1.927278340E-1,3.422369957E-1
1.266189584E1,1.165835381E0,-1.194240674E-1,5.725330114E-1
1.267189584E1,1.252578259E0,-1.557705179E-2,7.802270651E-1
1.268189584E1,1.299614787E0,9.437860548E-2,9.274454713E-1
1.269189584E1,1.294727921E0,1.750127524E-1,1.011744738E0
1.270189584E1,1.236084938E0,2.318231910E-1,1.043509722E0
1.271189584E1,9.563088417E-1,2.696968019E-1,9.830341339E-1
1.272189584E1,7.712168097E-1,2.409861535E-1,9.115629792E-1
1.273189584E1,5.897899270E-1,1.811214089E-1,8.345940113E-1
1.274189584E1,5.897899270E-1,1.811214089E-1,8.345940113E-1
1.275189584E1,5.897899270E-1,1.811214089E-1,8.345940113E-1
1.276189584E1,2.385426909E-1,-2.043342739E-1,5.981893539E-1
1.277189584E1,1.762344837E-1,-3.649916947E-1,5.157225728E-1
1.278189584E1,1.762344837E-1,-3.649916947E-1,5.157225728E-1
1.279189584E1,1.762344837E-1,-3.649916947E-1,5.157225728E-1
1.280189584E1,1.762344837E-1,-3.649916947E-1,5.157225728E-1
1.281189584E1,1.762344837E-1,-3.649916947E-1,5.157225728E-1
1.282189584E1,1.762344837E-1,-3.649916947E-1,5.157225728E-1
1.283189584E1,1.249218509E-1,-4.205803871E-1,2.078467458E-1
1.284189584E1,2.134972364E-1,-1.823431402E-1,2.732092738E-1
1.285189584E1,2.134972364E-1,-1.823431402E-1,2.732092738E-1
1.286189584E1,2.134972364E-1,-1.823431402E-1,2.732092738E-1
1.287189584E1,2.134972364E-1,-1.823431402E-1,2.732092738E-1
1.288189584E1,6.136136651E-1,4.584540129E-1,6.910407543E-1
1.289189584E1,6.319395900E-1,3.875937164E-1,7.191405892E-1
1.290189584E1,6.215549111E-1,2.660316229E-1,7.215840220E-1
1.291189584E1,6.013963819E-1,1.383608729E-1,7.026472092E-1
1.292189584E1,6.013963819E-1,1.383608729E-1,7.026472092E-1
1.293189584E1,6.013963819E-1,1.383608729E-1,7.026472092E-1
1.294189584E1,5.329795480E-1,-1.365282834E-1,4.986183643E-1
1.295189584E1,5.329795480E-1,-1.365282834E-1,4.986183643E-1
1.296189584E1,3.625482321E-1,-2.831358314E-1,3.459021747E-1
1.297189584E1,2.727511227E-1,-3.674351573E-1,2.695440948E-1
1.298189584E1,2.006690800E-1,-4.425715208E-1,1.986837685E-1
1.299189584E1,2.006690800E-1,-4.425715208E-1,1.986837685E-1
1.300189584E1,2.006690800E-1,-4.425715208E-1,1.986837685E-1
1.301189584E1,1.069013402E-2,-5.177078843E-1,-6.887500733E-2
1.302189584E1,-5.222893879E-2,-4.767799675E-1,-1.305723488E-1
1.303189584E1,-1.291978955E-1,-4.327977002E-1,-1.922696829E-1
1.304189584E1,-2.141081095E-1,-3.863719702E-1,-2.533561587E-1
1.305189584E1,-2.977965772E-1,-3.417788446E-1,-3.022253513E-1
1.306189584E1,-4.737256467E-1,-3.069595397E-1,-3.706422150E-1
1.307189584E1,-5.445859432E-1,-3.057378232E-1,-3.962985277E-1
1.308189584E1,-5.910117030E-1,-2.843575478E-1,-4.201222658E-1
1.309189584E1,-6.185005903E-1,-2.238819450E-1,-4.329504073E-1
1.310189584E1,-6.313287616E-1,-1.230892539E-1,-4.292852283E-1
1.311189584E1,-6.356047988E-1,2.535088919E-2,-4.146244824E-1
1.312189584E1,-6.331613660E-1,2.006690800E-1,-3.871355653E-1
1.313189584E1,-6.404917240E-1,4.920515716E-1,-2.985601723E-1
1.314189584E1,-6.704241037E-1,5.164861679E-1,-2.948949635E-1
1.315189584E1,-7.742711306E-1,3.845393658E-1,-3.565923274E-1
1.316189584E1,-9.691369534E-1,1.072067693E-1,-5.050324798E-1
1.317189584E1,-1.212872028E0,-2.458730787E-1,-7.041743994E-1
1.318189584E1,-1.404683590E0,-5.085449219E-1,-9.222530723E-1
1.319189584E1,-1.477376461E0,-5.775726438E-1,-1.126892805E0
1.320189584E1,-1.247080445E0,-2.079994529E-1,-1.294269800E0
1.321189584E1,-9.734130502E-1,1.157588735E-1,-1.194698811E0
1.322189584E1,-6.466003656E-1,4.407389462E-1,-9.741765857E-1
1.323189584E1,-3.246746361E-1,6.905826330E-1,-6.760746241E-1
1.324189584E1,-6.811141968E-2,7.803797722E-1,-3.651444316E-1
1.325189584E1,8.216131479E-2,6.844739914E-1,-1.171333194E-1
1.326189584E1,1.255327165E-1,4.816668928E-1,2.458730713E-2
1.327189584E1,9.315688163E-2,5.772672221E-2,2.947422490E-2
1.328189584E1,8.521563560E-2,-5.955931544E-2,-4.734201822E-3
1.329189584E1,8.277218044E-2,-9.804379940E-2,-9.621120058E-3
1.330189584E1,8.216131479E-2,-8.338304609E-2,1.175914705E-2
1.331189584E1,8.521563560E-2,-1.679878123E-2,5.574141070E-2
1.332189584E1,9.498947114E-2,8.521563560E-2,1.143844277E-1
1.333189584E1,1.084285006E-1,1.963930279E-1,1.821904182E-1
1.334189584E1,1.194240674E-1,3.430005610E-1,3.275762498E-1
1.335189584E1,1.194240674E-1,3.430005610E-1,3.275762498E-1
1.336189584E1,1.194240674E-1,3.430005610E-1,3.275762498E-1
1.337189584E1,1.194240674E-1,3.430005610E-1,3.275762498E-1
1.338189584E1,5.345066637E-2,5.222893879E-2,4.161516428E-1
1.339189584E1,4.795288667E-2,-5.711585656E-2,3.831649423E-1
1.340189584E1,4.673115537E-2,-1.487455666E-1,3.416261375E-1
1.341189584E1,4.673115537E-2,-1.487455666E-1,3.416261375E-1
1.342189584E1,4.673115537E-2,-1.487455666E-1,3.416261375E-1
1.343189584E1,4.673115537E-2,-1.487455666E-1,3.416261375E-1
1.344189584E1,-5.711585656E-2,-3.790415823E-1,1.241582632E-1
1.345189584E1,-1.530216336E-1,-4.126391709E-1,7.040216774E-2
1.346189584E1,-2.532034516E-1,-4.572322965E-1,1.847865991E-2
1.347189584E1,-3.350593448E-1,-5.170970559E-1,-1.756236330E-2
1.348189584E1,-3.350593448E-1,-5.170970559E-1,-1.756236330E-2
1.349189584E1,-3.350593448E-1,-5.170970559E-1,-1.756236330E-2
1.350189584E1,-1.579085439E-1,-3.961458206E-1,-2.794706449E-2
1.351189584E1,-4.306596518E-2,-2.031125426E-1,1.664606482E-2
1.352189584E1,3.268126398E-2,1.863137633E-2,8.078686893E-2
1.353189584E1,4.612028971E-2,2.067777216E-1,1.424842030E-1
1.354189584E1,3.359756200E-3,3.307832778E-1,1.968511790E-1
1.355189584E1,3.359756200E-3,3.307832778E-1,1.968511790E-1
1.356189584E1,-1.499672979E-1,5.726857185E-1,3.575085998E-1
1.357189584E1,-1.334739476E-1,6.374374032E-1,4.265363216E-1
1.358189584E1,-8.826996386E-2,7.040216327E-1,5.151117444E-1
1.359189584E1,-3.145953640E-2,7.754928470E-1,6.189587116E-1
1.360189584E1,9.468403645E-3,8.182533979E-1,7.246383429E-1
1.361189584E1,3.268126398E-2,8.237511516E-1,8.168789148E-1
1.362189584E1,3.023780696E-2,8.219185472E-1,9.097303748E-1
1.363189584E1,1.374445762E-2,8.530726433E-1,9.182825089E-1
1.364189584E1,-1.435532235E-2,8.622356653E-1,8.773545623E-1
1.365189584E1,-8.704823256E-2,7.034108043E-1,7.545707226E-1
1.366189584E1,-2.330449075E-1,2.904661894E-1,5.206094980E-1
1.367189584E1,-4.834994674E-1,-2.764163017E-1,1.901316643E-1
1.368189584E1,-9.544762373E-1,-1.553123713E0,-3.614792228E-1
1.369189584E1,-1.011286616E0,-1.780976295E0,-5.942187309E-1
1.370189584E1,-8.353576064E-1,-1.661857605E0,-7.163916826E-1
1.371189584E1,-4.590648711E-1,-1.284954071E0,-7.005091906E-1
1.372189584E1,2.840521187E-2,-7.174606919E-1,-5.349648595E-1
1.373189584E1,5.134318471E-1,-1.090393662E-1,-2.460257858E-1
1.374189584E1,8.897245526E-1,3.484983444E-1,1.064431891E-1
1.375189584E1,1.189659119E0,7.040216327E-1,7.545707226E-1
1.376189584E1,1.171944022E0,6.899717450E-1,9.372192621E-1
1.377189584E1,1.090088248E0,5.971203446E-1,9.964731932E-1
1.378189584E1,9.673043489E-1,4.456258714E-1,9.543235302E-1
1.379189584E1,8.420770764E-1,2.965748608E-1,8.559742570E-1
1.380189584E1,7.382301092E-1,1.835648715E-1,7.325795889E-1
1.381189584E1,6.618719697E-1,1.084285006E-1,5.957458615E-1
1.382189584E1,5.396990180E-1,5.528326333E-2,3.422369957E-1
1.383189584E1,4.853320718E-1,4.795288667E-2,2.347247899E-1
1.384189584E1,4.437932670E-1,4.428769648E-2,1.394298822E-1
1.385189584E1,4.248564541E-1,5.100720748E-2,6.001746282E-2
1.386189584E1,4.352411628E-1,7.116574794E-2,1.053741761E-2
1.387189584E1,4.731147587E-1,9.804379940E-2,2.596175298E-3
1.388189584E1,5.354229808E-1,1.255327165E-1,3.497200832E-2
1.389189584E1,5.354229808E-1,1.255327165E-1,3.497200832E-2
1.390189584E1,5.354229808E-1,1.255327165E-1,3.497200832E-2
1.391189584E1,5.354229808E-1,1.255327165E-1,3.497200832E-2
1.392189584E1,5.354229808E-1,1.255327165E-1,3.497200832E-2
1.393189584E1,5.354229808E-1,1.255327165E-1,3.497200832E-2
1.394189584E1,9.947932959E-1,-1.591302752E-1,6.843212843E-1
1.395189584E1,9.947932959E-1,-1.591302752E-1,6.843212843E-1
1.396189584E1,9.947932959E-1,-1.591302752E-1,6.843212843E-1
1.397189584E1,9.947932959E-1,-1.591302752E-1,6.843212843E-1
1.398189584E1,9.947932959E-1,-1.591302752E-1,6.843212843E-1
1.399189584E1,9.947932959E-1,-1.591302752E-1,6.843212843E-1
1.400189584E1,6.319395900E-1,-7.235693336E-1,3.324631453E-1
1.401189584E1,5.256491303E-1,-7.614429593E-1,1.650862098E-1
1.402189584E1,4.089739621E-1,-7.357866168E-1,-2.061668597E-2
1.403189584E1,4.089739621E-1,-7.357866168E-1,-2.061668597E-2
1.404189584E1,4.089739621E-1,-7.357866168E-1,-2.061668597E-2
1.405189584E1,4.089739621E-1,-7.357866168E-1,-2.061668597E-2
1.406189584E1,-3.051269650E-1,4.245510325E-2,-6.974548697E-1
1.407189584E1,-4.773908257E-1,1.536324918E-1,-7.286089659E-1
1.408189584E1,-6.301070452E-1,2.220493406E-1,-7.554870248E-1
1.409189584E1,-7.669407129E-1,2.782489061E-1,-7.854194045E-1
1.410189584E1,-7.669407129E-1,2.782489061E-1,-7.854194045E-1
1.411189584E1,-7.669407129E-1,2.782489061E-1,-7.854194045E-1
1.412189584E1,-1.760206819E0,7.944296598E-1,-8.868229389E-1
1.413189584E1,-1.760206819E0,7.944296598E-1,-8.868229389E-1
1.414189584E1,-2.204916477E0,9.092722535E-1,-8.691078424E-1
1.415189584E1,-2.183536053E0,7.443387508E-1,-8.226821423E-1
1.416189584E1,-1.967900872E0,4.517345130E-1,-7.426588535E-1
1.417189584E1,-1.967900872E0,4.517345130E-1,-7.426588535E-1
1.418189584E1,-1.967900872E0,4.517345130E-1,-7.426588535E-1
1.419189584E1,-4.046979249E-1,-6.997455955E-1,-8.379537463E-1
1.420189584E1,-2.684750557E-1,-8.921679854E-1,-9.973894954E-1
1.421189584E1,-2.562577724E-1,-1.004567146E0,-1.154992580E0
1.422189584E1,-3.173442483E-1,-1.014951825E0,-1.269224286E0
1.423189584E1,-4.065304995E-1,-9.190460443E-1,-1.319315195E0
1.424189584E1,-4.633409381E-1,-2.843575478E-1,-1.191033602E0
1.425189584E1,-4.169152081E-1,1.847866029E-1,-1.002276421E0
1.426189584E1,-3.173442483E-1,6.685914993E-1,-7.469348907E-1
1.427189584E1,-1.652389169E-1,1.060155869E0,-4.610501826E-1
1.428189584E1,2.779434808E-2,1.305112600E0,-1.800523996E-1
1.429189584E1,2.446513474E-1,1.370475173E0,7.101303339E-2
1.430189584E1,4.578431547E-1,1.242193580E0,2.628245652E-1
1.431189584E1,7.663298845E-1,6.325504780E-1,4.528035223E-1
1.432189584E1,8.640682101E-1,3.149007857E-1,4.613556266E-1
1.433189584E1,9.294307828E-1,5.955931544E-2,4.124864340E-1
1.434189584E1,9.477567077E-1,-1.133154184E-1,3.104720116E-1
1.435189584E1,9.135482907E-1,-1.951712966E-1,1.864664704E-1
1.436189584E1,8.365793228E-1,-1.853974611E-1,7.162389904E-2
1.437189584E1,7.412844300E-1,-1.090393662E-1,-2.183841541E-2
1.438189584E1,5.323686600E-1,1.426369250E-1,-1.690568328E-1
1.439189584E1,4.285216331E-1,2.672533393E-1,-2.179260105E-1
1.440189584E1,3.234528899E-1,3.472766280E-1,-2.515235841E-1
1.441189584E1,2.257145345E-1,3.637699783E-1,-2.808450758E-1
1.442189584E1,1.487455666E-1,3.313941360E-1,-3.065013885E-1
1.443189584E1,9.865466505E-2,2.519817352E-1,-3.327685893E-1
1.444189584E1,7.422006875E-2,1.438586563E-1,-3.559814394E-1
1.445189584E1,9.254601598E-2,-4.673115537E-2,-3.773617148E-1
1.446189584E1,9.254601598E-2,-4.673115537E-2,-3.773617148E-1
1.447189584E1,9.254601598E-2,-4.673115537E-2,-3.773617148E-1
1.448189584E1,9.254601598E-2,-4.673115537E-2,-3.773617148E-1
1.449189584E1,9.254601598E-2,-4.673115537E-2,-3.773617148E-1
1.450189584E1,9.254601598E-2,-4.673115537E-2,-3.773617148E-1
1.451189584E1,-2.183841616E-1,-3.100138903E-1,-5.624537468E-1
1.452189584E1,-2.183841616E-1,-3.100138903E-1,-5.624537468E-1
1.453189584E1,-2.183841616E-1,-3.100138903E-1,-5.624537468E-1
1.454189584E1,-2.183841616E-1,-3.100138903E-1,-5.624537468E-1
1.455189584E1,-2.183841616E-1,-3.100138903E-1,-5.624537468E-1
1.456189584E1,-6.533198953E-1,-5.445859432E-1,-1.055421591E0
1.457189584E1,-7.363975048E-1,-4.780016840E-1,-1.067028046E0
1.458189584E1,-8.219185472E-1,-3.955349326E-1,-1.050534725E0
1.459189584E1,-8.219185472E-1,-3.955349326E-1,-1.050534725E0
1.460189584E1,-8.219185472E-1,-3.955349326E-1,-1.050534725E0
1.461189584E1,-8.219185472E-1,-3.955349326E-1,-1.050534725E0
1.462189584E1,-8.964440823E-1,2.012799382E-1,-1.008995891E0
1.463189584E1,-8.268054724E-1,4.211912751E-1,-9.705114365E-1
1.464189584E1,-7.486147881E-1,6.252201200E-1,-8.843795061E-1
1.465189584E1,-6.453786492E-1,7.980948091E-1,-7.463240623E-1
1.466189584E1,-6.453786492E-1,7.980948091E-1,-7.463240623E-1
1.467189584E1,-6.453786492E-1,7.980948091E-1,-7.463240623E-1
1.468189584E1,-9.865466505E-2,9.141591191E-1,-5.849030241E-2
1.469189584E1,2.290742844E-2,7.846558094E-1,2.641990222E-2
1.470189584E1,1.395826042E-1,6.288852692E-1,6.979130208E-2
1.471189584E1,2.831358314E-1,5.079340935E-1,9.789107740E-2
1.472189584E1,4.505127668E-1,4.676169753E-1,1.430950761E-1
1.473189584E1,4.505127668E-1,4.676169753E-1,1.430950761E-1
1.474189584E1,6.197223067E-1,2.544251680E-1,3.116937578E-1
1.475189584E1,5.396990180E-1,5.222893879E-2,2.927569449E-1
1.476189584E1,4.083631039E-1,-1.896735132E-1,2.157879770E-1
1.477189584E1,2.855792940E-1,-3.827067912E-1,1.107192412E-1
1.478189584E1,2.611446977E-1,-4.468475878E-1,1.481347065E-2
1.479189584E1,3.564395905E-1,-3.924806118E-1,-3.955349326E-2
1.480189584E1,8.048143387E-1,-3.207040206E-2,8.261945844E-2
1.481189584E1,8.048143387E-1,-3.207040206E-2,8.261945844E-2
1.482189584E1,1.302669168E0,3.937023580E-1,4.515817761E-1
1.483189584E1,1.484095931E0,5.250383019E-1,6.366738081E-1
1.484189584E1,1.593440771E0,5.910117030E-1,7.716749310E-1
1.485189584E1,1.613599300E0,5.897899270E-1,8.382592201E-1
1.486189584E1,1.536630392E0,5.207622051E-1,8.327614069E-1
1.487189584E1,1.138346553E0,3.222311735E-1,6.305651665E-1
1.488189584E1,8.622356653E-1,2.391535640E-1,4.607447684E-1
1.489189584E1,5.653553605E-1,1.689041108E-1,2.701549530E-1
1.490189584E1,2.886336148E-1,1.169806048E-1,7.467821985E-2
1.491189584E1,6.627883017E-2,6.261363626E-2,-1.116355360E-1
1.492189584E1,-7.116574794E-2,1.252272818E-2,-2.710712552E-1
1.493189584E1,-1.157588735E-1,-3.359756200E-3,-3.853029609E-1
1.494189584E1,3.970621154E-3,7.971785218E-2,-4.885390997E-1
1.495189584E1,1.139262840E-1,1.365282834E-1,-4.946477413E-1
1.496189584E1,2.141081095E-1,1.621845961E-1,-4.818195999E-1
1.497189584E1,2.788597643E-1,1.511890292E-1,-4.543306828E-1
1.498189584E1,2.788597643E-1,1.511890292E-1,-4.543306828E-1
1.499189584E1,3.484983444E-1,1.200349256E-1,-3.547597229E-1
1.500189584E1,3.558287323E-1,1.224783882E-1,-3.138317764E-1
1.501189584E1,3.558287323E-1,1.224783882E-1,-3.138317764E-1
1.502189584E1,3.558287323E-1,1.224783882E-1,-3.138317764E-1
1.503189584E1,3.558287323E-1,1.224783882E-1,-3.138317764E-1
1.504189584E1,3.558287323E-1,1.224783882E-1,-3.138317764E-1
1.505189584E1,9.987638891E-2,1.976147592E-1,-5.299251899E-2
1.506189584E1,9.498947114E-2,1.634063274E-1,-3.588830680E-2
1.507189584E1,8.277218044E-2,1.432477981E-1,-3.955349326E-2
1.508189584E1,8.277218044E-2,1.432477981E-1,-3.955349326E-2
1.509189584E1,8.277218044E-2,1.432477981E-1,-3.955349326E-2
1.510189584E1,8.277218044E-2,1.432477981E-1,-3.955349326E-2
1.511189584E1,7.360920310E-2,3.619373739E-1,8.078686893E-2
1.512189584E1,1.230892539E-1,3.546070158E-1,1.589775532E-1
1.513189584E1,1.811214089E-1,2.782489061E-1,2.249509543E-1
1.514189584E1,2.379318327E-1,1.316413581E-1,2.512181401E-1
1.515189584E1,2.379318327E-1,1.316413581E-1,2.512181401E-1
1.516189584E1,2.379318327E-1,1.316413581E-1,2.512181401E-1
1.517189584E1,2.379318327E-1,1.316413581E-1,2.512181401E-1
1.518189584E1,2.379318327E-1,1.316413581E-1,2.512181401E-1
1.519189584E1,9.010255337E-2,-3.723220825E-1,-2.234237939E-1
1.520189584E1,-1.069013402E-2,-3.173442483E-1,-2.289215773E-1
1.521189584E1,-1.047633067E-1,-2.495382577E-1,-2.105956376E-1
1.522189584E1,-1.047633067E-1,-2.495382577E-1,-2.105956376E-1
1.523189584E1,-1.047633067E-1,-2.495382577E-1,-2.105956376E-1
1.524189584E1,-5.061014891E-1,-1.291978955E-1,-2.276998460E-1
1.525189584E1,-5.653553605E-1,-1.261435747E-1,-2.490801066E-1
1.526189584E1,-5.537489057E-1,-1.059850380E-1,-2.533561587E-1
1.527189584E1,-4.822777510E-1,-6.872228533E-2,-2.594648004E-1
1.528189584E1,-4.071413875E-1,-4.306596518E-2,-2.857320011E-1
1.529189584E1,-4.071413875E-1,-4.306596518E-2,-2.857320011E-1
1.530189584E1,-5.635227561E-1,-3.039052188E-1,-4.873173833E-1
1.531189584E1,-7.009673119E-1,-4.138608873E-1,-5.758927464E-1
1.532189584E1,-8.017600179E-1,-4.541779757E-1,-6.424770355E-1
1.533189584E1,-8.261946440E-1,-4.114174247E-1,-6.589703560E-1
1.534189584E1,-7.559451461E-1,-2.709185183E-1,-6.052142978E-1
1.535189584E1,-5.916225314E-1,-5.161807314E-2,-4.708240330E-1
1.536189584E1,-7.360920310E-2,3.338375986E-1,-2.367101051E-2
1.537189584E1,2.000582218E-1,3.790415823E-1,2.286161482E-1
1.538189584E1,4.303542376E-1,2.739728391E-1,4.546361268E-1
1.539189584E1,5.995637774E-1,5.589412898E-2,6.128500700E-1
1.540189584E1,6.985238791E-1,-2.226602137E-1,6.763800383E-1
1.541189584E1,7.180715203E-1,-5.366446972E-1,6.409498453E-1
1.542189584E1,6.710349321E-1,-8.341358304E-1,5.273290277E-1
1.543189584E1,6.710349321E-1,-8.341358304E-1,5.273290277E-1
1.544189584E1,4.242455959E-1,-1.132848740E0,3.863719851E-2
1.545189584E1,3.594939113E-1,-1.047327638E0,-1.262962967E-1
1.546189584E1,2.977965772E-1,-9.178243279E-1,-2.796233594E-1
1.547189584E1,2.312123179E-1,-7.706059217E-1,-4.115701318E-1
1.548189584E1,1.530216336E-1,-6.123919487E-1,-5.135845542E-1
1.549189584E1,6.322450191E-2,-4.535670877E-1,-5.844448805E-1
1.550189584E1,-1.554650813E-1,-2.409861535E-1,-6.608029604E-1
1.551189584E1,-2.617555559E-1,-1.634063274E-1,-6.711876988E-1
1.552189584E1,-3.478874862E-1,-8.826996386E-2,-6.736311316E-1
1.553189584E1,-4.114174247E-1,-4.428769648E-2,-6.748528481E-1
1.554189584E1,-4.572322965E-1,-3.084867075E-2,-6.772963405E-1
1.555189584E1,-4.810560048E-1,-2.535088919E-2,-6.907353401E-1
1.556189584E1,-4.792234302E-1,-7.024944760E-3,-7.188351154E-1
1.557189584E1,-4.340194166E-1,4.673115537E-2,-7.927497625E-1
1.558189584E1,-4.199695289E-1,5.894844979E-2,-8.306233883E-1
1.559189584E1,-4.144717455E-1,4.612028971E-2,-8.666644096E-1
1.560189584E1,-4.144717455E-1,4.612028971E-2,-8.666644096E-1
1.561189584E1,-4.144717455E-1,4.612028971E-2,-8.666644096E-1
1.562189584E1,-4.340194166E-1,-1.133154184E-1,-9.222530723E-1
1.563189584E1,-4.706713259E-1,-2.104429156E-1,-9.118683934E-1
1.564189584E1,-4.706713259E-1,-2.104429156E-1,-9.118683934E-1
1.565189584E1,-4.706713259E-1,-2.104429156E-1,-9.118683934E-1
1.566189584E1,-4.706713259E-1,-2.104429156E-1,-9.118683934E-1
1.567189584E1,-4.706713259E-1,-2.104429156E-1,-9.118683934E-1
1.568189584E1,-4.816668928E-1,-6.026180983E-1,-9.918916821E-1
1.569189584E1,-4.199695289E-1,-5.439751148E-1,-1.049312949E0
1.570189584E1,-3.662134409E-1,-4.718930423E-1,-1.096349597E0
1.571189584E1,-3.662134409E-1,-4.718930423E-1,-1.096349597E0
1.572189584E1,-3.662134409E-1,-4.718930423E-1,-1.096349597E0
1.573189584E1,-3.662134409E-1,-4.718930423E-1,-1.096349597E0
1.574189584E1,-1.585194170E-1,4.944950342E-1,-7.744238377E-1
1.575189584E1,-1.976147592E-1,6.276635528E-1,-6.412553191E-1
1.576189584E1,-2.336557806E-1,7.266236544E-1,-5.367974043E-1
1.577189584E1,-2.538143098E-1,7.614429593E-1,-4.500546157E-1
1.578189584E1,-2.538143098E-1,7.614429593E-1,-4.500546157E-1
1.579189584E1,-2.538143098E-1,7.614429593E-1,-4.500546157E-1
1.580189584E1,-1.249218509E-1,3.381136656E-1,-2.704603672E-1
1.581189584E1,-3.512472659E-2,2.727511227E-1,-2.515235841E-1
1.582189584E1,5.283980444E-2,2.574795187E-1,-2.057087123E-1
1.583189584E1,9.682206810E-2,2.562577724E-1,-1.372918636E-1
1.584189584E1,6.933315098E-2,2.141081095E-1,-7.254019380E-2
1.585189584E1,6.933315098E-2,2.141081095E-1,-7.254019380E-2
1.586189584E1,-3.411679864E-1,-3.979783952E-1,-1.110246703E-1
1.587189584E1,-3.686569035E-1,-5.775726438E-1,-1.745546162E-1
1.588189584E1,-2.770271897E-1,-6.392700076E-1,-2.228129357E-1
1.589189584E1,-1.035415828E-1,-5.787943602E-1,-2.411388755E-1
1.590189584E1,1.114828214E-1,-4.334085584E-1,-2.179260105E-1
1.591189584E1,3.307832778E-1,-2.306014597E-1,-1.562286615E-1
1.592189584E1,3.307832778E-1,-2.306014597E-1,-1.562286615E-1
1.593189584E1,6.911935210E-1,3.484983444E-1,1.217148080E-1
1.594189584E1,6.685914993E-1,4.584540129E-1,1.565341055E-1
1.595189584E1,5.818486810E-1,5.140427351E-1,1.412624866E-1
1.596189584E1,4.529562294E-1,5.280926228E-1,8.567378670E-2
1.597189584E1,2.831358314E-1,4.920515716E-1,1.985310577E-3
1.598189584E1,8.888082206E-2,4.248564541E-1,-9.147699922E-2
1.599189584E1,8.888082206E-2,4.248564541E-1,-9.147699922E-2
1.600189584E1,-3.301724195E-1,1.090393662E-1,-3.736965358E-1
1.601189584E1,-3.497200906E-1,9.468403645E-3,-4.384481907E-1
1.602189584E1,-3.020726442E-1,-7.238747925E-2,-4.683805704E-1
1.603189584E1,-1.963930279E-1,-1.377500147E-1,-4.549415410E-1
1.604189584E1,-4.428769648E-2,-1.689041108E-1,-4.030180275E-1
1.605189584E1,1.340848207E-1,-1.585194170E-1,-3.150535226E-1
1.606189584E1,4.761691093E-1,-7.727439702E-2,-7.559451461E-2
1.607189584E1,5.806269646E-1,-5.711585656E-2,3.069595434E-2
1.608189584E1,6.185005903E-1,-6.383536756E-2,1.015562713E-1
1.609189584E1,6.081159115E-1,-8.399390429E-2,1.363755614E-1
1.610189584E1,5.720748901E-1,-1.053741723E-1,1.406516135E-1
1.611189584E1,5.213730931E-1,-1.334739476E-1,1.229365394E-1
1.612189584E1,4.645626545E-1,-1.542433500E-1,9.789107740E-2
1.613189584E1,3.674351573E-1,-1.072067693E-1,9.178243577E-2
1.614189584E1,3.081812859E-1,-7.238747925E-2,1.039997265E-1
1.615189584E1,2.312123179E-1,-4.184423760E-2,1.131627038E-1
1.616189584E1,1.444695145E-1,-3.817904741E-2,1.186604798E-1
1.617189584E1,1.444695145E-1,-3.817904741E-2,1.186604798E-1
1.618189584E1,-1.802051067E-2,-1.609628648E-1,1.033888608E-1
1.619189584E1,-7.727439702E-2,-2.568686306E-1,1.021671370E-1
1.620189584E1,-7.727439702E-2,-2.568686306E-1,1.021671370E-1
1.621189584E1,-7.727439702E-2,-2.568686306E-1,1.021671370E-1
1.622189584E1,-7.727439702E-2,-2.568686306E-1,1.021671370E-1
1.623189584E1,-7.727439702E-2,-2.568686306E-1,1.021671370E-1
1.624189584E1,-1.078176349E-1,-8.390227556E-1,3.123046160E-1
1.625189584E1,-1.120936871E-1,-9.190460443E-1,3.080285788E-1
1.626189584E1,-1.102610901E-1,-9.740238786E-1,2.860374451E-1
1.627189584E1,-1.102610901E-1,-9.740238786E-1,2.860374451E-1
1.628189584E1,-1.102610901E-1,-9.740238786E-1,2.860374451E-1
1.629189584E1,-1.102610901E-1,-9.740238786E-1,2.860374451E-1
1.630189584E1,-6.811141968E-2,-8.512400985E-1,2.909243405E-1
1.631189584E1,-1.212566569E-1,-7.840449214E-1,3.080285788E-1
1.632189584E1,-2.006690800E-1,-6.918043494E-1,3.006981909E-1
1.633189584E1,-2.837466896E-1,-5.885682106E-1,2.664897740E-1
1.634189584E1,-2.837466896E-1,-5.885682106E-1,2.664897740E-1
1.635189584E1,-2.837466896E-1,-5.885682106E-1,2.664897740E-1
1.636189584E1,-2.837466896E-1,-5.885682106E-1,2.664897740E-1
1.637189584E1,-2.544251680E-1,9.132428467E-2,2.194531709E-1
1.638189584E1,-2.299905866E-1,1.499672979E-1,2.805396616E-1
1.639189584E1,-2.519817352E-1,9.376774728E-2,3.141372204E-1
1.640189584E1,-3.240637779E-1,-5.894844979E-2,2.958112657E-1
1.641189584E1,-3.240637779E-1,-5.894844979E-2,2.958112657E-1
1.642189584E1,-6.808087826E-1,-7.504473925E-1,-1.311832070E-1
1.643189584E1,-7.205150127E-1,-9.257655740E-1,-3.113883138E-1
1.644189584E1,-6.484329700E-1,-9.917389750E-1,-4.524980783E-1
1.645189584E1,-4.773908257E-1,-9.361502528E-1,-5.392408967E-1
1.646189584E1,-2.348775119E-1,-7.412844300E-1,-5.508472919E-1
1.647189584E1,2.901607752E-2,-4.505127668E-1,-4.836521745E-1
1.648189584E1,2.901607752E-2,-4.505127668E-1,-4.836521745E-1
1.649189584E1,4.822777510E-1,3.539961278E-1,-4.993819445E-2
1.650189584E1,4.444041252E-1,4.499019086E-1,2.275471389E-2
1.651189584E1,3.320049942E-1,4.419606626E-1,2.336557768E-2
1.652189584E1,2.067777216E-1,3.814850450E-1,-2.916879393E-2
1.653189584E1,1.401934624E-1,3.326158822E-1,-1.159115955E-1
1.654189584E1,1.731801629E-1,3.411679864E-1,-2.173151523E-1
1.655189584E1,1.731801629E-1,3.411679864E-1,-2.173151523E-1
1.656189584E1,5.128209591E-1,6.496546865E-1,-4.891499579E-1
1.657189584E1,5.500837564E-1,7.009673119E-1,-5.380191803E-1
1.658189584E1,5.360338688E-1,7.211259007E-1,-5.551233888E-1
1.659189584E1,4.859429300E-1,7.302888632E-1,-5.459604263E-1
1.660189584E1,4.163043499E-1,7.144063711E-1,-5.166388750E-1
1.661189584E1,3.362810612E-1,6.624828577E-1,-4.732674956E-1
1.662189584E1,2.269362658E-1,5.201513767E-1,-3.559814394E-1
1.663189584E1,2.043342739E-1,4.407389462E-1,-2.838993967E-1
1.664189584E1,1.933387071E-1,3.601047993E-1,-1.989891976E-1
1.665189584E1,1.811214089E-1,2.770271897E-1,-1.018617004E-1
1.666189584E1,1.627954692E-1,1.878409237E-1,-2.290742937E-3
1.667189584E1,1.353065521E-1,9.254601598E-2,8.384118974E-2
1.668189584E1,1.029307172E-1,-5.803215317E-3,1.467602700E-1
1.669189584E1,4.306596518E-2,-1.536324918E-1,1.821904182E-1
1.670189584E1,-1.007926930E-2,-2.147189677E-1,1.504254490E-1
1.671189584E1,-1.007926930E-2,-2.147189677E-1,1.504254490E-1
1.672189584E1,-1.695149690E-1,-3.112356067E-1,5.268708616E-2
1.673189584E1,-2.715294063E-1,-3.368919194E-1,-1.450803876E-2
1.674189584E1,-3.790415823E-1,-3.301724195E-1,-9.514218569E-2
1.675189584E1,-4.841103256E-1,-3.051269650E-1,-1.721111536E-1
1.676189584E1,-6.441569328E-1,-3.124573231E-1,-2.722929716E-1
1.677189584E1,-6.685914993E-1,-3.142899275E-1,-2.869537175E-1
1.678189584E1,-6.551524997E-1,-2.922987938E-1,-2.759581506E-1
1.679189584E1,-6.105593443E-1,-2.501491308E-1,-2.435823381E-1
1.680189584E1,-5.464185476E-1,-1.963930279E-1,-1.965457499E-1
1.681189584E1,-4.663952589E-1,-1.047633067E-1,-1.446222365E-1
1.682189584E1,-3.637699783E-1,3.451386094E-2,-9.086613357E-2
1.683189584E1,-1.658497900E-1,3.381136656E-1,2.764163166E-2
1.684189584E1,-1.389717311E-1,4.022544622E-1,9.789107740E-2
1.685189584E1,-1.682932526E-1,3.820959330E-1,1.766926348E-1
1.686189584E1,-2.226602137E-1,3.191768527E-1,2.567159235E-1
1.687189584E1,-2.715294063E-1,2.648098767E-1,3.318522871E-1
1.688189584E1,-3.008508980E-1,2.409861535E-1,4.014908671E-1
1.689189584E1,-3.057378232E-1,2.312123179E-1,4.668534100E-1
1.690189584E1,-2.434296161E-1,1.774562150E-1,5.444332361E-1
1.691189584E1,-1.579085439E-1,1.652389169E-1,5.456549525E-1
1.692189584E1,-1.579085439E-1,1.652389169E-1,5.456549525E-1
1.693189584E1,-1.579085439E-1,1.652389169E-1,5.456549525E-1
1.694189584E1,1.652389169E-1,5.079340935E-1,5.090031028E-1
1.695189584E1,1.792888194E-1,6.233875155E-1,4.937314689E-1
1.696189584E1,8.888082206E-2,5.958985686E-1,4.320341051E-1
1.697189584E1,-2.501491308E-1,8.093958348E-2,1.003345400E-1
1.698189584E1,-2.971857190E-1,-1.786779463E-1,-9.880737960E-2
1.699189584E1,-2.360992432E-1,-3.136790693E-1,-2.460257858E-1
1.700189584E1,-9.376774728E-2,-3.142899275E-1,-3.010036349E-1
1.701189584E1,1.261435747E-1,-1.719584316E-1,-2.448040545E-1
1.702189584E1,4.126391709E-1,8.582650125E-2,-8.597921580E-2
1.703189584E1,7.302888632E-1,3.778198659E-1,1.516471803E-1
1.704189584E1,1.240971804E0,7.974839807E-1,7.203623056E-1
1.705189584E1,1.369864225E0,8.817833066E-1,9.659299254E-1
1.706189584E1,1.414457440E0,8.927788734E-1,1.141858935E0
1.707189584E1,1.383914113E0,8.512400985E-1,1.239597321E0
1.708189584E1,1.280067086E0,7.681624889E-1,1.259755850E0
1.709189584E1,1.112079382E0,6.466003656E-1,1.215162754E0
1.710189584E1,9.025527239E-1,5.103775263E-1,1.124143958E0
1.711189584E1,9.025527239E-1,5.103775263E-1,1.124143958E0
1.712189584E1,9.025527239E-1,5.103775263E-1,1.124143958E0
1.713189584E1,9.025527239E-1,5.103775263E-1,1.124143958E0
1.714189584E1,9.025527239E-1,5.103775263E-1,1.124143958E0
1.715189584E1,3.717112243E-1,6.139190868E-2,3.843866587E-1
1.716189584E1,4.865537882E-1,1.169806048E-1,3.068068326E-1
1.717189584E1,5.885682106E-1,1.970038861E-1,2.780961990E-1
1.718189584E1,5.885682106E-1,1.970038861E-1,2.780961990E-1
1.719189584E1,5.885682106E-1,1.970038861E-1,2.780961990E-1
1.720189584E1,5.885682106E-1,1.970038861E-1,2.780961990E-1
1.721189584E1,5.885682106E-1,1.970038861E-1,2.780961990E-1
1.722189584E1,7.223476171E-1,5.335903764E-1,6.458367705E-1
1.723189584E1,7.150171995E-1,4.865537882E-1,6.776017547E-1
1.724189584E1,6.930260658E-1,4.010327160E-1,6.739365458E-1
1.725189584E1,6.930260658E-1,4.010327160E-1,6.739365458E-1
1.726189584E1,6.930260658E-1,4.010327160E-1,6.739365458E-1
1.727189584E1,4.523453712E-1,4.062250629E-2,4.173733592E-1
1.728189584E1,3.668242991E-1,-6.017018110E-2,3.300196826E-1
1.729189584E1,2.965748608E-1,-2.025016695E-1,2.451094985E-1
1.730189584E1,2.855792940E-1,-4.291325212E-1,1.748600453E-1
1.731189584E1,3.674351573E-1,-7.394518256E-1,1.217148080E-1
1.732189584E1,3.674351573E-1,-7.394518256E-1,1.217148080E-1
1.733189584E1,8.182533979E-1,-1.583056092E0,-5.955931731E-3
1.734189584E1,8.219185472E-1,-1.771202445E0,-1.450803876E-2
1.735189584E1,7.235693336E-1,-1.864053845E0,-2.428187430E-2
1.736189584E1,5.574141145E-1,-1.801134825E0,-3.466657549E-2
1.737189584E1,3.546070158E-1,-1.598327637E0,-3.405570984E-2
1.738189584E1,1.438586563E-1,-1.296560526E0,-1.389717404E-2
1.739189584E1,1.438586563E-1,-1.296560526E0,-1.389717404E-2
1.740189584E1,-3.124573231E-1,-1.976147592E-1,1.919642538E-1
1.741189584E1,-3.998109996E-1,7.238747925E-2,2.805396616E-1
1.742189584E1,-4.859429300E-1,2.440404743E-1,3.532325625E-1
1.743189584E1,-5.806269646E-1,3.295615613E-1,3.892735839E-1
1.744189584E1,-6.679806113E-1,3.711003661E-1,3.788888752E-1
1.745189584E1,-7.308996916E-1,3.857611120E-1,3.342957497E-1
1.746189584E1,-7.223476171E-1,4.016436040E-1,2.255618125E-1
1.747189584E1,-6.429351568E-1,4.541779757E-1,2.096793354E-1
1.748189584E1,-5.568032265E-1,5.073232055E-1,2.261726856E-1
1.749189584E1,-5.115992427E-1,4.773908257E-1,2.487746775E-1
1.750189584E1,-5.366446972E-1,3.265072107E-1,2.341139317E-1
1.751189584E1,-6.313287616E-1,1.004872546E-1,1.559232324E-1
1.752189584E1,-7.638863921E-1,-1.182023361E-1,3.207040019E-3
1.753189584E1,-7.638863921E-1,-1.182023361E-1,3.207040019E-3
1.754189584E1,-1.003956318E0,-3.258963525E-1,-5.966621637E-1
1.755189584E1,-9.575305581E-1,-2.287688553E-1,-6.974548697E-1
1.756189584E1,-8.475748897E-1,-7.360920310E-2,-7.261655331E-1
1.757189584E1,-6.869174242E-1,9.987638891E-2,-6.919570565E-1
1.758189584E1,-5.030471683E-1,2.513708472E-1,-6.113229394E-1
1.759189584E1,-3.222311735E-1,3.356702030E-1,-5.019781590E-1
1.760189584E1,-2.290742844E-2,2.904661894E-1,-2.790125012E-1
1.761189584E1,8.826996386E-2,1.805105358E-1,-1.983783394E-1
1.762189584E1,1.621845961E-1,2.229656465E-2,-1.537852138E-1
1.763189584E1,1.847866029E-1,-1.371391416E-1,-1.397353113E-1
1.764189584E1,1.750127524E-1,-2.440404743E-1,-1.421787739E-1
1.765189584E1,1.530216336E-1,-2.916879356E-1,-1.598938555E-1
1.766189584E1,1.224783882E-1,-2.733619809E-1,-1.916588247E-1
1.767189584E1,2.229656465E-2,-9.437860548E-2,-2.649625838E-1
1.768189584E1,-3.940077871E-2,1.679878123E-2,-2.961167097E-1
1.769189584E1,-9.193515033E-2,1.322522312E-1,-3.242164850E-1
1.770189584E1,-1.267544478E-1,2.501491308E-1,-3.486510813E-1
1.771189584E1,-1.548542231E-1,3.417788446E-1,-3.694204688E-1
1.772189584E1,-1.786779463E-1,3.992001414E-1,-3.926333487E-1
1.773189584E1,-1.786779463E-1,3.992001414E-1,-3.926333487E-1
1.774189584E1,-1.786779463E-1,3.992001414E-1,-3.926333487E-1
1.775189584E1,-1.786779463E-1,3.992001414E-1,-3.926333487E-1
1.776189584E1,-1.786779463E-1,3.992001414E-1,-3.926333487E-1
1.777189584E1,-1.786779463E-1,3.992001414E-1,-3.926333487E-1
1.778189584E1,-3.246746361E-1,1.621845961E-1,-4.909825623E-1
1.779189584E1,-3.423897028E-1,9.132428467E-2,-4.805978537E-1
1.780189584E1,-3.350593448E-1,4.550942779E-2,-4.677697122E-1
1.781189584E1,-3.350593448E-1,4.550942779E-2,-4.677697122E-1
1.782189584E1,-3.350593448E-1,4.550942779E-2,-4.677697122E-1
1.783189584E1,-2.843575478E-1,-1.884517819E-1,-5.172497630E-1
1.784189584E1,-3.075704277E-1,-2.648098767E-1,-6.180424690E-1
1.785189584E1,-3.472766280E-1,-3.283398151E-1,-7.328850031E-1
1.786189584E1,-4.004218578E-1,-3.741546869E-1,-8.312342763E-1
1.787189584E1,-4.633409381E-1,-3.796524704E-1,-8.965967894E-1
1.788189584E1,-4.633409381E-1,-3.796524704E-1,-8.965967894E-1
1.789189584E1,-4.633409381E-1,-3.796524704E-1,-8.965967894E-1
1.790189584E1,-5.830704570E-1,-5.955931544E-2,-7.744238377E-1
1.791189584E1,-5.036579967E-1,8.949168772E-2,-7.194460034E-1
1.792189584E1,-3.888154328E-1,2.495382577E-1,-6.736311316E-1
1.793189584E1,-2.739728391E-1,4.077522457E-1,-6.253728271E-1
1.794189584E1,-1.872300506E-1,5.433642268E-1,-5.636754632E-1
1.795189584E1,-1.872300506E-1,5.433642268E-1,-5.636754632E-1
1.796189584E1,-1.133154184E-1,6.606502533E-1,-2.973384261E-1
1.797189584E1,-9.254601598E-2,6.496546865E-1,-2.185368687E-1
1.798189584E1,-6.505709887E-2,6.209440231E-1,-1.550069451E-1
1.799189584E1,-3.634645417E-2,5.696313977E-1,-1.043051630E-1
1.800189584E1,-5.192350596E-3,5.225948095E-1,-5.665770918E-2
1.801189584E1,2.962694131E-2,5.146535635E-1,-2.901607659E-3
1.802189584E1,9.437860548E-2,6.704241037E-1,1.180496216E-1
1.803189584E1,7.971785218E-2,7.644972801E-1,1.773035079E-1
1.804189584E1,2.748891478E-3,8.029817343E-1,2.280052751E-1
1.805189584E1,-1.841757298E-1,7.095194459E-1,2.518289983E-1
1.806189584E1,-4.816668928E-1,4.095848203E-1,2.115119249E-1
1.807189584E1,-7.638863921E-1,-1.557705179E-2,9.178243577E-2
1.808189584E1,-8.744529486E-1,-3.692677617E-1,-7.498364896E-2
1.809189584E1,-5.170970559E-1,-6.973021626E-1,-3.675878942E-1
1.810189584E1,-1.401934624E-1,-6.826413870E-1,-4.421133697E-1
1.811189584E1,2.709185183E-1,-5.494728684E-1,-4.457785785E-1
1.812189584E1,6.325504780E-1,-3.472766280E-1,-3.688096106E-1
1.813189584E1,8.946114779E-1,-1.310304999E-1,-2.160934210E-1
1.814189584E1,1.049771070E0,1.010981202E-1,2.596175298E-3
1.815189584E1,1.105359793E0,3.155116439E-1,2.597702444E-1
1.816189584E1,1.030223489E0,5.775726438E-1,7.057015300E-1
1.817189584E1,9.159917235E-1,5.684096813E-1,8.370374441E-1
1.818189584E1,7.913753390E-1,5.268708467E-1,8.938478827E-1
1.819189584E1,6.655371785E-1,4.187478125E-1,8.773545623E-1
1.820189584E1,5.543597937E-1,2.641990185E-1,7.954986691E-1
1.821189584E1,4.688387215E-1,9.010255337E-2,6.794343591E-1
1.822189584E1,4.138608873E-1,-8.521563560E-2,5.511527658E-1
1.823189584E1,3.802633286E-1,-3.277289569E-1,2.884808779E-1
1.824189584E1,3.894262910E-1,-3.503309488E-1,1.797469556E-1
1.825189584E1,3.967566788E-1,-3.075704277E-1,1.058323234E-1
1.826189584E1,3.857611120E-1,-2.281579971E-1,6.062832847E-2
1.827189584E1,3.478874862E-1,-1.353065521E-1,3.924806044E-2
1.828189584E1,2.947422564E-1,-3.940077871E-2,4.291325063E-2
1.829189584E1,2.446513474E-1,3.878991306E-2,5.940660089E-2
1.830189584E1,2.006690800E-1,1.291978955E-1,7.406735420E-2
1.831189584E1,2.165515572E-1,1.634063274E-1,7.101303339E-2
1.832189584E1,2.422078848E-1,1.866191924E-1,7.101303339E-2
1.833189584E1,2.666424811E-1,2.049451321E-1,7.834340632E-2
1.834189584E1,2.794706225E-1,2.104429156E-1,9.483675659E-2
1.835189584E1,2.733619809E-1,1.951712966E-1,1.162170246E-1
1.836189584E1,2.452622056E-1,1.597411335E-1,1.418733448E-1
1.837189584E1,2.452622056E-1,1.597411335E-1,1.418733448E-1
1.838189584E1,2.452622056E-1,1.597411335E-1,1.418733448E-1
1.839189584E1,2.452622056E-1,1.597411335E-1,1.418733448E-1
1.840189584E1,2.452622056E-1,1.597411335E-1,1.418733448E-1
1.841189584E1,1.069013402E-2,-2.031125426E-1,1.076649204E-1
1.842189584E1,-6.750056148E-2,-2.641990185E-1,4.413498193E-2
1.843189584E1,-1.493564397E-1,-3.057378232E-1,-2.916879393E-2
1.844189584E1,-1.493564397E-1,-3.057378232E-1,-2.916879393E-2
1.845189584E1,-1.493564397E-1,-3.057378232E-1,-2.916879393E-2
1.846189584E1,-1.493564397E-1,-3.057378232E-1,-2.916879393E-2
1.847189584E1,-6.313287616E-1,-3.118464649E-1,-3.791943192E-1
1.848189584E1,-7.223476171E-1,-2.489273995E-1,-4.011854529E-1
1.849189584E1,-7.944296598E-1,-1.756236255E-1,-4.017963111E-1
1.850189584E1,-8.469640017E-1,-1.065959036E-1,-3.895790279E-1
1.851189584E1,-8.469640017E-1,-1.065959036E-1,-3.895790279E-1
1.852189584E1,-8.469640017E-1,-1.065959036E-1,-3.895790279E-1
1.853189584E1,-8.860593438E-1,-1.670715213E-1,-2.551887631E-1
1.854189584E1,-8.530726433E-1,-2.568686306E-1,-2.160934210E-1
1.855189584E1,-7.974839807E-1,-3.283398151E-1,-1.818849891E-1
1.856189584E1,-7.150171995E-1,-3.454440236E-1,-1.458439678E-1
1.857189584E1,-6.099484563E-1,-2.874118686E-1,-9.941824526E-2
1.858189584E1,-6.099484563E-1,-2.874118686E-1,-9.941824526E-2
1.859189584E1,-6.099484563E-1,-2.874118686E-1,-9.941824526E-2
1.860189584E1,-5.995637774E-1,-3.332267404E-1,-1.427896470E-1
1.861189584E1,-6.985238791E-1,-5.262600183E-1,-2.539670467E-1
1.862189584E1,-7.816014886E-1,-6.997455955E-1,-4.091266990E-1
1.863189584E1,-7.980948091E-1,-7.822123766E-1,-5.844448805E-1
1.864189584E1,-7.290670872E-1,-7.412844300E-1,-7.249437571E-1
1.865189584E1,-3.393353820E-1,-3.601047993E-1,-7.872520089E-1
1.865189584E1,-3.393353820E-1,-3.601047993E-1,-7.872520089E-1
1.867189584E1,2.037234008E-1,1.438586563E-1,-5.404626131E-1
1.868189584E1,4.242455959E-1,2.813032269E-1,-3.608683646E-1
1.869189584E1,5.708531141E-1,2.965748608E-1,-1.873827726E-1
1.870189584E1,6.514872909E-1,2.220493406E-1,-5.360338464E-2
1.871189584E1,6.887500286E-1,1.047633067E-1,1.847865991E-2
1.872189584E1,6.887500286E-1,1.047633067E-1,1.847865991E-2
1.873189584E1,7.027999163E-1,-1.866191924E-1,-7.925970852E-2
1.874189584E1,7.027999163E-1,-1.866191924E-1,-7.925970852E-2
1.875189584E1,6.630937457E-1,-1.304196268E-1,-2.759581506E-1
1.876189584E1,5.928442478E-1,-6.505709887E-2,-3.834703565E-1
1.877189584E1,4.993819594E-1,2.168569900E-2,-4.830413163E-1
1.878189584E1,3.930914998E-1,1.072067693E-1,-5.667297840E-1
1.879189584E1,3.930914998E-1,1.072067693E-1,-5.667297840E-1
1.880189584E1,1.212566569E-1,3.356702030E-1,-6.681333780E-1
1.881189584E1,8.032871783E-2,3.973675370E-1,-6.449204683E-1
1.882189584E1,6.383536756E-2,4.193586707E-1,-5.978838801E-1
1.883189584E1,6.505709887E-2,3.759872615E-1,-5.288561583E-1
1.884189584E1,7.666353136E-2,2.910770774E-1,-4.476111531E-1
1.885189584E1,1.004872546E-1,1.915061027E-1,-3.627009690E-1
1.886189584E1,1.169806048E-1,-4.734202102E-2,-2.325867712E-1
1.887189584E1,8.765909821E-2,-1.536324918E-1,-2.093739063E-1
1.888189584E1,4.734202102E-2,-2.220493406E-1,-2.209803313E-1
1.889189584E1,1.527161920E-3,-2.495382577E-1,-2.606865466E-1
1.890189584E1,-5.650499091E-2,-2.428187430E-1,-3.150535226E-1
1.891189584E1,-5.650499091E-2,-2.428187430E-1,-3.150535226E-1
1.892189584E1,-2.037234008E-1,-1.762344837E-1,-4.011854529E-1
1.893189584E1,-2.037234008E-1,-1.762344837E-1,-4.011854529E-1
1.894189584E1,-2.037234008E-1,-1.762344837E-1,-4.011854529E-1
1.895189584E1,-2.037234008E-1,-1.762344837E-1,-4.011854529E-1
1.896189584E1,-6.569850445E-1,-3.845393658E-1,-4.665479660E-1
1.897189584E1,-6.991347671E-1,-4.309650958E-1,-4.738783538E-1
1.898189584E1,-7.223476171E-1,-4.547888339E-1,-4.757109582E-1
1.899189584E1,-7.156280875E-1,-4.334085584E-1,-4.732674956E-1
1.900189584E1,-7.156280875E-1,-4.334085584E-1,-4.732674956E-1
1.901189584E1,-7.156280875E-1,-4.334085584E-1,-4.732674956E-1
1.902189584E1,-7.156280875E-1,-4.334085584E-1,-4.732674956E-1
1.903189584E1,-9.865466505E-2,4.780016840E-1,-3.572031856E-1
1.904189584E1,-6.261363626E-2,5.958985686E-1,-2.735147178E-1
1.905189584E1,-8.765909821E-2,6.331613660E-1,-1.849393100E-1
1.906189584E1,-1.346956789E-1,6.258309484E-1,-1.012508348E-1
1.907189584E1,-1.346956789E-1,6.258309484E-1,-1.012508348E-1
1.908189584E1,-1.346956789E-1,6.258309484E-1,-1.012508348E-1
1.909189584E1,-3.878991306E-2,4.682278633E-1,8.994983882E-2
1.910189584E1,5.345066637E-2,4.401280880E-1,1.357647032E-1
1.911189584E1,5.345066637E-2,4.401280880E-1,1.357647032E-1
1.912189584E1,2.611446977E-1,5.751292109E-1,2.499964088E-1
1.913189584E1,3.057378232E-1,6.649262905E-1,3.068068326E-1
1.914189584E1,8.582650125E-2,5.012145638E-1,2.890917659E-1
1.915189584E1,-1.768453568E-1,1.927278340E-1,1.803578287E-1
1.916189584E1,-3.998109996E-1,-9.926552325E-2,3.069595434E-2
1.917189584E1,-4.798342884E-1,-2.397644222E-1,-1.189659163E-1
1.918189584E1,-4.046979249E-1,-2.281579971E-1,-2.448040545E-1
1.919189584E1,-1.872300506E-1,-9.437860548E-2,-3.095557392E-1
1.920189584E1,1.389717311E-1,1.401934624E-1,-2.881754637E-1
1.921189584E1,8.060360551E-1,6.899717450E-1,-5.345067009E-3
1.922189584E1,1.003345370E0,8.298597932E-1,1.950185746E-1
1.923189584E1,1.068097115E0,8.671225309E-1,3.782780170E-1
1.924189584E1,1.020449638E0,8.188642263E-1,5.004509687E-1
1.925189584E1,8.915571570E-1,6.930260658E-1,5.364919901E-1
1.926189584E1,7.070759535E-1,5.134318471E-1,4.864010811E-1
1.927189584E1,7.070759535E-1,5.134318471E-1,4.864010811E-1
1.928189584E1,9.315688163E-2,3.817904741E-2,6.246092543E-2
1.929189584E1,-3.573558852E-2,-8.765909821E-2,-7.070759684E-2
1.930189584E1,-1.096502244E-1,-1.634063274E-1,-1.824958473E-1
1.931189584E1,-1.328630894E-1,-1.658497900E-1,-2.680169344E-1
1.932189584E1,-1.065959036E-1,-9.926552325E-2,-3.156643808E-1
1.933189584E1,-4.428769648E-2,2.657261863E-2,-3.095557392E-1
1.934189584E1,1.860083193E-1,4.010327160E-1,-1.153007299E-1
1.935189584E1,3.338375986E-1,5.732966065E-1,5.451968312E-2
1.936189584E1,4.731147587E-1,6.728675365E-1,2.280052751E-1
1.937189584E1,5.794052482E-1,6.704241037E-1,3.654498458E-1
1.938189584E1,6.392700076E-1,5.696313977E-1,4.411970973E-1
1.939189584E1,6.582068205E-1,3.961458206E-1,4.497492015E-1
1.940189584E1,6.380482912E-1,1.756236255E-1,3.923279047E-1
1.941189584E1,5.177078843E-1,-2.440404743E-1,1.583666950E-1
1.942189584E1,5.177078843E-1,-2.440404743E-1,1.583666950E-1
1.943189584E1,3.576613367E-1,-4.627300799E-1,-7.376192510E-2
1.944189584E1,2.947422564E-1,-4.553996921E-1,-1.501200199E-1
1.945189584E1,2.409861535E-1,-4.004218578E-1,-2.038761228E-1
1.946189584E1,1.817322671E-1,-3.228420317E-1,-2.454149276E-1
1.947189584E1,1.169806048E-1,-2.263254076E-1,-2.777907550E-1
1.948189584E1,-2.474002354E-2,-2.901607752E-2,-2.979492843E-1
1.949189584E1,-2.474002354E-2,-2.901607752E-2,-2.979492843E-1
1.950189584E1,-2.474002354E-2,-2.901607752E-2,-2.979492843E-1
1.951189584E1,-2.474002354E-2,-2.901607752E-2,-2.979492843E-1
1.952189584E1,-1.096502244E-1,2.748891478E-3,-2.087630332E-1
1.953189584E1,-9.010255337E-2,-5.161807314E-2,-2.050978541E-1
1.954189584E1,-8.338304609E-2,-1.389717311E-1,-2.197586000E-1
1.955189584E1,-8.338304609E-2,-1.389717311E-1,-2.197586000E-1
1.956189584E1,-8.338304609E-2,-1.389717311E-1,-2.197586000E-1
1.957189584E1,-8.338304609E-2,-1.389717311E-1,-2.197586000E-1
1.958189584E1,-8.338304609E-2,-1.389717311E-1,-2.197586000E-1
1.959189584E1,-8.338304609E-2,-1.389717311E-1,-2.197586000E-1
1.960189584E1,-1.481347084E-1,-1.853974611E-1,-2.777907550E-1
1.961189584E1,-1.627954692E-1,-1.304196268E-1,-2.209803313E-1
1.962189584E1,-1.627954692E-1,-1.304196268E-1,-2.209803313E-1
1.963189584E1,-1.627954692E-1,-1.304196268E-1,-2.209803313E-1
1.964189584E1,-1.627954692E-1,-1.304196268E-1,-2.209803313E-1
1.965189584E1,-4.199695289E-1,-3.032943606E-1,-3.236056268E-1
1.966189584E1,-4.291325212E-1,-2.703076601E-1,-3.150535226E-1
1.967189584E1,-4.566214085E-1,-2.532034516E-1,-2.936732471E-1
1.968189584E1,-5.122101307E-1,-2.813032269E-1,-2.637408674E-1
1.969189584E1,-5.122101307E-1,-2.813032269E-1,-2.637408674E-1
1.970189584E1,-5.122101307E-1,-2.813032269E-1,-2.637408674E-1
1.971189584E1,-9.324851036E-1,-1.019838691E0,-3.144426346E-1
1.972189584E1,-9.477567077E-1,-1.112079382E0,-3.785834610E-1
1.973189584E1,-8.909462690E-1,-1.083368659E0,-4.256200492E-1
1.974189584E1,-7.412844300E-1,-9.202677608E-1,-4.579958618E-1
1.975189584E1,-5.012145638E-1,-6.527090073E-1,-4.604393244E-1
1.976189584E1,-5.012145638E-1,-6.527090073E-1,-4.604393244E-1
1.977189584E1,-5.012145638E-1,-6.527090073E-1,-4.604393244E-1
1.978189584E1,4.199695289E-1,4.590648711E-1,-1.069013379E-3
1.979189584E1,4.804451466E-1,4.865537882E-1,1.382081509E-1
1.980189584E1,4.786125422E-1,4.053087831E-1,2.328922004E-1
1.981189584E1,4.346303046E-1,2.532034516E-1,2.713766694E-1
1.982189584E1,3.820959330E-1,9.376774728E-2,2.573267817E-1
1.983189584E1,2.996291816E-1,-7.360920310E-2,1.027780026E-1
1.984189584E1,2.764163017E-1,-6.200277433E-2,-9.010255337E-3
1.985189584E1,2.580903769E-1,-1.374445762E-2,-1.311832070E-1
