"Time (s)","Linear Acceleration x (m/s^2)","Linear Acceleration y (m/s^2)","Linear Acceleration z (m/s^2)"
2.529063300E-2,0.000000000E0,0.000000000E0,0.000000000E0
3.529063300E-2,-8.976209164E-2,1.307902336E-1,5.358409882E-2
4.529063300E-2,1.064502001E-1,3.409719467E-2,4.023485184E-1
5.529063300E-2,1.797024012E-1,-2.001028061E-1,7.135782242E-1
6.529063300E-2,4.341495037E-1,-3.955705166E-1,8.719692230E-1
7.529063300E-2,4.802959561E-1,-4.499092102E-1,6.526012421E-1
8.529063300E-2,7.351593375E-1,-2.843708992E-1,3.136968613E-1
9.529063300E-2,7.314149141E-1,5.191373825E-2,-3.510904312E-1
1.052906330E-1,6.756353378E-1,3.426978588E-1,-9.249429703E-1
1.152906330E-1,-6.089937687E-2,1.110055447E-1,-1.722091675E0
1.252906330E-1,-4.788504839E-1,-3.546828032E-1,-1.253218651E0
1.352906330E-1,-8.455747366E-1,-8.036794662E-1,-1.232318878E-1
1.452906330E-1,-8.145233393E-1,-9.551801682E-1,9.254131317E-1
1.552906330E-1,-3.657175303E-1,-9.727654457E-1,1.391160965E0
1.652906330E-1,-2.011394501E-2,-1.143423080E0,1.618767738E0
1.752906330E-1,1.098955870E-1,-1.719098449E0,1.863978386E0
1.852906330E-1,3.055357933E-1,-2.310439825E0,2.037245750E0
1.952906330E-1,5.067093372E-1,-2.547867298E0,1.640472412E0
2.052906330E-1,6.979774237E-1,-2.483750820E0,4.007072449E-1
2.152906330E-1,7.725102901E-1,-2.272961378E0,-8.182191849E-1
2.252906330E-1,4.535974264E-1,-1.898432493E0,-1.782173157E0
2.352906330E-1,1.661678553E-1,-1.487873912E0,-2.613327980E0
2.452906330E-1,2.381685972E-1,-1.206312180E0,-3.137932777E0
2.552906330E-1,1.852155924E-1,-1.108596802E0,-3.239796638E0
2.652906330E-1,7.392287254E-3,-9.959483147E-1,-2.907962799E0
2.752906330E-1,-5.768948793E-1,-6.974457502E-1,-2.930792809E0
2.852906330E-1,-6.116000414E-1,-1.943097115E-1,-2.981094360E0
2.952906330E-1,-4.353408813E-1,-5.236905813E-2,-3.087341309E0
3.052906330E-1,-3.263798952E-1,5.250054598E-2,-2.919382572E0
3.152906330E-1,-3.344110250E-1,-1.193982363E-2,-2.368020058E0
3.252906330E-1,2.517150640E-1,-1.532182693E-1,-1.876478195E0
3.352906330E-1,2.429518700E-1,-1.079416275E-2,-1.726008415E0
3.452906330E-1,1.971493959E-1,1.818389297E-1,-1.220648766E0
3.552906330E-1,7.346904278E-2,3.274530768E-1,-6.833066940E-1
3.652906330E-1,1.093134880E-1,3.774012327E-1,-6.312894821E-1
3.752906330E-1,5.165930986E-1,1.645563245E-1,-7.048950195E-1
3.852906330E-1,8.808342218E-1,-1.616402864E-1,-8.490772247E-1
3.952906330E-1,1.253167033E0,-5.602332354E-1,-1.288923264E0
4.052906330E-1,1.610589504E0,-8.375088573E-1,-2.016184807E0
4.152906330E-1,1.887480736E0,-9.906928539E-1,-2.697372437E0
4.252906330E-1,1.999180555E0,-1.059814572E0,-2.976907253E0
4.352906330E-1,1.897197962E0,-9.572272897E-1,-3.164576530E0
4.452906330E-1,1.499464631E0,-8.247170448E-1,-3.197242737E0
4.552906330E-1,1.234235287E0,-6.279675961E-1,-3.152116776E0
4.652906330E-1,1.063405037E0,-6.032857895E-1,-2.943418026E0
4.752906330E-1,1.022018433E0,-6.890540719E-1,-2.413273335E0
4.852906330E-1,9.490453005E-1,-6.504667997E-1,-1.997340202E0
4.952906330E-1,9.252552390E-1,-3.969442844E-1,-1.760686874E0
5.052906330E-1,8.454048634E-1,-1.100828648E-1,-1.539783478E0
5.152906330E-1,8.355565071E-1,1.319682002E-1,-1.176836014E0
5.252906330E-1,8.832448125E-1,4.136001468E-1,-8.240785599E-1
5.352906330E-1,9.087245464E-1,5.460931659E-1,-5.033912659E-1
5.452906330E-1,7.194595933E-1,7.220291495E-1,-2.850446701E-1
5.552906330E-1,3.868103623E-1,9.160729647E-1,-1.330604553E-1
5.652906330E-1,1.986492276E-1,1.192475080E0,9.627342224E-3
5.752906330E-1,1.091683507E-1,1.518205166E0,4.298591614E-2
5.852906330E-1,-4.308879375E-3,1.716513515E0,-7.601261139E-2
5.952906330E-1,4.185390472E-2,1.865645885E0,-2.468156815E-1
6.052906330E-1,1.077817678E-1,1.959625840E0,-4.189462662E-1
6.152906330E-1,2.397027314E-1,2.266843081E0,-3.401994705E-1
6.252906330E-1,1.319319010E-2,2.470877647E0,9.342193604E-2
6.352906330E-1,-2.056336403E-1,2.437932968E0,9.147777557E-1
6.452906330E-1,-1.900266111E-1,1.820281029E0,1.939330101E0
6.552906330E-1,2.954924107E-1,1.007535338E0,2.607186317E0
6.652906330E-1,7.296763062E-1,5.679500103E-1,3.158816338E0
6.752906330E-1,1.060416818E0,-4.021959305E-1,3.462368965E0
6.852906330E-1,1.628989577E0,-7.172601223E-1,3.808181763E0
6.952906330E-1,1.543097377E0,-1.464810610E0,3.093199730E0
7.052906330E-1,1.620191693E0,-1.876807451E0,1.653147697E0
7.152906330E-1,2.027278423E0,-1.589127064E0,-5.441093445E-2
7.252906330E-1,1.498141527E0,-5.942438841E-1,-1.603383064E0
7.352906330E-1,7.331804037E-1,5.125505924E-1,-2.205015182E0
7.452906330E-1,8.202150464E-1,1.138056278E0,-1.115137100E0
7.552906330E-1,4.704499841E-1,1.005150080E0,4.960975647E-1
7.652906330E-1,3.760514259E-1,3.590309620E-1,1.213999748E0
7.752906330E-1,6.469035745E-1,-8.648002148E-2,1.787131310E0
7.852906330E-1,8.529000282E-1,-4.667239189E-1,1.725364685E0
7.952906330E-1,3.721792400E-1,-8.421158791E-1,1.503733635E0
8.052906330E-1,-3.158185184E-1,-1.139126778E0,1.161666870E0
8.152906330E-1,-8.833826780E-1,-1.587980747E0,1.174138069E0
8.252906330E-1,-9.651761055E-1,-1.835920453E0,1.687777519E0
8.352906330E-1,-8.350120783E-1,-1.792482615E0,2.042537689E0
8.452906330E-1,-5.542242527E-1,-1.671794534E0,1.856998444E0
8.552906330E-1,-3.548998833E-1,-1.627613783E0,1.292140961E0
8.652906330E-1,1.253468394E-1,-1.555697322E0,4.369516373E-1
8.752906330E-1,5.434910655E-1,-1.447807312E0,-4.054145813E-1
8.852906330E-1,6.980980635E-1,-1.380889416E0,-1.242759705E0
8.952906330E-1,5.185403228E-1,-1.452090979E0,-2.499457836E0
9.052906330E-1,1.650243998E-1,-1.426269412E0,-3.623000145E0
9.152906330E-1,-8.843243122E-4,-1.134949207E0,-4.240240574E0
9.252906330E-1,-5.714607835E-1,-8.350993991E-1,-4.368997097E0
9.352906330E-1,-1.247588277E0,-4.664992690E-1,-3.901027679E0
9.452906330E-1,-1.360032797E0,-2.878260016E-1,-3.619456768E0
9.552906330E-1,-1.058757901E0,-3.065763712E-1,-3.194741249E0
9.652906330E-1,-6.017989516E-1,-4.656204581E-1,-2.727476120E0
9.752906330E-1,6.908705831E-2,-7.554756403E-1,-2.276365757E0
9.852906330E-1,6.004197001E-1,-1.019518852E0,-1.874230385E0
9.952906330E-1,7.778135538E-1,-1.039858341E0,-1.514072418E0
1.005290633E0,6.984158158E-1,-8.099050522E-1,-1.024225235E0
1.015290633E0,5.950785279E-1,-4.819929600E-1,-6.728029251E-1
1.025290633E0,3.333030939E-1,-2.455555797E-1,-7.900676727E-1
1.035290633E0,-1.683237851E-1,-2.762061357E-2,-1.730176926E0
1.045290633E0,4.430761933E-1,4.572714269E-1,-1.719455719E0
1.055290633E0,2.676140368E-1,7.798331380E-1,-1.888442039E0
1.065290633E0,-5.972146988E-3,1.041195631E0,-2.150642872E0
1.075290633E0,6.860911846E-3,1.220976472E0,-2.252887726E0
1.085290633E0,1.051949263E-1,1.275923491E0,-2.024441719E0
1.095290633E0,1.086117148E0,1.392078280E0,-1.496185303E0
1.105290633E0,1.160455585E0,1.061534405E0,-1.067647934E0
1.115290633E0,9.967480302E-1,1.667287111E0,-9.738435745E-1
1.125290633E0,4.450229406E-1,2.256839752E0,-3.730564117E-1
1.135290633E0,3.674929142E-1,2.300339937E0,2.782278061E-1
1.145290633E0,7.671592236E-1,1.998740196E0,4.148674011E-1
1.155290633E0,1.208553314E0,1.800247788E0,4.959096909E-1
1.165290633E0,1.602876306E0,1.826362371E0,7.282543182E-1
1.175290633E0,1.589331985E0,1.825206041E0,1.124607086E0
1.185290633E0,1.318472743E0,1.662406921E0,1.396047592E0
1.195290633E0,8.992894888E-1,1.457926393E0,1.701614380E0
1.205290633E0,4.298589230E-1,1.257412076E0,1.959141731E0
1.215290633E0,2.148818970E-2,1.057236433E0,1.936366081E0
1.225290633E0,-2.475858927E-1,9.557491541E-1,1.771123886E0
1.235290633E0,-2.991907597E-1,8.991740346E-1,1.460664749E0
1.245290633E0,-1.028777361E-1,9.204024076E-1,1.227169037E0
1.255290633E0,1.892554760E-2,9.663186073E-1,1.379098892E0
1.265290633E0,-8.497893810E-2,9.827175736E-1,1.519937515E0
1.275290633E0,-2.869378328E-1,9.558885098E-1,1.577461243E0
1.285290633E0,-3.429875374E-1,7.862933874E-1,1.627219200E0
1.295290633E0,-4.164001942E-1,6.077570319E-1,1.602331161E0
1.305290633E0,-6.538960934E-1,4.438445568E-1,1.726209641E0
1.315290633E0,-1.021855593E0,2.116436958E-1,1.904516220E0
1.325290633E0,-1.519103169E0,-3.042501211E-2,1.910509109E0
1.335290633E0,-1.957389355E0,-2.207930088E-1,1.689879417E0
1.345290633E0,-2.003999233E0,-4.571821392E-1,1.354459763E0
1.355290633E0,-1.698991060E0,-5.639340878E-1,1.207737923E0
1.365290633E0,-1.157366991E0,-6.264656782E-1,1.084889412E0
1.375290633E0,-5.685970783E-1,-6.536782384E-1,1.017606735E0
1.385290633E0,-1.697182655E-1,-6.743984222E-1,9.776782990E-1
1.395290633E0,-1.206489801E-1,-6.709513068E-1,9.343290329E-1
1.405290633E0,-3.301208019E-1,-6.810819507E-1,7.729177475E-1
1.415290633E0,-5.938457251E-1,-7.373719811E-1,5.693187714E-1
1.425290633E0,-7.608224154E-1,-8.488970995E-1,3.117418289E-1
1.435290633E0,-8.812723160E-1,-1.030960321E0,4.064559937E-3
1.445290633E0,-1.071869016E0,-1.240124822E0,-3.182907104E-1
1.455290633E0,-1.411169410E0,-1.394104719E0,-5.322036743E-1
1.465290633E0,-1.703438759E0,-1.604442954E0,-7.857112885E-1
1.475290633E0,-1.908195615E0,-1.819873095E0,-1.163367271E0
1.485290633E0,-2.045187950E0,-1.886390567E0,-1.579028130E0
1.495290633E0,-2.051687479E0,-1.851531625E0,-1.910996437E0
1.505290633E0,-1.872240901E0,-1.729770184E0,-2.192854881E0
1.515290633E0,-1.591889501E0,-1.486118197E0,-2.469906807E0
1.525290633E0,-1.257366657E0,-1.306712747E0,-2.592677116E0
1.535290633E0,-9.478284121E-1,-1.181815147E0,-2.575117588E0
1.545290633E0,-6.793160439E-1,-1.072047710E0,-2.450424194E0
1.555290633E0,-3.974099159E-1,-1.032786369E0,-2.149711609E0
1.565290633E0,-1.225801706E-1,-1.066830635E0,-1.758716583E0
1.575290633E0,4.246437550E-2,-1.001344681E0,-1.507618904E0
1.585290633E0,9.135043621E-2,-8.485100269E-1,-1.323655128E0
1.595290633E0,-2.548921108E-2,-8.121683598E-1,-1.128312111E0
1.605290633E0,-1.844464540E-1,-7.124876976E-1,-8.452091217E-1
1.615290633E0,-1.594038010E-1,-6.740942597E-1,-6.409263611E-1
1.625290633E0,-4.955780506E-2,-7.919463515E-1,-7.861728668E-1
1.635290633E0,1.884984970E-2,-8.562749624E-1,-9.307317734E-1
1.645290633E0,2.687742710E-1,-9.640005827E-1,-1.060222626E0
1.655290633E0,3.861212730E-1,-8.546224833E-1,-1.160211563E0
1.665290633E0,1.787034273E-1,-5.501424074E-1,-1.181053162E0
1.675290633E0,3.778624535E-2,-3.285689950E-1,-1.269380569E0
1.685290633E0,5.214333534E-3,-2.757468224E-1,-1.497238159E0
1.695290633E0,-4.826879501E-2,-3.840842247E-1,-1.604537964E0
1.705290633E0,-5.934953690E-3,-5.528028011E-1,-1.547937393E0
1.715290633E0,2.217009068E-1,-5.746508241E-1,-1.704364300E0
1.725290633E0,2.965645790E-1,-4.553620815E-1,-2.075727463E0
1.735290633E0,1.294006109E-1,-1.635302305E-1,-2.115455151E0
1.745290633E0,-1.269817352E-2,3.498687744E-1,-2.088100910E0
1.755290633E0,-4.631698132E-1,9.058290720E-1,-1.793061256E0
1.765290633E0,-1.169442058E0,1.393019438E0,-1.264926910E0
1.775290633E0,-1.532676697E0,1.761570334E0,-8.319110870E-1
1.785290633E0,-1.645594716E0,1.812334418E0,-8.129558563E-1
1.795290633E0,-1.603232384E0,1.649757624E0,-9.432020187E-1
1.805290633E0,-8.824170828E-1,1.265148997E0,-8.754281998E-1
1.815290633E0,1.262533665E-2,9.907367229E-1,-7.291746140E-1
1.825290633E0,1.476702690E-1,1.183507323E0,-5.465755463E-1
1.835290633E0,-1.807556152E-1,1.405101538E0,-1.537494659E-1
1.845290633E0,-6.181874275E-1,1.287026882E0,4.914760590E-1
1.855290633E0,-1.130895257E0,8.989312649E-1,1.426547050E0
1.865290633E0,-1.178287983E0,7.486422062E-1,2.371802330E0
1.875290633E0,-8.598617315E-1,4.569022655E-1,2.886453629E0
1.885290633E0,-2.728939056E-2,7.654988766E-2,3.006917953E0
1.895290633E0,6.020717621E-1,2.069958448E-1,2.971832275E0
1.905290633E0,6.375381947E-1,2.778687477E-1,2.525094986E0
1.915290633E0,4.538593292E-1,2.458603382E-1,1.878600121E0
1.925290633E0,9.040641785E-2,2.673844099E-1,1.520534515E0
1.935290633E0,-4.132924080E-1,2.038116455E-1,1.388981819E0
1.945290633E0,-8.670508862E-1,2.369381189E-1,1.407363892E0
1.955290633E0,-1.123234034E0,3.973890543E-1,1.128333092E0
1.965290633E0,-1.481204033E0,7.424572706E-1,6.050462723E-1
1.975290633E0,-1.729297400E0,1.150912523E0,2.156486511E-1
1.985290633E0,-1.799598932E0,1.435146809E0,2.205991745E-1
1.995290633E0,-1.845236301E0,1.208250761E0,7.651071548E-1
2.005290633E0,-3.225684166E-1,2.583287954E-1,1.946642876E0
2.015290633E0,3.792612553E-1,1.017481089E-1,2.786443710E0
2.025290633E0,-3.449294567E-1,2.429376841E-1,3.096990585E0
2.035290633E0,-4.841959476E-1,-3.925437927E-1,2.978019714E0
2.045290633E0,1.251828671E-1,-1.114839792E0,2.616097450E0
2.055290633E0,2.567954063E-1,-1.190217733E0,2.009458542E0
2.065290633E0,5.370991230E-1,-9.508982897E-1,1.157847404E0
2.075290633E0,8.868026733E-1,-8.121356368E-1,5.499486923E-1
2.085290633E0,1.181628942E0,-7.025837898E-1,4.162912369E-1
2.095290633E0,9.364652634E-1,-7.603693008E-1,5.899648666E-1
2.105290633E0,8.848817348E-1,-8.200234175E-1,1.302757263E-1
2.115290633E0,1.135903120E0,-8.900887966E-1,-5.018281937E-1
2.125290633E0,1.661061049E0,-1.066876411E0,-1.506761074E0
2.135290633E0,2.463146687E0,-1.213130713E0,-2.183809280E0
2.145290633E0,2.228811264E0,-9.948874712E-1,-1.688762188E0
2.155290633E0,1.079175472E0,-5.820550919E-1,-9.710655212E-1
2.165290633E0,3.918156624E-1,-6.301971674E-1,-5.004358292E-1
2.175290633E0,2.438073158E-1,-8.717254400E-1,-3.058662415E-1
2.185290633E0,-6.869792938E-2,-5.854679346E-1,-1.055288315E-1
2.195290633E0,-2.697153091E-1,-4.331564903E-1,-1.995124817E-1
2.205290633E0,7.448577881E-2,-4.182085991E-1,-1.025232315E0
2.215290633E0,2.799677849E-1,-1.300878525E-1,-1.551861763E0
2.225290633E0,-4.930734634E-2,-5.296015739E-2,-1.273932457E0
2.235290633E0,-4.555468559E-1,-1.877000332E-1,-1.411823750E0
2.245290633E0,-4.023218155E-1,-4.364635944E-1,-2.635489464E0
2.255290633E0,-5.221023560E-1,-3.495919704E-1,-3.857750416E0
2.265290633E0,-4.816312790E-1,-3.322045803E-1,-4.454159737E0
2.275290633E0,1.891403198E-1,-3.496606350E-1,-4.898849487E0
2.285290633E0,1.102272511E0,-2.192916870E-1,-5.303178787E0
2.295290633E0,1.998324394E0,3.038978577E-1,-6.154673100E0
2.305290633E0,1.891443729E0,6.157083511E-1,-6.339726448E0
2.315290633E0,4.883050919E-2,6.101152897E-1,-4.631042004E0
2.325290633E0,-8.404736519E-1,5.212116241E-2,-6.695218086E-1
2.335290633E0,-4.446363449E-2,-1.046724558E0,-1.622266769E-1
2.345290633E0,2.709074020E-1,-1.123763323E0,-1.768917084E0
2.355290633E0,4.627752304E-1,-1.373161197E0,-2.626353264E0
2.365290633E0,-7.701444626E-2,-9.530915022E-1,-2.083841324E0
2.375290633E0,4.337596893E-2,-5.248066187E-1,-1.050718307E0
2.385290633E0,4.404354095E-2,-1.000221968E-1,-1.109800339E-1
2.395290633E0,-3.394145966E-1,6.210489273E-1,6.187162399E-1
2.405290633E0,-1.365400791E0,1.370669603E0,1.051338196E0
2.415290633E0,-1.637528896E0,6.268111467E-1,1.475131035E0
2.425290633E0,-1.874721050E0,-5.507999659E-1,9.797945023E-1
2.435290633E0,-1.606059074E0,-1.348755360E0,1.461458206E-1
2.445290633E0,-1.802080631E0,-1.123854995E0,2.275590897E-1
2.455290633E0,-2.290551662E0,-3.521418571E-2,1.108077049E0
2.465290633E0,-2.144823074E0,1.312349558E0,2.567355156E0
2.475290633E0,-1.095104694E0,2.346433163E0,3.665638924E0
2.485290633E0,6.421766281E-1,2.506182909E0,2.726556778E0
2.495290633E0,1.567441940E0,2.290490150E0,1.734703064E0
2.505290633E0,1.178561211E0,2.069041729E0,1.445034027E0
2.515290633E0,2.337560654E-1,1.880615592E0,1.465876579E0
2.525290633E0,-7.038083076E-1,1.604887128E0,1.814812660E0
2.535290633E0,-1.148252487E0,1.228824615E0,1.785430908E0
2.545290633E0,-1.387951374E0,6.879760027E-1,7.374105453E-1
2.555290633E0,-9.022421837E-1,6.393544674E-1,2.767095566E-1
2.565290633E0,-1.260852814E-2,3.675814867E-1,4.295349121E-3
2.575290633E0,-7.419247627E-1,4.841551781E-1,4.411678314E-1
2.585290633E0,-2.227324009E0,1.334070563E0,7.504320145E-1
2.595290633E0,-2.877460003E0,1.891297340E0,1.316224098E0
2.605290633E0,-2.144032001E0,1.513263822E0,1.507821083E0
2.615290633E0,-9.131064415E-1,5.566362143E-1,1.522282600E0
2.625290633E0,-6.402268410E-1,-3.052082062E-1,1.444628716E0
2.635290633E0,-1.467728138E0,-5.636552572E-1,1.537987709E0
2.645290633E0,-1.850053787E0,-7.338343859E-1,2.281131744E0
2.655290633E0,-1.595227480E0,-1.028662324E0,2.723583221E0
2.665290633E0,-1.005108118E0,-1.236841559E0,2.639162064E0
2.675290633E0,-2.635071278E-1,-1.717086554E0,1.823273659E0
2.685290633E0,5.713951588E-1,-2.787815094E0,1.134033203E0
2.695290633E0,1.405221462E0,-3.662870884E0,1.391203880E0
2.705290633E0,3.490710258E-2,-2.082710266E0,9.166660309E-1
2.715290633E0,-4.770708084E-1,-7.242904902E-1,-2.110614777E-1
2.725290633E0,-6.189310551E-1,-2.555979490E-1,-1.134589195E0
2.735290633E0,-8.483910561E-2,-4.348775148E-1,-1.613077164E0
2.745290633E0,5.076265335E-2,-8.960086703E-1,-1.848944664E0
2.755290633E0,2.942891121E-1,-1.152373672E0,-1.892826080E0
2.765290633E0,4.129791260E-1,-1.077707052E0,-1.660942554E0
2.775290633E0,4.490268230E-1,-1.243891954E0,-1.010955811E0
2.785290633E0,9.407148361E-1,-1.615326643E0,-4.422397614E-1
2.795290633E0,1.342273951E0,-1.601500630E0,-5.956745148E-1
2.805290633E0,1.741587400E0,-1.582717299E0,-9.437475204E-1
2.815290633E0,2.124597073E0,-1.654301405E0,-1.378048897E0
2.825290633E0,2.308161736E0,-1.619400144E0,-2.002800941E0
2.835290633E0,2.121217728E0,-1.371520758E0,-2.387437820E0
2.845290633E0,1.358422518E0,-8.195523024E-1,-2.213725090E0
2.855290633E0,6.258430481E-1,-4.184347391E-1,-1.819637299E0
2.865290633E0,3.993101120E-1,-3.331040144E-1,-2.230326176E0
2.875290633E0,2.375359535E-1,-2.450779676E-1,-3.411634922E0
2.885290633E0,-4.987311363E-2,-1.079982519E-1,-4.415413857E0
2.895290633E0,-3.519716263E-1,4.239702225E-2,-4.139216423E0
2.905290633E0,-5.259091854E-1,6.277048588E-2,-3.525894165E0
2.915290633E0,-5.257842541E-1,1.507738829E-1,-2.799338341E0
2.925290633E0,-2.816643715E-1,3.277617693E-1,-1.893327236E0
2.935290633E0,1.507651806E-1,5.294648409E-1,-1.289263248E0
2.945290633E0,2.166223526E-2,-4.158424139E-1,-1.423590660E0
2.955290633E0,-3.132956028E-1,-1.334310770E-1,-1.323268890E0
2.965290633E0,-1.032850742E0,1.037078857E0,7.549095154E-2
2.975290633E0,-1.448781013E0,1.311565757E0,3.554553986E-1
2.985290633E0,-1.440213084E0,1.387439370E0,5.338602066E-1
2.995290633E0,-1.263762236E0,1.440350652E0,7.219667435E-1
3.005290633E0,-9.832967520E-1,1.468881965E0,7.064638138E-1
3.015290633E0,-7.537755966E-1,1.443117619E0,7.669963837E-1
3.025290633E0,-6.586802006E-1,1.316429734E0,7.641172409E-1
3.035290633E0,-3.456200361E-1,9.677044153E-1,7.593240738E-1
3.045290633E0,5.883896351E-2,5.522793531E-1,1.082983017E0
3.055290633E0,3.278881311E-1,1.952954531E-1,1.952161789E0
3.065290633E0,3.937028050E-1,9.246015549E-2,2.701840401E0
3.075290633E0,5.962748528E-1,2.271190882E-1,3.062295914E0
3.085290633E0,8.469312787E-1,5.043849945E-1,2.874791145E0
3.095290633E0,9.904170036E-1,5.720280409E-1,1.928250313E0
3.105290633E0,1.227429867E0,1.893885136E-1,1.230528831E0
3.115290633E0,1.396877527E0,-4.022619724E-1,1.085952759E0
3.125290633E0,1.069983244E0,-7.338920832E-1,1.163836479E0
3.135290633E0,4.990041256E-3,-4.143074751E-1,1.276558876E0
3.145290633E0,-1.060090303E0,1.255986691E-1,1.271254539E0
3.155290633E0,-1.329541922E0,3.697522879E-1,1.312321663E0
3.165290633E0,-6.818690300E-1,2.190746069E-1,1.813128471E0
3.175290633E0,1.233134270E-1,-1.348307133E-1,2.158629417E0
3.185290633E0,7.323402166E-1,-9.659171104E-2,1.943151474E0
3.195290633E0,9.278866649E-1,3.571507931E-1,1.721807480E0
3.205290633E0,9.005589485E-1,4.704127312E-1,1.581905365E0
3.215290633E0,7.153351903E-1,1.445958614E-1,1.534441948E0
3.225290633E0,3.480740786E-1,-2.380288839E-1,1.582418442E0
3.235290633E0,8.402502537E-2,-6.133800745E-1,1.484333992E0
3.245290633E0,-5.207836628E-2,-1.037720203E0,1.187661171E0
3.255290633E0,-2.286041975E-1,-1.366802335E0,8.246250153E-1
3.265290633E0,-4.213203788E-1,-1.498185396E0,3.244705200E-1
3.275290633E0,-4.562926292E-1,-1.395145178E0,8.307266235E-2
3.285290633E0,-2.625602186E-1,-1.169809341E0,1.078081131E-1
3.295290633E0,9.946030378E-2,-9.608699083E-1,-2.528600693E-1
3.305290633E0,5.431009531E-1,-9.010872245E-1,-8.110589981E-1
3.315290633E0,1.031867623E0,-1.106670141E0,-1.253230095E0
3.325290633E0,1.217025518E0,-1.136526227E0,-1.783123970E0
3.335290633E0,1.121981263E0,-1.167051435E0,-2.094909668E0
3.345290633E0,7.756129503E-1,-1.178419948E0,-2.225351334E0
3.355290633E0,5.441314578E-1,-1.190962315E0,-2.324763298E0
3.365290633E0,2.841373980E-1,-1.184014797E0,-2.433776855E0
3.375290633E0,-5.227670819E-2,-9.636330605E-1,-2.261578560E0
3.385290633E0,-2.621712685E-1,-7.129350901E-1,-2.120831966E0
3.395290633E0,-3.686315715E-1,-4.905972481E-1,-2.163443565E0
3.405290633E0,-3.909518719E-1,-2.631833553E-1,-2.334711075E0
3.415290633E0,-3.747212887E-1,-1.275537014E-1,-2.354529381E0
3.425290633E0,-3.254592121E-1,-6.646203995E-2,-2.242970467E0
3.435290633E0,-2.916522920E-1,-2.201390266E-2,-1.753415585E0
3.445290633E0,-6.496660113E-1,1.410100460E-1,-1.935574532E0
3.455290633E0,-7.121515870E-1,2.900749445E-1,-2.296232700E0
3.465290633E0,-6.040508747E-1,3.883357048E-1,-2.285482407E0
3.475290633E0,-4.543015957E-1,4.651603699E-1,-2.170321941E0
3.485290633E0,-3.051636815E-1,5.543731451E-1,-1.973692894E0
3.495290633E0,-3.165645599E-1,7.126096487E-1,-1.746769905E0
3.505290633E0,-3.025928438E-1,8.811571598E-1,-1.433946609E0
3.515290633E0,-4.920056462E-2,9.928325415E-1,-1.241292953E0
3.525290633E0,2.824629843E-1,1.077928424E0,-9.857788086E-1
3.535290633E0,5.978219509E-1,1.198834181E0,-6.344671249E-1
3.545290633E0,9.234786630E-1,1.321623206E0,-2.222385406E-1
3.555290633E0,1.104499936E0,1.394037366E0,9.692478180E-2
3.565290633E0,1.006905079E0,1.329656005E0,2.836666107E-1
3.575290633E0,9.670996666E-1,1.158659101E0,4.385843277E-1
3.585290633E0,5.722122788E-1,9.421962500E-1,5.412626266E-1
3.595290633E0,3.457474709E-2,7.929537296E-1,5.671072006E-1
3.605290633E0,-3.469260335E-1,7.343642712E-1,4.852485657E-1
3.615290633E0,-6.346271038E-1,8.407418728E-1,1.978130341E-1
3.625290633E0,-7.162570953E-1,1.066781759E0,-4.266929626E-2
3.635290633E0,-6.233857274E-1,1.287265420E0,-1.294908524E-1
3.645290633E0,-5.193923712E-1,1.439338565E0,-1.307487488E-2
3.655290633E0,-3.769518137E-1,1.563046098E0,2.297353745E-1
3.665290633E0,-3.263133168E-1,1.708344698E0,4.002771378E-1
3.675290633E0,-2.139762044E-1,1.751309514E0,8.266019821E-1
3.685290633E0,-2.223260403E-1,1.559654236E0,1.296270370E0
3.695290633E0,-2.619711757E-1,1.226505637E0,1.635978699E0
3.705290633E0,-4.179211855E-1,8.176379204E-1,1.880221367E0
3.715290633E0,-9.306137562E-1,6.577334404E-1,2.006400108E0
3.725290633E0,-1.548029780E0,6.596322060E-1,1.852342606E0
3.735290633E0,-1.721972942E0,8.442101479E-1,1.623570442E0
3.745290633E0,-1.656526804E0,1.027490497E0,1.593213081E0
3.755290633E0,-1.834330440E0,9.384319782E-1,1.014701843E0
3.765290633E0,-9.395054579E-1,8.528859615E-1,1.127401352E0
3.775290633E0,-2.814579010E-2,8.094117641E-1,1.381903648E0
3.785290633E0,3.489965796E-1,8.785220385E-1,1.943360329E0
3.795290633E0,3.265610933E-1,8.937340975E-1,2.643249512E0
3.805290633E0,-1.752269268E-2,7.015630007E-1,3.092078209E0
3.815290633E0,-4.250670671E-1,1.653671265E-1,3.348469734E0
3.825290633E0,-8.323204517E-1,-6.082339287E-1,3.185486794E0
3.835290633E0,-7.858556509E-1,-1.590872049E0,2.398796082E0
3.845290633E0,-3.770428896E-1,-2.353055477E0,1.447298050E0
3.855290633E0,-1.405564547E-1,-2.650647163E0,3.554763794E-1
3.865290633E0,-6.598460674E-2,-2.429182529E0,-5.636196136E-1
3.875290633E0,-2.932583094E-1,-1.716399550E0,-1.179205894E0
3.885290633E0,-3.778582811E-1,-1.147483110E0,-1.902717113E0
3.895290633E0,7.097017765E-2,-9.319606423E-1,-2.571910858E0
3.905290633E0,4.518159628E-1,-7.717128396E-1,-3.142547131E0
3.915290633E0,6.707032919E-1,-6.307284832E-1,-3.467980385E0
3.925290633E0,7.396644354E-1,-4.961109161E-1,-3.452167988E0
3.935290633E0,7.081425190E-1,-4.331246614E-1,-3.118467331E0
3.945290633E0,9.278161526E-1,-5.431190729E-1,-2.628715992E0
3.955290633E0,1.300455213E0,-7.436792850E-1,-2.046551228E0
3.965290633E0,1.664555550E0,-9.693524241E-1,-1.530624390E0
3.975290633E0,1.744907737E0,-1.148715496E0,-1.125756264E0
3.985290633E0,1.306589842E0,-1.068084240E0,-1.166714668E0
3.995290633E0,8.327677250E-1,-9.012155533E-1,-1.232660294E0
4.005290633E0,5.040235519E-1,-6.599071622E-1,-1.119346619E0
4.015290633E0,3.070847988E-1,-4.697028399E-1,-8.904495239E-1
4.025290633E0,3.570547104E-1,-3.195927441E-1,-6.261129379E-1
4.035290633E0,6.840522289E-1,-2.293463349E-1,-2.798948288E-1
4.045290633E0,9.267523289E-1,-1.890314221E-1,-1.115627289E-1
4.055290633E0,9.681113362E-1,-1.161753535E-1,-1.544828415E-1
4.065290633E0,9.152028561E-1,-9.193253517E-2,-2.212429047E-1
4.075290633E0,8.924553394E-1,-1.356191039E-1,-3.577308655E-1
4.085290633E0,7.821401358E-1,-5.585622787E-2,-7.314519882E-1
4.095290633E0,5.132660866E-1,2.191925049E-1,-1.299940109E0
4.105290633E0,2.043470144E-1,4.796865582E-1,-1.776491642E0
4.115290633E0,5.122578144E-2,5.301631093E-1,-1.962152481E0
4.125290633E0,-7.117247581E-2,5.633089542E-1,-2.037328720E0
4.135290633E0,-1.244502068E-1,5.923228264E-1,-1.930816174E0
4.145290633E0,-1.679855585E-1,6.820608377E-1,-1.605013847E0
4.155290633E0,-1.663064957E-1,7.878752947E-1,-1.131600380E0
4.165290633E0,-2.718091011E-3,7.071413994E-1,-6.142406464E-1
4.175290633E0,3.639113903E-2,5.512025356E-1,-2.369499207E-2
4.185290633E0,-1.985745430E-1,4.970703125E-1,5.422382355E-1
4.195290633E0,-3.419672251E-1,4.562869668E-1,1.151568413E0
4.205290633E0,-2.606653571E-1,3.152007461E-1,1.533883095E0
4.215290633E0,2.137702703E-2,9.963423014E-2,1.501233101E0
4.225290633E0,3.381087184E-1,3.252744675E-3,1.280285835E0
4.235290633E0,3.001781106E-1,1.966799498E-1,1.189618111E0
4.245290633E0,1.123881340E-1,4.020811915E-1,1.273443222E0
4.255290633E0,-4.159283638E-2,4.535780549E-1,1.691960335E0
4.265290633E0,-2.113806605E-1,3.562879562E-1,2.241593361E0
4.275290633E0,-4.931689501E-1,2.121662498E-1,2.639912605E0
4.285290633E0,-8.190549016E-1,2.987882495E-1,2.887122154E0
4.295290633E0,-8.768244982E-1,4.417662621E-1,2.806529045E0
4.305290633E0,-6.214365363E-1,4.654519558E-1,2.610150337E0
4.315290633E0,-1.804161668E-1,3.639140129E-1,2.366777420E0
4.325290633E0,1.460390687E-1,3.300316930E-1,2.190640450E0
4.335290633E0,2.764443755E-1,4.329239130E-1,2.265929222E0
4.345290633E0,4.561976492E-1,3.287361264E-1,2.815949440E0
4.355290633E0,6.227307916E-1,-2.420246601E-3,3.591348648E0
4.365290633E0,6.017817259E-1,-4.370089471E-1,4.264883041E0
4.375290633E0,4.954708815E-1,-8.599406481E-1,4.607130051E0
4.385290633E0,3.992197812E-1,-1.197205424E0,4.468807220E0
4.395290633E0,4.023361802E-1,-1.505394936E0,3.880858421E0
4.405290633E0,4.880716205E-1,-1.794669628E0,2.993083954E0
4.415290633E0,4.610542655E-1,-1.895261884E0,1.937147141E0
4.425290633E0,4.607021809E-1,-1.785635233E0,9.025211334E-1
4.435290633E0,6.181339622E-1,-1.645922661E0,-1.450557709E-1
4.445290633E0,8.818820119E-1,-1.569357157E0,-1.109560013E0
4.455290633E0,1.047012329E0,-1.480760813E0,-1.861625195E0
4.465290633E0,1.056751132E0,-1.350335121E0,-2.496725082E0
4.475290633E0,9.882351160E-1,-1.265942335E0,-3.111796856E0
4.485290633E0,8.496213555E-1,-1.131943941E0,-3.743652821E0
4.495290633E0,6.625636816E-1,-9.016873837E-1,-4.172192574E0
4.505290633E0,4.914882481E-1,-7.433550954E-1,-4.470119476E0
4.515290633E0,2.448476255E-1,-6.284447312E-1,-4.664443970E0
4.525290633E0,-1.124182343E-2,-5.004209280E-1,-4.607914925E0
4.535290633E0,-2.415353656E-1,-3.528407812E-1,-4.354838848E0
4.545290633E0,-5.417860746E-1,-2.201155424E-1,-4.092317581E0
4.555290633E0,-8.291511536E-1,-1.939264536E-1,-3.866555214E0
4.565290633E0,-1.197418928E0,-1.072540283E-1,-3.680386543E0
4.575290633E0,-1.285158515E0,-9.760892391E-2,-3.481214523E0
4.585290633E0,-1.098184705E0,-1.380519271E-1,-3.297421455E0
4.595290633E0,-9.536186457E-1,-3.141641617E-2,-3.049586296E0
4.605290633E0,-8.626043797E-1,1.295023561E-1,-2.765365601E0
4.615290633E0,-6.821510792E-1,3.134897947E-1,-2.479479790E0
4.625290633E0,-4.616871774E-1,4.787136316E-1,-2.338482857E0
4.635290633E0,-2.739782929E-1,5.877284408E-1,-2.347822189E0
4.645290633E0,-1.926535070E-1,7.144507170E-1,-2.311809063E0
4.655290633E0,-1.252264380E-1,8.860478997E-1,-1.931717873E0
4.665290633E0,8.081395924E-2,1.064283729E0,-1.260778427E0
4.675290633E0,3.539544344E-1,1.136119843E0,-6.309719086E-1
4.685290633E0,4.335818589E-1,1.167311430E0,-1.822938919E-1
4.695290633E0,1.573067158E-1,1.246802330E0,3.969211578E-1
4.705290633E0,-1.968841255E-1,1.243297338E0,1.095013618E0
4.715290633E0,-4.134860933E-1,1.126058340E0,1.754001617E0
4.725290633E0,-6.037213802E-1,9.705964327E-1,2.165601730E0
4.735290633E0,-9.116416574E-1,9.172829390E-1,2.239926338E0
4.745290633E0,-1.285249472E0,1.006338835E0,2.197765350E0
4.755290633E0,-1.588585377E0,1.042348862E0,2.092709541E0
4.765290633E0,-1.879907608E0,1.111759305E0,2.156624794E0
4.775290633E0,-2.065560579E0,1.275983810E0,2.381571770E0
4.785290633E0,-2.137150764E0,1.375017881E0,2.550477982E0
4.795290633E0,-2.123983145E0,1.350412726E0,2.588410378E0
4.805290633E0,-2.126192331E0,1.282615542E0,2.524387360E0
4.815290633E0,-2.095501423E0,1.112338185E0,2.388904572E0
4.825290633E0,-2.129167080E0,9.788317680E-1,2.347059250E0
4.835290633E0,-2.299299717E0,7.643400431E-1,2.423495293E0
4.845290633E0,-2.592002869E0,6.093897820E-1,2.434344292E0
4.855290633E0,-2.912188768E0,6.291136742E-1,2.319940567E0
4.865290633E0,-2.842758656E0,6.995816827E-1,2.143826485E0
4.875290633E0,-2.203082561E0,6.341289282E-1,2.113875389E0
4.885290633E0,-1.337352157E0,5.265470743E-1,2.485584259E0
4.895290633E0,-5.959872007E-1,2.648068070E-1,3.283276558E0
4.905290633E0,-3.258239031E-1,-2.219730914E-1,4.447173119E0
4.915290633E0,-5.408310890E-1,-8.276053667E-1,5.461541176E0
4.925290633E0,-9.149919748E-1,-1.541415930E0,5.835631371E0
4.935290633E0,-1.713247180E0,-1.917125225E0,5.244920731E0
4.945290633E0,-2.177817106E0,-2.422909737E0,3.980868340E0
4.955290633E0,-2.276832104E0,-2.920923710E0,2.559091568E0
4.965290633E0,-2.372294903E0,-2.924450159E0,1.235532761E0
4.975290633E0,-2.530957222E0,-2.377883911E0,-8.246135712E-2
4.985290633E0,-2.169209003E0,-1.936516762E0,-1.295459747E0
4.995290633E0,-1.422241569E0,-1.615075111E0,-2.226613045E0
5.005290633E0,-7.772789001E-1,-1.225510120E0,-2.892283440E0
5.015290633E0,-3.009178638E-1,-9.058511853E-1,-3.211368561E0
5.025290633E0,1.913418770E-1,-9.450174570E-1,-3.254810333E0
5.035290633E0,5.761586428E-1,-1.178029299E0,-3.032699108E0
5.045290633E0,7.401276827E-1,-1.377388716E0,-2.535167694E0
5.055290633E0,7.699444294E-1,-1.481360197E0,-2.008156776E0
5.065290633E0,8.075821996E-1,-1.593917727E0,-1.629605293E0
5.075290633E0,8.036087751E-1,-1.726224542E0,-1.468651772E0
5.085290633E0,6.732519865E-1,-1.764566183E0,-1.471463203E0
5.095290633E0,4.822074175E-1,-1.732809544E0,-1.654349327E0
5.105290633E0,3.689475060E-1,-1.687234163E0,-1.979197502E0
5.115290633E0,3.983011246E-1,-1.658487797E0,-2.263077736E0
5.125290633E0,4.317697287E-1,-1.409870267E0,-2.574632168E0
5.135290633E0,3.628839254E-1,-1.294887662E0,-2.898168087E0
5.145290633E0,2.312844992E-1,-1.265420079E0,-3.246118069E0
5.155290633E0,1.269469261E-1,-1.204533339E0,-3.431053162E0
5.165290633E0,6.961762905E-2,-1.165395141E0,-3.340067863E0
5.175290633E0,1.190233231E-2,-1.151853919E0,-3.095373154E0
5.185290633E0,-1.306860447E-1,-1.023545384E0,-2.849687576E0
5.195290633E0,-1.055780649E-1,-7.773521543E-1,-2.678989887E0
5.205290633E0,-2.133131027E-2,-4.934694767E-1,-2.572816849E0
5.215290633E0,9.508776665E-2,-2.850830555E-1,-2.526087761E0
5.225290633E0,6.742358208E-3,-4.136276245E-2,-2.356328964E0
5.235290633E0,9.044063091E-2,-1.011836529E-2,-2.047951698E0
5.245290633E0,1.342728138E-1,-5.396115780E-2,-1.653478146E0
5.255290633E0,-1.118087769E-2,2.359509468E-2,-1.050788879E0
5.265290633E0,7.319760323E-2,1.695454121E-2,-2.861442566E-1
5.275290633E0,1.830805540E-1,-4.608500004E-2,4.419565201E-1
5.285290633E0,8.343529701E-2,1.562303305E-1,1.074327469E0
5.295290633E0,-7.595002651E-2,2.719595432E-1,1.454380989E0
5.305290633E0,-2.730834484E-2,2.696330547E-1,1.579762459E0
5.315290633E0,2.000356913E-1,2.323764563E-1,1.442028046E0
5.325290633E0,2.058497667E-1,3.265612125E-1,1.107748032E0
5.335290633E0,-3.220677376E-2,6.033352613E-1,7.643365860E-1
5.345290633E0,-2.476167679E-1,8.803459406E-1,5.470190048E-1
5.355290633E0,-4.001030922E-1,1.025294542E0,5.008201599E-1
5.365290633E0,-5.544939041E-1,1.078716874E0,5.477886200E-1
5.375290633E0,-5.765309334E-1,1.053026915E0,7.250995636E-1
5.385290633E0,-4.029942155E-1,8.933470845E-1,1.045875549E0
5.395290633E0,-1.907141805E-1,7.328737974E-1,1.306845665E0
5.405290633E0,-1.118133664E-1,6.620558500E-1,1.406039238E0
5.415290633E0,-1.394581795E-1,6.746431589E-1,1.348521233E0
5.425290633E0,-2.751420736E-1,7.350817323E-1,1.191223145E0
5.435290633E0,-3.977858424E-1,7.224472165E-1,1.031921387E0
5.445290633E0,-4.003419280E-1,5.013071299E-1,8.798551559E-1
5.455290633E0,-4.099327326E-1,1.121141911E-1,8.035697937E-1
5.465290633E0,-3.882843852E-1,-2.679483593E-1,1.180877686E0
5.475290633E0,-2.889379263E-1,-5.911815166E-1,2.094286919E0
5.485290633E0,-1.155343950E-1,-9.243162274E-1,3.141983032E0
5.495290633E0,7.831189036E-2,-1.197261095E0,4.166335106E0
5.505290633E0,3.126055896E-1,-1.489192247E0,4.793704987E0
5.515290633E0,4.398320615E-1,-1.762277603E0,4.538219452E0
5.525290633E0,5.326156616E-1,-1.957718134E0,3.649011612E0
5.535290633E0,6.020469666E-1,-1.897831678E0,2.461756706E0
5.545290633E0,5.473901033E-1,-1.584069014E0,1.171443939E0
5.555290633E0,5.630294085E-1,-1.225579500E0,-1.885395050E-1
5.565290633E0,6.466426849E-1,-8.220252991E-1,-1.549276352E0
5.575290633E0,9.038731456E-1,-5.392315388E-1,-2.396524429E0
5.585290633E0,9.904489517E-1,-3.862262964E-1,-2.736609459E0
5.595290633E0,6.590600610E-1,-1.818767786E-1,-2.933472633E0
5.605290633E0,1.312671304E-1,-1.331361532E-1,-3.143092155E0
5.615290633E0,-3.106081188E-1,-2.032588124E-1,-3.312500954E0
5.625290633E0,-6.303899884E-1,-1.932384968E-1,-3.314979076E0
5.635290633E0,-8.249138594E-1,-6.131339073E-2,-3.282182217E0
5.645290633E0,-1.022644043E0,1.548470259E-1,-3.352143288E0
5.655290633E0,-1.324804544E0,3.638755679E-1,-3.432724953E0
5.665290633E0,-1.618865252E0,5.016443133E-1,-3.496974468E0
5.675290633E0,-1.750745296E0,5.154058337E-1,-3.457465172E0
5.685290633E0,-1.676696658E0,4.623696804E-1,-3.106151581E0
5.695290633E0,-1.554757714E0,4.761380553E-1,-2.554042816E0
5.705290633E0,-1.505075932E0,5.333445668E-1,-1.970511913E0
5.715290633E0,-1.503348827E0,4.497573972E-1,-1.537531853E0
5.725290633E0,-1.540234685E0,3.875510693E-1,-1.180753708E0
5.735290633E0,-1.616381526E0,3.731341660E-1,-8.999671936E-1
5.745290633E0,-1.682763457E0,3.360755444E-1,-6.812419891E-1
5.755290633E0,-1.715895057E0,3.259271681E-1,-4.560022354E-1
5.765290633E0,-1.661430597E0,3.258106411E-1,-2.128963470E-1
5.775290633E0,-1.440353870E0,2.988149524E-1,5.168914795E-4
5.785290633E0,-1.129350543E0,3.231877983E-1,9.539699554E-2
5.795290633E0,-7.219748497E-1,4.306332767E-1,1.354885101E-1
5.805290633E0,-3.156658113E-1,6.119835377E-1,1.478319168E-1
5.815290633E0,1.423299015E-1,7.662535906E-1,3.246583939E-1
5.825290633E0,5.923565626E-1,8.660598397E-1,7.981138229E-1
5.835290633E0,1.008110762E0,7.950457335E-1,1.544920921E0
5.845290633E0,1.403682709E0,6.093027592E-1,2.485873222E0
5.855290633E0,1.696002960E0,3.969400823E-1,3.287404060E0
5.865290633E0,1.890942097E0,2.328590304E-1,3.723235130E0
5.875290633E0,2.005147696E0,9.141522646E-2,3.672429085E0
5.885290633E0,1.939519405E0,9.463684261E-2,3.144102097E0
5.895290633E0,1.798686981E0,1.162225008E-1,2.415441513E0
5.905290633E0,1.731130123E0,1.834360361E-1,1.742840767E0
5.915290633E0,1.651455283E0,3.337604702E-1,1.348374367E0
5.925290633E0,1.466085315E0,4.919439256E-1,1.207664490E0
5.935290633E0,1.304589272E0,5.158517361E-1,1.333443642E0
5.945290633E0,1.111542225E0,3.758116663E-1,1.604948997E0
5.955290633E0,7.788304687E-1,2.732463777E-1,1.806812286E0
5.965290633E0,3.987889886E-1,2.910857201E-1,1.894764900E0
5.975290633E0,4.140526056E-2,4.260825217E-1,1.708067894E0
5.985290633E0,-3.125105500E-1,6.327944994E-1,1.239942551E0
5.995290633E0,-5.476024151E-1,9.201567173E-1,8.921947479E-1
6.005290633E0,-5.321236849E-1,1.068014026E0,9.479751587E-1
6.015290633E0,-3.596334457E-1,8.267595768E-1,1.421427727E0
6.025290633E0,-3.726112843E-1,3.049167991E-1,2.181488991E0
6.035290633E0,-5.207165480E-1,-1.772706360E-1,3.271158218E0
6.045290633E0,-6.743066907E-1,-5.745385885E-1,4.328034401E0
6.055290633E0,-7.996473908E-1,-9.723926187E-1,4.971799850E0
6.065290633E0,-1.035961628E0,-1.215036154E0,4.959335327E0
6.075290633E0,-1.294649363E0,-1.420642853E0,4.182354927E0
6.085290633E0,-1.467109680E0,-1.502834320E0,2.860987663E0
6.095290633E0,-1.395621538E0,-1.364515185E0,1.602752686E0
6.105290633E0,-1.126886845E0,-1.027801991E0,3.519744873E-1
6.115290633E0,-7.432199717E-1,-5.502149463E-1,-1.152782440E0
6.125290633E0,-1.702702045E-1,-4.657334089E-2,-2.451446533E0
6.135290633E0,1.449564695E-1,5.204334259E-1,-3.352079391E0
6.145290633E0,2.623839378E-1,8.669549823E-1,-3.890076637E0
6.155290633E0,4.810864925E-1,7.405497432E-1,-3.966749191E0
6.165290633E0,7.815250754E-1,3.376342058E-1,-3.778313637E0
6.175290633E0,9.528604150E-1,6.203925610E-2,-3.471220016E0
6.185290633E0,1.073303342E0,-8.637779951E-2,-2.991101265E0
6.195290633E0,1.130580664E0,-2.173547745E-1,-2.524314404E0
6.205290633E0,1.078684449E0,-4.352861643E-1,-2.223075390E0
6.215290633E0,8.786345124E-1,-6.221333742E-1,-1.964514256E0
6.225290633E0,5.981519818E-1,-7.626121044E-1,-1.707301140E0
6.235290633E0,3.641286492E-1,-9.035631418E-1,-1.621214867E0
6.245290633E0,2.180107236E-1,-1.045101166E0,-1.770391941E0
6.255290633E0,1.733901501E-1,-1.079091191E0,-2.176576614E0
6.265290633E0,1.664055586E-1,-9.967953563E-1,-2.717295170E0
6.275290633E0,3.054925799E-1,-8.312305212E-1,-3.004546165E0
6.285290633E0,4.477772713E-1,-5.781788230E-1,-2.950106621E0
6.295290633E0,5.404101610E-1,-3.049039841E-1,-2.800936699E0
6.305290633E0,6.062583923E-1,-1.260272264E-1,-2.644045830E0
6.315290633E0,5.039517879E-1,-1.000642776E-3,-2.541122437E0
6.325290633E0,3.167805672E-1,6.264936924E-2,-2.519327164E0
6.335290633E0,2.080763578E-1,6.564068794E-2,-2.641588688E0
6.345290633E0,1.497038603E-1,1.308655739E-1,-2.792394638E0
6.355290633E0,-2.231240273E-2,4.116307497E-1,-2.711472511E0
6.365290633E0,-1.855294704E-1,7.430270910E-1,-2.449605942E0
6.375290633E0,-2.993034124E-1,9.516662359E-1,-2.052532196E0
6.385290633E0,-4.075824022E-1,9.957770109E-1,-1.586901188E0
6.395290633E0,-4.424852133E-1,9.278820753E-1,-1.041646004E0
6.405290633E0,-4.540712833E-1,8.452442884E-1,-4.239482880E-1
6.415290633E0,-4.107118845E-1,7.454103231E-1,2.313575745E-1
6.425290633E0,-2.996066809E-1,6.474318504E-1,8.376150131E-1
6.435290633E0,-1.838302612E-1,5.449723005E-1,1.333580017E0
6.445290633E0,-7.816576958E-2,4.220720530E-1,1.787980080E0
6.455290633E0,7.991385460E-2,2.760123610E-1,2.130838394E0
6.465290633E0,2.789744735E-1,6.688094139E-2,2.316046715E0
6.475290633E0,3.663350940E-1,-1.818687916E-1,2.442133904E0
6.485290633E0,2.157487869E-1,-2.851308584E-1,2.726676941E0
6.495290633E0,5.876600742E-2,-3.970141411E-1,3.004160881E0
6.505290633E0,-4.246115685E-3,-5.277004838E-1,3.088088036E0
6.515290633E0,-2.488271594E-1,-3.292210698E-1,3.064838409E0
6.525290633E0,-2.908584476E-1,-1.036300063E-1,2.971027374E0
6.535290633E0,-1.962525249E-1,1.766201854E-1,2.778370857E0
6.545290633E0,-7.879787683E-2,4.896234274E-1,2.592327118E0
6.555290633E0,1.099086404E-1,7.370284200E-1,2.381619453E0
6.565290633E0,4.361232817E-1,7.826671600E-1,2.174698830E0
6.575290633E0,8.325431943E-1,5.924577117E-1,2.147071838E0
6.585290633E0,1.165900707E0,2.712825537E-1,2.135714531E0
6.595290633E0,1.330027580E0,-7.775783539E-3,2.117366791E0
6.605290633E0,1.378228664E0,-2.701933980E-1,2.016232491E0
6.615290633E0,1.154824018E0,-3.887755275E-1,2.029236794E0
6.625290633E0,7.566837072E-1,-5.010013580E-1,1.934191704E0
6.635290633E0,4.298532903E-1,-6.564790010E-1,1.722775459E0
6.645290633E0,2.033986151E-1,-7.294296026E-1,1.409458160E0
6.655290633E0,-1.669169217E-2,-7.276943922E-1,8.662710190E-1
6.665290633E0,-1.446254849E-1,-7.383785248E-1,2.495365143E-1
6.675290633E0,-1.387756914E-1,-7.514040470E-1,-2.777729034E-1
6.685290633E0,2.903018892E-2,-7.531853914E-1,-6.457815170E-1
6.695290633E0,2.697080076E-1,-8.015863895E-1,-9.548768997E-1
6.705290633E0,4.043209851E-1,-8.839662075E-1,-1.211477280E0
6.715290633E0,3.843381107E-1,-9.830744267E-1,-1.411532402E0
6.725290633E0,2.013172060E-1,-1.068323135E0,-1.558213234E0
6.735290633E0,-4.165967926E-3,-1.139917493E0,-1.710427284E0
6.745290633E0,-2.234438807E-1,-1.163618445E0,-1.950340271E0
6.755290633E0,-3.914456666E-1,-1.080310583E0,-2.314164162E0
6.765290633E0,-5.022281408E-1,-8.667564988E-1,-2.792183876E0
6.775290633E0,-6.130203605E-1,-5.498530865E-1,-3.280978680E0
6.785290633E0,-7.137249708E-1,-1.360852122E-1,-3.715346813E0
6.795290633E0,-8.070495129E-1,2.518008947E-1,-4.064959526E0
6.805290633E0,-9.900195599E-1,5.719613433E-1,-4.318069458E0
6.815290633E0,-1.298483968E0,8.016195297E-1,-4.410972118E0
6.825290633E0,-1.577372313E0,8.987016678E-1,-4.204989433E0
6.835290633E0,-1.838761806E0,9.662935734E-1,-3.623027802E0
6.845290633E0,-1.869732618E0,9.668987393E-1,-2.903647423E0
6.855290633E0,-1.760583878E0,9.060463905E-1,-2.345309258E0
6.865290633E0,-1.685017824E0,8.694903255E-1,-1.953480721E0
6.875290633E0,-1.651588917E0,9.352393150E-1,-1.739913464E0
6.885290633E0,-1.709350944E0,1.104271770E0,-1.729266167E0
6.895290633E0,-1.711676598E0,1.181116343E0,-1.826134682E0
6.905290633E0,-1.673727751E0,1.190209627E0,-1.692172527E0
6.915290633E0,-1.576159716E0,1.035379052E0,-1.204438210E0
6.925290633E0,-1.463372588E0,6.985267401E-1,-5.571460724E-1
6.935290633E0,-1.432477474E0,3.197768331E-1,2.202291489E-1
6.945290633E0,-1.579563379E0,-5.353778601E-3,7.734556198E-1
6.955290633E0,-1.870577574E0,-2.544442117E-1,1.104229927E0
6.965290633E0,-2.013331413E0,-4.626556635E-1,1.491054535E0
6.975290633E0,-2.242298126E0,-5.190474987E-1,1.783717155E0
6.985290633E0,-2.706677914E0,-3.172050714E-1,1.834210396E0
6.995290633E0,-3.023686886E0,-5.665093660E-3,1.745309830E0
7.005290633E0,-2.922215462E0,2.671909928E-1,1.533069611E0
7.015290633E0,-2.435569048E0,5.121920109E-1,1.110877037E0
7.025290633E0,-1.984180927E0,9.471719861E-1,4.776859283E-1
7.035290633E0,-1.480373621E0,1.546368122E0,7.602691650E-3
7.045290633E0,-7.035918236E-1,1.997002482E0,1.247968674E-1
7.055290633E0,2.083455324E-1,2.057294846E0,7.666349411E-1
7.065290633E0,9.098181129E-1,1.845205307E0,1.729503632E0
7.075290633E0,1.149111271E0,1.496763349E0,2.887417793E0
7.085290633E0,7.424069047E-1,1.153216362E0,3.949848175E0
7.095290633E0,-1.421145201E-1,7.999824882E-1,4.652913094E0
7.105290633E0,-1.206580520E0,5.257369876E-1,4.716910362E0
7.115290633E0,-2.278244734E0,4.550418556E-1,4.141310692E0
7.125290633E0,-2.855021954E0,4.302893281E-1,3.284491539E0
7.135290633E0,-2.684901237E0,2.941739261E-1,2.343999863E0
7.145290633E0,-1.829568386E0,-6.712633371E-2,1.224876404E0
7.155290633E0,-9.648029804E-1,-4.736261368E-1,1.682653427E-1
7.165290633E0,-4.296605587E-1,-9.562668204E-1,1.964139938E-1
7.175290633E0,-8.993923664E-2,-1.591914177E0,1.800146103E0
7.185290633E0,-1.935238838E-1,-2.178178787E0,3.552306175E0
7.195290633E0,-6.558288336E-1,-2.541527271E0,4.449533463E0
7.205290633E0,-1.324881673E0,-2.793240070E0,4.191623688E0
7.215290633E0,-1.817229271E0,-3.046173573E0,2.935144424E0
7.225290633E0,-1.939766765E0,-3.134931326E0,1.482652664E0
7.235290633E0,-1.870934963E0,-2.962539434E0,-6.543159485E-2
7.245290633E0,-1.634216785E0,-2.623334408E0,-1.520932198E0
7.255290633E0,-1.162046194E0,-2.180990934E0,-2.736383438E0
7.265290633E0,-6.798074245E-1,-1.696363449E0,-3.532626152E0
7.275290633E0,-1.700351238E-1,-1.357264280E0,-3.930583000E0
7.285290633E0,2.061113119E-1,-1.182561874E0,-4.031791210E0
7.295290633E0,6.110301018E-1,-1.200485110E0,-3.761777878E0
7.305290633E0,8.865851164E-1,-1.194682837E0,-3.221324921E0
7.315290633E0,1.081785083E0,-1.105273843E0,-2.560669422E0
7.325290633E0,1.262719035E0,-9.920904636E-1,-1.874882698E0
7.335290633E0,1.282215714E0,-8.700495958E-1,-1.379285812E0
7.345290633E0,1.092200994E0,-7.172987461E-1,-1.195372581E0
7.355290633E0,6.907227039E-1,-6.157886982E-1,-1.357149124E0
7.365290633E0,3.060716391E-1,-5.404407978E-1,-1.611223221E0
7.375290633E0,5.037593842E-2,-4.454440773E-1,-1.785042763E0
7.385290633E0,-1.708285809E-1,-2.466945201E-1,-1.836210251E0
7.395290633E0,-3.496736288E-1,-1.335027814E-2,-1.820989609E0
7.405290633E0,-4.041792154E-1,2.172403932E-1,-1.830552101E0
7.415290633E0,-2.952103615E-1,3.295928836E-1,-1.999394417E0
7.425290633E0,-4.671156406E-2,3.731712401E-1,-2.198047638E0
7.435290633E0,2.042614222E-1,5.366994143E-1,-2.279420376E0
7.450551779E0,5.115041733E-1,6.320584416E-1,-2.197980881E0
7.461486726E0,8.342698216E-1,8.534601927E-1,-2.100161552E0
7.472421779E0,1.015142679E0,1.224607348E0,-1.985543251E0
7.483356831E0,9.089377522E-1,1.637247205E0,-2.021972179E0
7.494291883E0,8.180313110E-1,1.821948290E0,-2.270433903E0
7.505226831E0,6.758416891E-1,1.833499670E0,-2.621591568E0
7.516161831E0,5.460578203E-1,1.756746292E0,-2.550662994E0
7.527096883E0,3.557382226E-1,1.575429201E0,-1.945644855E0
7.538031935E0,2.172928452E-1,1.310484171E0,-1.105077744E0
7.548966935E0,2.257378697E-1,9.983134866E-1,-4.233350754E-1
7.559901883E0,3.474818468E-1,6.931088567E-1,1.299362183E-1
7.570836935E0,4.575591683E-1,4.851521254E-1,6.959877014E-1
7.581771987E0,7.256511450E-1,1.716008782E-1,1.436378479E0
7.592707039E0,1.148882508E0,-4.006662667E-1,2.206020355E0
7.603641935E0,1.453513384E0,-1.025428772E0,2.903331757E0
7.614576987E0,1.359702826E0,-1.487027287E0,3.210082054E0
7.625512039E0,8.919443488E-1,-1.650514007E0,3.086967468E0
7.636447091E0,5.325522423E-1,-1.686318278E0,2.605113983E0
7.647381987E0,5.453794003E-1,-1.775379062E0,2.102323532E0
7.658317039E0,3.885629773E-1,-1.489868402E0,1.773283005E0
7.669252091E0,1.704381704E-1,-9.387300611E-1,1.530577660E0
7.680187143E0,2.756343484E-1,-5.068266392E-1,1.389530182E0
7.691122195E0,5.451716781E-1,-2.505702376E-1,1.371590614E0
7.702057091E0,1.022903085E0,-3.710765243E-1,1.190243721E0
7.712992143E0,1.655464292E0,-6.111062169E-1,8.951101303E-1
7.723927195E0,2.187902689E0,-7.893804908E-1,6.113719940E-1
7.734862143E0,2.586635351E0,-7.845106125E-1,5.143594742E-1
7.745797143E0,2.713423252E0,-5.584545732E-1,7.960252762E-1
7.756732195E0,2.245372057E0,-2.774067223E-1,1.771180153E0
7.790290633E0,1.042664886E0,-8.825169206E-1,4.943708420E0
7.800290633E0,1.350971222E0,-1.075710416E0,4.271528244E0
7.810290633E0,1.810550213E0,-1.342419982E0,2.978374481E0
7.820290633E0,2.029047012E0,-1.388266325E0,1.604681969E0
7.830290633E0,2.205963850E0,-1.278144956E0,6.402397156E-1
7.840290633E0,2.329138994E0,-1.192157626E0,9.514999390E-2
7.850290633E0,2.330715179E0,-1.131271243E0,-1.714372635E-1
7.860290633E0,2.059925079E0,-1.035758257E0,-2.580604553E-1
7.870290633E0,1.456893921E0,-8.350380659E-1,-2.285499573E-1
7.880290633E0,7.606675029E-1,-5.361320376E-1,-3.154087067E-1
7.890290633E0,2.063352764E-1,-2.866320312E-1,-7.216825485E-1
7.900290633E0,-1.962573826E-1,-4.428480566E-2,-1.488260269E0
7.910290633E0,-4.255506098E-1,1.654056609E-1,-2.486160278E0
7.920290633E0,-5.085183978E-1,3.494615257E-1,-3.545712471E0
7.930290633E0,-4.503331780E-1,5.565041900E-1,-4.492341995E0
7.940290633E0,-2.424616218E-1,8.423664570E-1,-5.135770798E0
7.950290633E0,-4.805332422E-2,1.142344117E0,-5.422121048E0
7.960290633E0,-4.243153334E-2,1.413753033E0,-5.381353378E0
7.970290633E0,-1.683305502E-1,1.560816765E0,-5.121427536E0
7.980290633E0,-1.935055852E-1,1.497967720E0,-4.771489143E0
7.990290633E0,-7.408618927E-2,1.391103625E0,-4.474890709E0
8.000290633E0,9.723216295E-2,1.379198432E0,-4.217988968E0
8.010290633E0,2.000063658E-1,1.451497197E0,-3.979581833E0
8.020290633E0,9.132093191E-2,1.582123756E0,-3.674293518E0
8.030290633E0,-1.909818351E-1,1.651599765E0,-3.232757568E0
8.040290633E0,-5.610752106E-1,1.661612868E0,-2.623220444E0
8.050290633E0,-1.069706202E0,1.654431105E0,-1.824818134E0
8.060290633E0,-1.597549558E0,1.556081414E0,-9.540643692E-1
8.070290633E0,-2.005027771E0,1.367668390E0,-3.062343597E-2
8.080290633E0,-2.239938259E0,1.213619471E0,9.319133759E-1
8.090290633E0,-2.362475395E0,1.112051606E0,1.876635551E0
8.100290633E0,-2.451994658E0,1.043998957E0,2.798925400E0
8.110290633E0,-2.562958241E0,9.425251484E-1,3.528780937E0
8.120290633E0,-2.902352333E0,1.038420439E0,4.154244423E0
8.130290633E0,-3.030998707E0,8.376451731E-1,4.665710449E0
8.140290633E0,-3.032001972E0,5.072976351E-1,4.874409676E0
8.150290633E0,-3.081608534E0,4.231534600E-1,4.752280235E0
8.160290633E0,-2.854067326E0,3.288553357E-1,4.434997559E0
8.170290633E0,-2.490671873E0,2.070188075E-1,4.156634331E0
8.180290633E0,-2.096046448E0,8.912101388E-2,4.014172554E0
8.190290633E0,-1.898211718E0,7.427392900E-2,4.003288269E0
8.200290633E0,-1.793896675E0,9.495845437E-2,3.999082565E0
8.210290633E0,-1.599309206E0,7.565492392E-2,3.757971764E0
8.220290633E0,-1.297592402E0,1.060509086E-1,3.219120026E0
8.230290633E0,-5.839021802E-1,4.761040211E-3,2.661441803E0
8.240290633E0,2.121648788E-1,-1.828122735E-1,2.336076736E0
8.250290633E0,5.870413780E-1,-4.737690389E-1,2.709915161E0
8.260290633E0,5.785845518E-1,-1.003958583E0,3.791970253E0
8.270290633E0,3.305203319E-1,-1.510254860E0,4.869841576E0
8.280290633E0,9.588927031E-2,-2.050037622E0,5.525918961E0
8.290290633E0,-3.045136929E-1,-2.412035942E0,5.080879211E0
8.300290633E0,-5.018758774E-1,-2.793096066E0,3.705974579E0
8.310290633E0,-5.343609452E-1,-3.026251316E0,1.905032158E0
8.320290633E0,-4.242799878E-1,-2.963742733E0,1.447887421E-1
8.330290633E0,-2.333081365E-1,-2.551833868E0,-1.465967178E0
8.340290633E0,2.932646871E-1,-2.036266565E0,-3.018735409E0
8.350290633E0,9.006907940E-1,-1.376139164E0,-3.949335098E0
8.360290633E0,1.239672422E0,-6.797196269E-1,-4.077441216E0
8.370290633E0,1.150654793E0,-3.746619523E-1,-3.569322586E0
8.380290633E0,1.021344185E0,-7.414886951E-1,-2.671809196E0
8.390290633E0,9.239722490E-1,-1.250416279E0,-1.836247921E0
8.400290633E0,7.532120347E-1,-1.455812573E0,-1.291218758E0
8.410290633E0,5.591630340E-1,-1.463118196E0,-1.054752350E0
8.420290633E0,3.332083225E-1,-1.423780680E0,-1.253760338E0
8.430290633E0,2.089095712E-1,-1.449814081E0,-1.583328247E0
8.440290633E0,5.489772558E-2,-1.410228372E0,-1.859293938E0
8.450290633E0,-9.974932671E-2,-1.166210175E0,-2.143265724E0
8.460290633E0,-6.953269243E-2,-9.038729072E-1,-2.437332630E0
8.470290633E0,-6.011819839E-2,-6.511435509E-1,-2.470458031E0
8.480290633E0,-5.291688442E-2,-4.696889222E-1,-2.246683121E0
8.490290633E0,8.079689741E-2,-4.654721022E-1,-2.163852692E0
8.500290633E0,3.151233792E-1,-5.568870902E-1,-2.307431221E0
8.510290633E0,5.597643852E-1,-5.773009658E-1,-2.525908470E0
8.520290633E0,7.032220364E-1,-4.404801130E-1,-2.678539276E0
8.530290633E0,9.652732015E-1,-2.664049268E-1,-2.545856953E0
8.540290633E0,1.165469289E0,-1.000272632E-1,-2.260210514E0
8.550290633E0,1.323701739E0,-4.617238045E-2,-1.973602295E0
8.560290633E0,1.318269134E0,-4.646062851E-3,-1.760143757E0
8.570290633E0,1.187089205E0,-2.749681473E-3,-1.649311066E0
8.580290633E0,1.172324657E0,1.697528362E-2,-1.505881310E0
8.590290633E0,1.323812246E0,4.125440121E-2,-1.236358643E0
8.600290633E0,1.430780888E0,8.472037315E-2,-9.329919815E-1
8.610290633E0,1.422554970E0,8.604252338E-2,-6.368989944E-1
8.620290633E0,1.272843719E0,3.665256500E-2,-3.449392319E-1
8.630290633E0,1.140256166E0,-5.477428436E-3,-6.724357605E-2
8.640290633E0,1.095300913E0,-4.935109615E-2,2.573738098E-1
8.650290633E0,9.343070984E-1,-6.226658821E-3,6.303348541E-1
8.660290633E0,7.307016253E-1,6.665301323E-2,9.483728409E-1
8.670290633E0,5.669452548E-1,3.644859791E-2,1.054144859E0
8.680290633E0,3.092427850E-1,-4.228234291E-2,1.059360504E0
8.690290633E0,2.117520571E-2,-1.102411747E-1,1.229701996E0
8.700290633E0,-1.494774222E-1,-8.888745308E-2,1.539989471E0
8.710290633E0,-3.353627920E-1,1.370769739E-1,1.783575058E0
8.720290633E0,-4.097979069E-1,3.760936260E-1,1.918173790E0
8.730290633E0,-2.066807151E-1,4.993163347E-1,1.876133919E0
8.740290633E0,2.273641229E-1,5.501540899E-1,1.649098396E0
8.750290633E0,5.322598815E-1,6.500487328E-1,1.409399033E0
8.760290633E0,6.783640385E-1,6.698749065E-1,1.269576073E0
8.770290633E0,6.189054251E-1,4.811626077E-1,1.465785027E0
8.780290633E0,4.785189629E-1,2.495087385E-1,2.617054939E0
8.790290633E0,4.732919931E-1,-4.377490282E-2,4.249618530E0
8.800290633E0,3.076361418E-1,-4.004054666E-1,5.641794205E0
8.810290633E0,-2.376671582E-1,-6.633767486E-1,6.477890968E0
8.820290633E0,-9.771107435E-1,-9.937672615E-1,6.188202858E0
8.830290633E0,-1.667346954E0,-1.030654430E0,5.005266190E0
8.840290633E0,-1.793717027E0,-1.057086706E0,3.545369148E0
8.850290633E0,-1.466118097E0,-1.212919593E0,1.796664238E0
8.860290633E0,-1.102722883E0,-1.106401563E0,-1.662874222E-1
8.870290633E0,-8.417105079E-1,-8.488698006E-1,-1.703746796E0
8.880290633E0,-3.970408440E-1,-8.292474151E-1,-2.487547398E0
8.890290633E0,2.484055161E-1,-1.093791246E0,-2.518527985E0
8.900290633E0,8.248678446E-1,-1.299837112E0,-1.896877289E0
8.910290633E0,1.254577279E0,-1.355724335E0,-1.026333809E0
8.920290633E0,1.392214179E0,-1.411955833E0,-5.426073074E-1
8.930290633E0,1.218370438E0,-1.404531240E0,-6.970148087E-1
8.940290633E0,8.626979589E-1,-1.352385998E0,-1.387116432E0
8.950290633E0,3.338498771E-1,-1.206682801E0,-2.378357887E0
8.960290633E0,-1.530772746E-1,-1.034248710E0,-3.130424500E0
8.970290633E0,-5.881359577E-1,-8.606185913E-1,-3.530237198E0
8.980290633E0,-1.074769258E0,-7.039570808E-1,-3.692393303E0
8.990290633E0,-1.467388153E0,-6.570657492E-1,-3.718904018E0
9.000290633E0,-1.705345631E0,-6.706456542E-1,-3.686477184E0
9.010290633E0,-1.743310213E0,-6.794752479E-1,-3.650651455E0
9.020290633E0,-1.547635078E0,-6.508679390E-1,-3.645147324E0
9.030290633E0,-1.173737407E0,-5.666177273E-1,-3.729856491E0
9.040290633E0,-8.120334148E-1,-3.436138034E-1,-3.852929115E0
9.050290633E0,-4.312511683E-1,-7.424920797E-2,-3.860723495E0
9.060290633E0,-1.378206909E-1,1.606433988E-1,-3.683511734E0
9.070290633E0,-6.134450436E-2,4.009975791E-1,-3.390489578E0
9.080290633E0,-1.038811207E-1,5.246521235E-1,-3.009944916E0
9.090290633E0,-2.717075944E-1,5.300428867E-1,-2.615550995E0
9.100290633E0,-6.019654274E-1,5.247473717E-1,-2.144097805E0
9.110290633E0,-8.862528801E-1,5.152449012E-1,-1.665214539E0
9.120290633E0,-1.072243690E0,5.155079961E-1,-1.242470741E0
9.130290633E0,-1.184027910E0,5.802024603E-1,-8.624067307E-1
9.140290633E0,-1.195485950E0,7.096264958E-1,-4.751577377E-1
9.150290633E0,-1.088016748E0,8.915331364E-1,-8.772659302E-2
9.160290633E0,-9.230438471E-1,1.163372874E0,3.052549362E-1
9.170290633E0,-8.740317822E-1,1.518792033E0,6.337232590E-1
9.180290633E0,-8.394945264E-1,1.778889418E0,1.105956078E0
9.190290633E0,-7.766268849E-1,1.841341972E0,1.531164169E0
9.200290633E0,-8.258031011E-1,1.856142759E0,1.806587219E0
9.210290633E0,-1.055010080E0,1.950795174E0,2.212506294E0
9.220290633E0,-1.346948147E0,2.041303635E0,2.713591576E0
9.230290633E0,-1.484190464E0,1.981023192E0,3.159597397E0
9.240290633E0,-1.545910835E0,1.776868820E0,3.406622887E0
9.250290633E0,-1.592208266E0,1.501132488E0,3.526320457E0
9.260290633E0,-1.531646609E0,1.192002416E0,3.619435310E0
9.270290633E0,-1.352998495E0,9.773298502E-1,3.765790939E0
9.280290633E0,-1.189915061E0,8.443720937E-1,4.018422127E0
9.290290633E0,-1.120512128E0,8.281474710E-1,3.950592041E0
9.300290633E0,-1.103480577E0,9.215702415E-1,3.459656715E0
9.310290633E0,-8.764017820E-1,1.062971234E0,2.987064362E0
9.320290633E0,-3.064830303E-1,9.649909735E-1,2.667094231E0
9.330290633E0,2.702096105E-1,4.635277092E-1,2.662859917E0
9.340290633E0,5.442787409E-1,-2.994760275E-1,3.533168793E0
9.350290633E0,4.122740030E-1,-1.005592465E0,4.755485535E0
9.360290633E0,-8.732604980E-2,-1.581412435E0,5.417450905E0
9.370290633E0,-6.544889212E-1,-1.953301072E0,5.152900696E0
9.380290633E0,-1.062065721E0,-2.198991060E0,4.032168388E0
9.390290633E0,-9.553900957E-1,-2.439114571E0,2.444761276E0
9.400290633E0,-4.606987238E-1,-2.519829750E0,6.556024551E-1
9.410290633E0,2.596664429E-2,-2.068989277E0,-1.066373825E0
9.420290633E0,6.039347053E-1,-1.358741403E0,-2.505719185E0
9.430290633E0,1.370781302E0,-7.943956256E-1,-3.666680813E0
9.440290633E0,1.677900434E0,-1.054180264E-1,-4.444920540E0
9.450290633E0,1.741846561E0,2.154517770E-1,-4.820281982E0
9.460290633E0,1.951044798E0,-6.672579050E-2,-4.391659737E0
9.470290633E0,2.596662760E0,-7.593941689E-1,-2.909076691E0
9.480290633E0,2.866551399E0,-1.103316903E0,-1.436583519E0
9.490290633E0,2.741141796E0,-1.258947730E0,-3.924112320E-1
9.500290633E0,2.388600349E0,-1.368902564E0,4.850597382E-1
9.510290633E0,2.135229588E0,-1.606272936E0,1.069729805E0
9.520290633E0,1.473638296E0,-1.448416948E0,1.058051109E0
9.530290633E0,7.078456879E-1,-1.107226133E0,6.452865601E-1
9.540290633E0,5.281451344E-1,-1.181099057E0,-7.712078094E-2
9.550290633E0,5.386461020E-1,-1.241343498E0,-7.861080170E-1
9.560290633E0,2.888680100E-1,-8.163057566E-1,-1.015660286E0
9.570290633E0,7.284939289E-2,-4.179210067E-1,-9.820547104E-1
9.580290633E0,1.269229650E-1,-3.585701585E-1,-9.811468124E-1
9.590290633E0,2.592991590E-1,-4.616002440E-1,-1.079023361E0
9.600290633E0,3.188614845E-1,-6.377647519E-1,-1.244298935E0
9.610290633E0,3.397317529E-1,-8.596698642E-1,-1.276334763E0
9.620290633E0,3.431051373E-1,-1.030417204E0,-1.057508469E0
9.630290633E0,2.829573154E-1,-1.080727220E0,-7.737674713E-1
9.640290633E0,2.977869511E-1,-1.053863645E0,-6.598062515E-1
9.650290633E0,4.722722173E-1,-8.954266906E-1,-9.422302246E-1
9.660290633E0,7.620925307E-1,-6.589587331E-1,-1.526571274E0
9.670290633E0,1.085477352E0,-4.026731253E-1,-2.177088737E0
9.680290633E0,1.417262077E0,-1.144056320E-1,-2.717592239E0
9.690290633E0,1.702461600E0,1.239994764E-1,-2.910073280E0
9.700290633E0,1.810642719E0,3.237853050E-1,-2.505785942E0
9.710290633E0,1.805899501E0,3.889657259E-1,-1.623039722E0
9.720290633E0,1.702728629E0,4.289054871E-1,-6.303434372E-1
9.730290633E0,1.517763138E0,4.100025892E-1,2.217693329E-1
9.740290633E0,1.294087529E0,3.086432219E-1,9.781599045E-1
9.750290633E0,9.915062189E-1,2.431507111E-1,1.532946587E0
9.760290633E0,6.948580742E-1,2.322307825E-1,1.853925705E0
9.770290633E0,6.472628713E-1,1.394808292E-1,2.136308670E0
9.780290633E0,7.267547250E-1,5.627799034E-2,2.269595146E0
9.790290633E0,7.566935420E-1,9.066760540E-2,2.266401291E0
9.800290633E0,6.958747506E-1,1.689617634E-1,2.194085121E0
9.810290633E0,3.336130679E-1,3.571186066E-1,2.341897011E0
9.820290633E0,2.024345472E-2,4.602578878E-1,2.530451775E0
9.830290633E0,-1.278319359E-1,3.148587942E-1,2.289649010E0
9.840290633E0,-1.758150309E-1,1.665925980E-2,1.954556465E0
9.850290633E0,-5.907592177E-2,-3.961200714E-1,1.613794327E0
9.860290633E0,-4.862874746E-2,-7.204298973E-1,1.438939095E0
9.870290633E0,-2.136749625E-1,-9.115831256E-1,2.012921333E0
9.880290633E0,-4.157867432E-1,-1.079550505E0,2.863562584E0
9.890290633E0,-5.605474710E-1,-1.272527218E0,3.496991158E0
9.900290633E0,-5.624827147E-1,-1.397736073E0,3.639544487E0
9.910290633E0,-3.404180408E-1,-1.425065041E0,3.244783401E0
9.920290633E0,8.026996255E-2,-1.420741796E0,2.309653282E0
9.930290633E0,5.248111486E-1,-1.352185607E0,1.252346992E0
9.940290633E0,8.643366098E-1,-1.141363502E0,4.154844284E-1
9.950290633E0,9.835416079E-1,-9.218173027E-1,-3.165836334E-1
9.960290633E0,8.157721758E-1,-7.689362764E-1,-8.884582520E-1
9.970290633E0,4.970669150E-1,-7.362475395E-1,-1.275675774E0
9.980290633E0,1.914884448E-1,-7.087217569E-1,-1.450387955E0
9.990290633E0,-8.334881067E-2,-6.744955182E-1,-1.584417343E0
1.000029063E1,-2.389499545E-1,-6.703646183E-1,-1.775003433E0
1.001029063E1,-1.995319724E-1,-7.048691511E-1,-2.104070663E0
1.002029063E1,-3.080633581E-1,-6.131371856E-1,-2.451995850E0
1.003029063E1,-4.698121846E-1,-4.444797039E-1,-2.739964962E0
1.004029063E1,-6.069233418E-1,-2.971425056E-1,-3.042926788E0
1.005029063E1,-7.262373567E-1,-1.852658987E-1,-3.132902145E0
1.006029063E1,-6.110112667E-1,-1.319705248E-1,-3.071407318E0
1.007029063E1,-6.184332371E-1,-9.000182152E-3,-3.237429619E0
1.008029063E1,-7.242926955E-1,1.583046913E-1,-3.468192101E0
1.009029063E1,-6.990947723E-1,2.855467796E-1,-3.593236923E0
1.010029063E1,-6.007377505E-1,3.642773628E-1,-3.611574173E0
1.011029063E1,-4.736100137E-1,4.096142054E-1,-3.489726543E0
1.012029063E1,-4.446996152E-1,4.329265356E-1,-3.270007133E0
1.013029063E1,-5.185734034E-1,4.916427135E-1,-2.832500935E0
1.014029063E1,-5.472662449E-1,5.732185841E-1,-2.224304199E0
1.015029063E1,-5.356223583E-1,6.924861670E-1,-1.763700485E0
1.016029063E1,-3.441528976E-1,7.345150709E-1,-1.431206703E0
1.017029063E1,-1.222848892E-1,7.411111593E-1,-1.345865250E0
1.018029063E1,2.074283659E-1,7.485127449E-1,-1.425865173E0
1.019029063E1,4.486104846E-1,8.703570366E-1,-1.433295250E0
1.020029063E1,4.990039766E-1,1.046189666E0,-1.038399696E0
1.021029063E1,4.037162066E-1,1.150446653E0,-2.360649109E-1
1.022029063E1,3.719044328E-1,1.030776858E0,5.150423050E-1
1.023029063E1,4.146150053E-1,8.090722561E-1,1.130511284E0
1.024029063E1,1.824115515E-1,6.764954329E-1,1.445830345E0
1.025029063E1,-2.444069088E-1,7.170000076E-1,1.499032021E0
1.026029063E1,-5.066787004E-1,8.493398428E-1,1.500207901E0
1.027029063E1,-6.583689451E-1,1.082428217E0,1.429270744E0
1.028029063E1,-8.374320269E-1,1.319127440E0,1.274106979E0
1.029029063E1,-9.917089343E-1,1.543002725E0,1.254497528E0
1.030029063E1,-1.002614737E0,1.731706023E0,1.400609016E0
1.031029063E1,-9.059951901E-1,1.812929392E0,1.627131462E0
1.032029063E1,-7.831444740E-1,1.719450712E0,1.877802849E0
1.033029063E1,-6.551820040E-1,1.393202901E0,2.220437050E0
1.034029063E1,-5.977346301E-1,1.074207425E0,2.698198318E0
1.035029063E1,-7.157606483E-1,8.192610741E-1,3.139870644E0
1.036029063E1,-9.970574975E-1,6.411809921E-1,3.276396751E0
1.037029063E1,-1.435554981E0,6.673399210E-1,3.025057793E0
1.038029063E1,-1.614324570E0,7.932840586E-1,2.456429482E0
1.039029063E1,-1.092147827E0,6.942374706E-1,2.044116020E0
1.040029063E1,-2.549982071E-1,4.105044603E-1,2.244170189E0
1.041029063E1,2.503101826E-1,2.617716789E-2,3.207452774E0
1.042029063E1,2.459710240E-1,-4.838271737E-1,4.580026627E0
1.043029063E1,-1.741636395E-1,-9.347407222E-1,5.468681335E0
1.044029063E1,-8.480158448E-1,-1.357329607E0,5.444213867E0
1.045029063E1,-1.394456148E0,-1.878351688E0,4.621641159E0
1.046029063E1,-1.711585641E0,-2.416954517E0,3.253955841E0
1.047029063E1,-2.037930965E0,-2.531328678E0,1.906474113E0
1.048029063E1,-2.047037601E0,-2.363749504E0,3.069076538E-1
1.049029063E1,-1.827462077E0,-1.929458737E0,-1.456791878E0
1.050029063E1,-1.193963647E0,-1.503173113E0,-2.695486069E0
1.051029063E1,-4.865987897E-1,-1.190453887E0,-3.243241310E0
1.052029063E1,-1.524614692E-1,-9.268658161E-1,-3.600518227E0
1.053029063E1,-1.068082452E-1,-7.573311329E-1,-3.737770081E0
1.054029063E1,1.289045811E-2,-8.399825692E-1,-3.439423561E0
1.055029063E1,2.159402370E-1,-1.030568957E0,-2.808119774E0
1.056029063E1,4.515666962E-1,-1.149282455E0,-2.067362785E0
1.057029063E1,5.790793896E-1,-1.144853711E0,-1.452224731E0
1.058029063E1,6.724367738E-1,-1.106110573E0,-9.940652847E-1
1.059029063E1,7.743754387E-1,-1.094257951E0,-7.180976868E-1
1.060029063E1,7.712588310E-1,-1.021987915E0,-6.242132187E-1
1.061029063E1,5.847017169E-1,-8.970520496E-1,-7.329187393E-1
1.062029063E1,3.339796960E-1,-7.094069719E-1,-1.007456779E0
1.063029063E1,2.099176049E-1,-5.676156878E-1,-1.481375694E0
1.064029063E1,2.762230635E-1,-4.805651903E-1,-1.889645576E0
1.065029063E1,2.978469133E-1,-3.792759180E-1,-2.294095039E0
1.066029063E1,2.096841931E-1,-2.894186974E-1,-2.606131554E0
1.067029063E1,8.050102741E-2,-1.709934473E-1,-2.721428871E0
1.068029063E1,-2.591837198E-2,-1.090468168E-1,-2.638943195E0
1.069029063E1,-1.879460365E-2,-1.000020504E-1,-2.387190819E0
1.070029063E1,1.469970793E-1,-3.490614891E-2,-1.907462120E0
1.071029063E1,3.435945511E-1,1.862466335E-1,-1.487765312E0
1.072029063E1,4.279988408E-1,4.340320826E-1,-1.164258003E0
1.073029063E1,3.769000173E-1,5.791537762E-1,-8.192548752E-1
1.074029063E1,1.645412147E-1,6.695570946E-1,-3.514461517E-1
1.075029063E1,-1.422782242E-2,6.757676601E-1,-4.798316956E-2
1.076029063E1,-1.168593615E-1,5.520237684E-1,8.704471588E-2
1.077029063E1,-1.537003517E-1,4.313271046E-1,1.837205887E-1
1.078029063E1,-2.181182206E-1,5.014830828E-1,2.254209518E-1
1.079029063E1,-2.061140239E-1,7.380498648E-1,1.729173660E-1
1.080029063E1,-5.933125317E-2,9.621551037E-1,1.734228134E-1
1.081029063E1,1.336296499E-1,1.109171391E0,3.979425430E-1
1.082029063E1,3.159600198E-1,1.212527156E0,6.515254974E-1
1.083029063E1,4.934502840E-1,1.156092763E0,1.006057739E0
1.084029063E1,4.942232668E-1,1.044077516E0,1.532526970E0
1.085029063E1,3.327888846E-1,8.038120270E-1,2.053799629E0
1.086029063E1,1.038319170E-1,4.890619516E-1,2.516128540E0
1.087029063E1,-2.693906426E-1,3.172005415E-1,2.703910828E0
1.088029063E1,-6.526662111E-1,2.799155712E-1,2.453729630E0
1.089029063E1,-8.267247081E-1,2.506265640E-1,1.946301460E0
1.090029063E1,-6.289964318E-1,9.284663200E-2,1.429609299E0
1.091029063E1,-1.386746764E-1,4.205024242E-2,1.207537651E0
1.092029063E1,3.890268207E-1,7.291603088E-2,1.522413254E0
1.093029063E1,8.258174658E-1,-1.335948706E-1,2.546815872E0
1.094029063E1,1.095549107E0,-5.884873867E-1,3.892582893E0
1.095029063E1,1.211487770E0,-1.095809698E0,4.919495583E0
1.096029063E1,1.078774452E0,-1.496592402E0,5.003710747E0
1.097029063E1,5.454107523E-1,-1.567650557E0,4.262203217E0
1.098029063E1,1.170628667E-1,-1.589686394E0,3.235198021E0
1.099029063E1,-1.246535778E-2,-1.709206820E0,2.100646973E0
1.100029063E1,-7.414406538E-2,-1.733151317E0,6.412096024E-1
1.101029063E1,-1.473112702E-1,-1.554841638E0,-1.004619598E0
1.102029063E1,-3.294849396E-2,-1.341350794E0,-2.292521477E0
1.103029063E1,2.550600171E-1,-1.136795759E0,-3.016773224E0
1.104029063E1,5.621410012E-1,-1.018904805E0,-3.432501793E0
1.105029063E1,9.451518655E-1,-1.071265936E0,-3.647430420E0
1.106029063E1,1.218524218E0,-1.153329134E0,-3.589617729E0
1.107029063E1,1.395922661E0,-1.187803388E0,-3.356755257E0
1.108029063E1,1.503656387E0,-1.239722371E0,-3.027457237E0
1.109029063E1,1.494953156E0,-1.279295206E0,-2.760451794E0
1.110029063E1,1.394117355E0,-1.218581557E0,-2.461172104E0
1.111029063E1,1.183845282E0,-1.143870115E0,-2.186556816E0
1.112029063E1,7.846869230E-1,-1.026295900E0,-2.036957741E0
1.113029063E1,2.635368109E-1,-8.039784431E-1,-2.224797249E0
1.114029063E1,-5.413854122E-2,-7.212381363E-1,-2.648126602E0
1.115029063E1,-1.065669060E-1,-7.298318148E-1,-3.141570091E0
1.116029063E1,-3.165566921E-1,-6.252948046E-1,-3.656225681E0
1.117029063E1,-6.564493179E-1,-3.920060694E-1,-4.058475971E0
1.118029063E1,-8.220772743E-1,-1.551909745E-1,-4.158449173E0
1.119029063E1,-8.149623871E-1,-3.321975470E-3,-4.017118454E0
1.120029063E1,-7.692728043E-1,1.801236570E-1,-3.816994190E0
1.121029063E1,-7.305442095E-1,4.311313927E-1,-3.661135674E0
1.122029063E1,-7.438171506E-1,6.725504398E-1,-3.490646839E0
1.123029063E1,-7.455003262E-1,7.878794670E-1,-3.314895630E0
1.124029063E1,-6.317669153E-1,7.358852625E-1,-2.942515373E0
1.125029063E1,-4.715548754E-1,6.496708393E-1,-2.475304604E0
1.126029063E1,-2.622521818E-1,6.268511415E-1,-1.893089771E0
1.127029063E1,-3.134638071E-2,7.794798613E-1,-1.111300468E0
1.128029063E1,3.447344005E-1,9.534590244E-1,-2.080574036E-1
1.129029063E1,6.929171085E-1,1.025557637E0,7.575082779E-1
1.130029063E1,5.646343827E-1,1.323575020E0,1.664976120E0
1.131029063E1,3.183229864E-1,1.659031749E0,2.473385811E0
1.132029063E1,3.064897954E-1,1.805311918E0,3.100809097E0
1.133029063E1,5.176176429E-1,1.720235825E0,3.603628159E0
1.134029063E1,4.856016934E-1,1.797605753E0,3.966967583E0
1.135029063E1,4.748793691E-2,2.014631748E0,4.233305931E0
1.136029063E1,-4.655539989E-1,2.097348928E0,4.523315430E0
1.137029063E1,-1.038687944E0,2.007431507E0,4.818150520E0
1.138029063E1,-1.685909390E0,1.832239509E0,5.038210869E0
1.139029063E1,-2.358219624E0,1.807565212E0,5.241874695E0
1.140029063E1,-2.599771500E0,1.791821480E0,5.373320580E0
1.141029063E1,-2.466591120E0,1.842498779E0,5.435800552E0
1.142029063E1,-1.948140621E0,1.911308289E0,5.330116272E0
1.143029063E1,-1.561697006E0,2.030113220E0,5.126539230E0
1.144029063E1,-1.259212971E0,1.997688055E0,5.120568275E0
1.145029063E1,-1.115849018E0,1.794759393E0,5.323029518E0
1.146029063E1,-8.527285457E-1,1.536396027E0,5.344831467E0
1.147029063E1,-5.893134475E-1,1.476391792E0,5.052515030E0
1.148029063E1,-1.184763908E-1,1.278356910E0,5.104781151E0
1.149029063E1,6.643964648E-1,5.435548425E-1,5.831198692E0
1.150029063E1,1.405145168E0,-5.041471720E-1,7.050701141E0
1.151029063E1,1.700703382E0,-1.623513699E0,7.644460678E0
1.152029063E1,1.388705969E0,-2.534275293E0,7.019963264E0
1.153029063E1,7.234836817E-1,-3.068184376E0,5.587869644E0
1.154029063E1,2.061690688E-1,-3.286282301E0,3.752164841E0
1.155029063E1,4.837512970E-4,-3.354503155E0,1.679002762E0
1.156029063E1,6.639981270E-2,-3.235171080E0,-4.162368774E-1
1.157029063E1,1.860185266E-1,-2.860394239E0,-2.105619431E0
1.158029063E1,2.650727034E-1,-2.340763092E0,-3.120762348E0
1.159029063E1,4.342489243E-1,-1.827477694E0,-3.622507095E0
1.160029063E1,4.940521717E-1,-1.242133856E0,-3.919591904E0
1.161029063E1,7.433566451E-1,-7.966678143E-1,-3.915850639E0
1.162029063E1,1.240273476E0,-6.275761724E-1,-3.623707771E0
1.163029063E1,1.655839443E0,-5.972101092E-1,-3.305619717E0
1.164029063E1,1.915588856E0,-6.532583237E-1,-3.062193871E0
1.165029063E1,2.070441723E0,-7.809666395E-1,-2.871975422E0
1.166029063E1,2.182944775E0,-9.928131104E-1,-2.713246822E0
1.167029063E1,2.150116444E0,-1.166491985E0,-2.631639004E0
1.168029063E1,1.933575988E0,-1.223752022E0,-2.665523529E0
1.169029063E1,1.655442119E0,-1.245766640E0,-2.703944206E0
1.170029063E1,1.405643344E0,-1.317067742E0,-2.625082016E0
1.171029063E1,1.081341624E0,-1.363631725E0,-2.415208817E0
1.172029063E1,7.397357225E-1,-1.354814768E0,-2.236207962E0
1.173029063E1,5.031369925E-1,-1.382551193E0,-2.245503426E0
1.174029063E1,2.943636775E-1,-1.442305088E0,-2.234215260E0
1.175029063E1,8.333319426E-2,-1.460154772E0,-2.044414997E0
1.176029063E1,6.994098425E-2,-1.479993343E0,-1.921835899E0
1.177029063E1,1.882556677E-1,-1.498718023E0,-2.077315331E0
1.178029063E1,3.595424891E-1,-1.507672787E0,-2.389079571E0
1.179029063E1,5.396887064E-1,-1.397016168E0,-2.615233421E0
1.180029063E1,7.060367465E-1,-1.253125191E0,-2.767282963E0
1.181029063E1,8.164340854E-1,-1.074013948E0,-2.992321014E0
1.182029063E1,8.588187099E-1,-8.823783994E-1,-3.242744446E0
1.183029063E1,9.716222286E-1,-7.453086376E-1,-3.424746990E0
1.184029063E1,1.119209290E0,-6.252763271E-1,-3.495245457E0
1.185029063E1,1.192985535E0,-4.974256158E-1,-3.447194099E0
1.186029063E1,1.095577478E0,-3.624646068E-1,-3.216079712E0
1.187029063E1,1.010320425E0,-2.985796928E-1,-2.878520012E0
1.188029063E1,8.832877278E-1,-3.277574778E-1,-2.561818123E0
1.189029063E1,6.221390367E-1,-2.815802693E-1,-2.259761810E0
1.190029063E1,2.050706148E-1,-8.826839924E-2,-2.011909962E0
1.191029063E1,-1.541106999E-1,1.056532860E-1,-1.764888763E0
1.192029063E1,-3.342943788E-1,2.001267076E-1,-1.420865059E0
1.193029063E1,-4.834627509E-1,2.995614409E-1,-7.964506149E-1
1.194029063E1,-4.844805598E-1,2.987908125E-1,3.919887543E-2
1.195029063E1,-4.012799263E-1,1.116302609E-1,9.508495331E-1
1.196029063E1,-3.806934953E-1,-4.999530315E-2,2.026200294E0
1.197029063E1,-5.698853731E-1,-9.693646431E-2,3.155018806E0
1.198029063E1,-8.583501577E-1,-2.466684580E-2,4.165750504E0
1.199029063E1,-1.025460720E0,1.553067565E-1,4.721437454E0
1.200029063E1,-7.348733544E-1,1.272400618E-1,4.594506264E0
1.201029063E1,-1.643079221E-1,1.165013909E-1,4.158350945E0
1.202029063E1,3.085083961E-1,3.559107780E-1,3.903482437E0
1.203029063E1,5.417837501E-1,5.534728169E-1,4.064088821E0
1.204029063E1,4.959190190E-1,4.163416028E-1,4.692980766E0
1.205029063E1,8.807450533E-2,5.044461414E-2,5.504179955E0
1.206029063E1,-5.726531744E-1,-2.781683505E-1,6.129794121E0
1.207029063E1,-1.156844497E0,-4.957791865E-1,6.530812263E0
1.208029063E1,-1.506213427E0,-6.113525033E-1,6.504595757E0
1.209029063E1,-1.454682112E0,-8.147054911E-1,5.933352470E0
1.210029063E1,-1.017279625E0,-1.076169014E0,5.001128197E0
1.211029063E1,-3.982288539E-1,-1.231203318E0,3.939564705E0
1.212029063E1,2.436504066E-1,-1.302515984E0,2.887216568E0
1.213029063E1,7.569584846E-1,-1.313586950E0,1.731844902E0
1.214029063E1,1.185162187E0,-1.298698664E0,3.931884766E-1
1.215029063E1,1.457520962E0,-1.229876161E0,-9.583368301E-1
1.216029063E1,1.653104067E0,-1.081124783E0,-2.258596420E0
1.217029063E1,1.895001173E0,-9.556624889E-1,-3.491317272E0
1.218029063E1,2.203284979E0,-9.160910845E-1,-4.573091984E0
1.219029063E1,2.446247339E0,-8.485643268E-1,-5.342209816E0
1.220029063E1,2.527852774E0,-6.953761578E-1,-5.736130238E0
1.221029063E1,2.430994272E0,-5.248574018E-1,-5.860072613E0
1.222029063E1,2.141072989E0,-4.103770852E-1,-5.659013748E0
1.223029063E1,1.635714293E0,-3.760093153E-1,-5.248636246E0
1.224029063E1,1.048153877E0,-4.587894380E-1,-4.816406250E0
1.225029063E1,4.316853881E-1,-5.686727166E-1,-4.522243023E0
1.226029063E1,-9.848222882E-2,-6.961911321E-1,-4.397389412E0
1.227029063E1,-5.026122332E-1,-7.621397972E-1,-4.338308334E0
1.228029063E1,-7.208350897E-1,-7.501061559E-1,-4.316392899E0
1.229029063E1,-7.886377573E-1,-6.523650885E-1,-4.272505760E0
1.230029063E1,-8.510402441E-1,-4.357874990E-1,-4.097194672E0
1.231029063E1,-9.203826785E-1,-1.512006074E-1,-3.851050377E0
1.232029063E1,-1.093918324E0,9.165450931E-2,-3.648334980E0
1.233029063E1,-1.237465858E0,2.475854605E-1,-3.498329639E0
1.234029063E1,-1.237352848E0,4.221172333E-1,-3.445020199E0
1.235029063E1,-1.033716559E0,5.923539400E-1,-3.593836784E0
1.236029063E1,-5.825814009E-1,7.280738354E-1,-3.714217663E0
1.237029063E1,-1.084928215E-1,9.124601483E-1,-3.833619595E0
1.238029063E1,3.387412131E-1,1.151707649E0,-3.636325836E0
1.239029063E1,6.790047884E-1,1.333462358E0,-3.111163139E0
1.240029063E1,8.362956643E-1,1.399211526E0,-2.204257011E0
1.241029063E1,6.311641335E-1,1.398583412E0,-1.006861687E0
1.242029063E1,2.535437047E-1,1.293802381E0,3.232097626E-1
1.243029063E1,-1.609178185E-1,1.096979141E0,1.476086617E0
1.244029063E1,-9.258456230E-1,1.022165775E0,2.336711884E0
1.245029063E1,-1.818450809E0,1.025585890E0,3.147330284E0
1.246029063E1,-2.524423122E0,1.127786040E0,3.800534248E0
1.247029063E1,-2.963210106E0,1.271477580E0,4.257616997E0
1.248029063E1,-3.027722359E0,1.443440437E0,4.550228119E0
1.249029063E1,-2.889175415E0,1.597494602E0,4.697503090E0
1.250029063E1,-2.595477581E0,1.691856742E0,4.700385094E0
1.251029063E1,-2.339857578E0,1.703930497E0,4.618158340E0
1.252029063E1,-2.081301689E0,1.602982759E0,4.600770950E0
1.253029063E1,-1.782720447E0,1.429443002E0,4.720612526E0
1.254029063E1,-1.473959446E0,1.274728775E0,4.855914116E0
1.255029063E1,-1.457969189E0,1.294325948E0,4.842360497E0
1.256029063E1,-1.406230927E0,1.350688219E0,4.665538788E0
1.257029063E1,-1.015375614E0,1.093768835E0,4.432652473E0
1.258029063E1,-5.064701438E-1,6.399683356E-1,4.576745987E0
1.259029063E1,-1.908429861E-1,6.072878838E-2,5.371162415E0
1.260029063E1,-1.489197016E-1,-5.873050094E-1,6.408549309E0
1.261029063E1,-3.964422345E-1,-1.192606926E0,7.010953903E0
1.262029063E1,-8.148120046E-1,-1.775296569E0,6.807303429E0
1.263029063E1,-1.268676758E0,-2.323456287E0,5.989291191E0
1.264029063E1,-1.601188302E0,-2.732011318E0,4.779527664E0
1.265029063E1,-1.832178712E0,-2.826084137E0,3.409622192E0
1.266029063E1,-1.906342983E0,-2.609397888E0,1.926081657E0
1.267029063E1,-1.673116684E0,-2.319597960E0,4.360427856E-1
1.268029063E1,-1.394225955E0,-1.983432293E0,-9.768848419E-1
1.269029063E1,-1.144271374E0,-1.641540766E0,-2.303368568E0
1.270029063E1,-8.602347374E-1,-1.416100621E0,-3.434290886E0
1.271029063E1,-5.877875686E-1,-1.233182907E0,-4.171085358E0
1.272029063E1,-4.419373870E-1,-1.080671906E0,-4.511528015E0
1.273029063E1,-3.668529391E-1,-9.496216774E-1,-4.422677517E0
1.274029063E1,-2.294902802E-1,-9.020999670E-1,-4.104069710E0
1.275029063E1,-1.120548248E-1,-8.937465549E-1,-3.760027409E0
1.276029063E1,-6.213998795E-2,-8.602070808E-1,-3.429618835E0
1.277029063E1,5.634129047E-3,-8.717548847E-1,-3.038986683E0
1.278029063E1,1.621012092E-1,-9.912261963E-1,-2.562298775E0
1.279029063E1,1.786302030E-1,-1.134791732E0,-2.073824883E0
1.280029063E1,-3.982147574E-2,-1.165253520E0,-1.610750198E0
1.281029063E1,-2.887485921E-1,-1.165235043E0,-1.147397041E0
1.282029063E1,-4.555939436E-1,-1.181618333E0,-8.920116425E-1
1.283029063E1,-6.069844961E-1,-1.192088366E0,-8.895015717E-1
1.284029063E1,-7.290742397E-1,-1.121318579E0,-1.158050537E0
1.285029063E1,-7.033324242E-1,-1.032495856E0,-1.672425270E0
1.286029063E1,-5.742369890E-1,-8.989851475E-1,-2.253705978E0
1.287029063E1,-4.008678496E-1,-7.140005231E-1,-2.767530441E0
1.288029063E1,-1.958440542E-1,-4.975054860E-1,-3.223167419E0
1.289029063E1,1.818600297E-2,-3.308981955E-1,-3.579214096E0
1.290029063E1,1.735141873E-1,-1.149706841E-1,-3.701292992E0
1.291029063E1,3.401965499E-1,4.960834980E-3,-3.593093872E0
1.292029063E1,5.838714242E-1,4.683673382E-3,-3.516182899E0
1.293029063E1,8.515584469E-1,-4.349219799E-2,-3.556833267E0
1.294029063E1,9.408041239E-1,1.457440853E-2,-3.632968903E0
1.295029063E1,8.562622070E-1,1.623160243E-1,-3.448778152E0
1.296029063E1,6.816014051E-1,3.391765952E-1,-2.973640442E0
1.297029063E1,5.144616365E-1,4.213615060E-1,-2.371152878E0
1.298029063E1,4.413821697E-1,4.089093208E-1,-1.749784470E0
1.299029063E1,4.412291646E-1,4.073534608E-1,-1.168575287E0
1.300029063E1,4.266626239E-1,4.280022383E-1,-6.978244781E-1
1.301029063E1,3.837601542E-1,4.425455928E-1,-3.453893661E-1
1.302029063E1,4.150598049E-1,3.911550045E-1,4.824638367E-3
1.303029063E1,4.254949391E-1,2.535412908E-1,4.598655701E-1
1.304029063E1,3.473867178E-1,1.144928932E-1,9.463729858E-1
1.305029063E1,2.215330899E-1,1.794546843E-2,1.381681442E0
1.306029063E1,1.508188397E-1,-7.559305429E-2,1.904294014E0
1.307029063E1,2.064596862E-1,-1.724564433E-1,2.409304619E0
1.308029063E1,2.085348219E-1,-1.871684790E-1,2.720852852E0
1.309029063E1,4.630240798E-2,-1.019304395E-1,2.869319916E0
1.310029063E1,-1.350963116E-1,1.945871115E-2,2.801779747E0
1.311029063E1,-3.773343563E-1,1.845589280E-1,2.599544525E0
1.312029063E1,-5.079856515E-1,3.774500489E-1,2.197389603E0
1.313029063E1,-2.988593876E-1,4.967923164E-1,1.751013756E0
1.314029063E1,5.379479006E-2,6.073676348E-1,1.124197006E0
1.315029063E1,5.193564296E-1,6.787959337E-1,5.603122711E-1
1.316029063E1,8.846524954E-1,9.205604196E-1,7.901601791E-1
1.317029063E1,1.146891832E0,8.330930471E-1,2.008580208E0
1.318029063E1,1.306797147E0,2.092621326E-1,3.825456619E0
1.319029063E1,8.757597208E-1,-3.894025683E-1,5.382768631E0
1.320029063E1,-6.666920334E-2,-7.890316248E-1,6.285895348E0
1.321029063E1,-9.475544691E-1,-1.026905417E0,6.440773010E0
1.322029063E1,-1.360833287E0,-1.191548109E0,5.622022629E0
1.323029063E1,-1.385799408E0,-1.188853741E0,4.300354004E0
1.324029063E1,-1.083427787E0,-9.268163443E-1,2.831202507E0
1.325029063E1,-4.700294733E-1,-6.049388647E-1,1.430175781E0
1.326029063E1,1.660350561E-1,-3.386989534E-1,5.620889664E-1
1.327029063E1,4.794994593E-1,-1.873602569E-1,3.534507751E-2
1.328029063E1,4.488772750E-1,-2.631323934E-1,-5.029840469E-1
1.329029063E1,3.084642291E-1,-4.164210558E-1,-1.085509300E0
1.330029063E1,1.189168766E-1,-4.558476806E-1,-1.690303802E0
1.331029063E1,-3.305942565E-2,-4.185920358E-1,-2.301677704E0
1.332029063E1,-1.781450659E-1,-3.210326731E-1,-2.905900955E0
1.333029063E1,-3.638054729E-1,-1.625254452E-1,-3.541540146E0
1.334029063E1,-4.496116638E-1,1.867869496E-2,-4.137662888E0
1.335029063E1,-3.640499115E-1,1.979667246E-1,-4.547838211E0
1.336029063E1,-2.159734964E-1,3.913967907E-1,-4.728128433E0
1.337029063E1,-9.935808182E-2,5.760139227E-1,-4.799720764E0
1.338029063E1,-3.826349974E-3,6.841659546E-1,-4.797220230E0
1.339029063E1,7.804045081E-2,7.634623051E-1,-4.628053665E0
1.340029063E1,1.410070360E-1,7.977689505E-1,-4.376154900E0
1.341029063E1,2.222376913E-1,7.417699695E-1,-4.166748047E0
1.342029063E1,3.666889369E-1,6.231511831E-1,-3.986940384E0
1.343029063E1,4.850036502E-1,5.479882956E-1,-3.783859253E0
1.344029063E1,5.703897476E-1,5.257837772E-1,-3.444791317E0
1.345029063E1,5.494371653E-1,4.990772605E-1,-2.779273033E0
1.346029063E1,4.537785053E-1,4.813317955E-1,-1.837543488E0
1.347029063E1,3.864990175E-1,4.735205770E-1,-7.500391006E-1
1.348029063E1,3.701143861E-1,4.720764756E-1,2.729396820E-1
1.349029063E1,3.064347506E-1,5.244448781E-1,9.968891144E-1
1.350029063E1,1.245742738E-1,7.115981579E-1,1.215070724E0
1.351029063E1,-1.292543262E-1,9.976248741E-1,9.367065430E-1
1.352029063E1,-3.727634549E-1,1.318296194E0,4.781398773E-1
1.353029063E1,-6.385916471E-1,1.633675337E0,1.805334091E-1
1.354029063E1,-8.616493940E-1,1.961537123E0,2.727060318E-1
1.355029063E1,-1.077728033E0,2.269095898E0,6.913175583E-1
1.356029063E1,-1.243074656E0,2.398369074E0,1.332640648E0
1.357029063E1,-1.360822320E0,2.389116049E0,1.856099129E0
1.358029063E1,-1.511245847E0,2.380205631E0,2.045004845E0
1.359029063E1,-1.588064671E0,2.366731167E0,1.954894066E0
1.360029063E1,-1.424739242E0,2.357341051E0,1.747115135E0
1.361029063E1,-1.098405480E0,2.283582926E0,1.409207344E0
1.362029063E1,-7.964495420E-1,2.263154984E0,1.010463715E0
1.363029063E1,-3.965839148E-1,2.342943668E0,5.865640640E-1
1.364029063E1,3.553935885E-1,2.392700195E0,4.581327438E-1
1.365029063E1,1.110381722E0,2.448079109E0,8.202180862E-1
1.366029063E1,1.625801802E0,1.873979092E0,1.398536682E0
1.367029063E1,1.860114098E0,1.167488098E0,3.336187363E0
1.368029063E1,1.946486592E0,-2.303139567E-1,5.819203377E0
1.369029063E1,1.577199578E0,-1.604578018E0,8.897767067E0
1.370029063E1,8.991536498E-1,-2.777078152E0,1.150490093E1
1.371029063E1,-1.199437305E-1,-3.413229704E0,1.232312679E1
1.372029063E1,-1.062504292E0,-3.771084547E0,1.122704220E1
1.373029063E1,-1.474991441E0,-4.145848274E0,8.977711678E0
1.374029063E1,-1.414537549E0,-4.149726391E0,6.276712418E0
1.375029063E1,-9.992036819E-1,-3.755356789E0,3.900584221E0
1.376029063E1,-2.910746336E-1,-3.213776350E0,2.064153671E0
1.377029063E1,4.285215139E-1,-2.630005360E0,7.323713303E-1
1.378029063E1,8.640637398E-1,-2.031640291E0,-1.378965378E-1
1.379029063E1,1.183701992E0,-1.702828169E0,-6.169958115E-1
1.380029063E1,1.641696811E0,-1.777475834E0,-8.594322205E-1
1.381029063E1,1.979321241E0,-1.955090404E0,-1.144807816E0
1.382029063E1,2.125675917E0,-2.021497965E0,-1.357719421E0
1.383029063E1,2.144262075E0,-1.986614466E0,-1.462784767E0
1.384029063E1,1.979380012E0,-1.994634867E0,-1.533329964E0
1.385029063E1,1.683105588E0,-1.949215174E0,-1.612234116E0
1.386029063E1,1.242498755E0,-1.841457725E0,-1.695888519E0
1.387029063E1,8.223652840E-1,-1.741580248E0,-1.885026932E0
1.388029063E1,5.363962650E-1,-1.733617067E0,-2.189529419E0
1.389029063E1,3.766853511E-1,-1.761943579E0,-2.616452217E0
1.390029063E1,3.161396980E-1,-1.814526081E0,-3.098796844E0
1.391029063E1,3.175651431E-1,-1.862684250E0,-3.660172462E0
1.392029063E1,4.197537601E-1,-1.819224358E0,-4.076086044E0
1.393029063E1,5.816265345E-1,-1.703977346E0,-4.478380203E0
1.394029063E1,7.899563909E-1,-1.579732180E0,-4.860278130E0
1.395029063E1,1.033802867E0,-1.420686483E0,-5.149088860E0
1.396029063E1,1.338321805E0,-1.323744297E0,-5.378886223E0
1.397029063E1,1.665506482E0,-1.261185646E0,-5.512176514E0
1.398029063E1,1.900124192E0,-1.187006950E0,-5.474679947E0
1.399029063E1,2.046596289E0,-1.063255429E0,-5.232957840E0
1.400029063E1,2.234481573E0,-9.334061742E-1,-4.893192768E0
1.401029063E1,2.404360294E0,-8.632277250E-1,-4.546282768E0
1.402029063E1,2.415001154E0,-8.510730863E-1,-4.164351463E0
1.403029063E1,2.228173733E0,-9.256695509E-1,-3.852639198E0
1.404029063E1,1.816171885E0,-9.182844758E-1,-3.607423306E0
1.405029063E1,1.275437713E0,-8.276638389E-1,-3.344851017E0
1.406029063E1,1.017441511E0,-7.895791531E-1,-2.844354153E0
1.407029063E1,9.220042229E-1,-7.853416800E-1,-2.169332504E0
1.408029063E1,9.127972722E-1,-7.234733701E-1,-1.457715034E0
1.409029063E1,7.357673049E-1,-5.977758765E-1,-9.855127335E-1
1.410029063E1,4.926245213E-1,-4.899086356E-1,-7.222652435E-1
1.411029063E1,2.852844894E-1,-3.425869942E-1,-4.218873978E-1
1.412029063E1,1.172699779E-2,-9.794354439E-2,4.622983932E-1
1.413029063E1,-3.672919869E-1,8.543899655E-2,2.059354782E0
1.414029063E1,-9.166487455E-1,3.499402404E-1,4.095967293E0
1.415029063E1,-1.346893191E0,9.237210155E-1,6.155714989E0
1.416029063E1,-1.174078345E0,1.416109204E0,7.598194122E0
1.417029063E1,-4.681943953E-1,1.649377346E0,8.129383087E0
1.418029063E1,3.190419078E-1,1.683805823E0,7.606622696E0
1.419029063E1,7.855206728E-1,1.669415712E0,6.590236664E0
1.420029063E1,7.402583957E-1,1.538316727E0,5.734014511E0
1.421029063E1,2.584496140E-1,1.336759329E0,5.235963821E0
1.422029063E1,-1.754937619E-1,8.809611201E-1,5.282105446E0
1.423029063E1,-5.831299424E-1,2.723326683E-1,5.609904289E0
1.424029063E1,-1.091019750E0,-1.738544703E-1,5.767581940E0
1.425029063E1,-1.489670277E0,-4.805567861E-1,5.631515503E0
1.426029063E1,-1.553464890E0,-7.689732909E-1,5.218653679E0
1.427029063E1,-1.367596269E0,-9.529318810E-1,4.537539482E0
1.428029063E1,-8.919723034E-1,-1.079475641E0,3.656720161E0
1.429029063E1,7.746130228E-3,-1.309501171E0,2.666062355E0
1.430029063E1,9.754830599E-1,-1.542886496E0,1.532665253E0
1.431029063E1,1.847606659E0,-1.633659840E0,4.787931442E-1
1.432029063E1,2.575337410E0,-1.674810410E0,-4.301900864E-1
1.433029063E1,3.027031898E0,-1.683654308E0,-1.323539734E0
1.434029063E1,3.035856247E0,-1.525703430E0,-2.242814064E0
1.435029063E1,2.688521624E0,-1.243138790E0,-3.068017006E0
1.436029063E1,2.309758425E0,-1.051894307E0,-3.707992077E0
1.437029063E1,2.031238079E0,-9.752068520E-1,-4.276956558E0
1.438029063E1,1.735043764E0,-8.992619514E-1,-4.782993317E0
1.439029063E1,1.495376348E0,-8.034533262E-1,-5.216925621E0
1.440029063E1,1.332873344E0,-7.011167407E-1,-5.509303093E0
1.441029063E1,1.175474286E0,-5.267427564E-1,-5.626770973E0
1.442029063E1,9.534367323E-1,-3.019415140E-1,-5.571414471E0
1.443029063E1,6.660981178E-1,-9.095623344E-2,-5.450864792E0
1.444029063E1,4.413520694E-1,8.326777816E-2,-5.317324162E0
1.445029063E1,3.335743845E-1,1.417539269E-1,-5.258357048E0
1.446029063E1,4.038801789E-1,1.154325753E-1,-5.282221794E0
1.447029063E1,6.360340714E-1,9.457677603E-2,-5.320736408E0
1.448029063E1,6.787950993E-1,2.339074612E-1,-5.309762478E0
1.449029063E1,6.886357069E-1,3.913971782E-1,-5.199864388E0
1.450029063E1,8.494264483E-1,4.867274165E-1,-4.877133369E0
1.451029063E1,1.013272166E0,6.041438580E-1,-4.486852646E0
1.452029063E1,1.056585431E0,7.919588685E-1,-3.947090149E0
1.453029063E1,1.042845130E0,8.997708559E-1,-3.210276127E0
1.454029063E1,9.808543324E-1,8.492857218E-1,-2.486048222E0
1.455029063E1,8.056110144E-1,7.961146832E-1,-1.846634865E0
1.456029063E1,5.041798353E-1,8.022142053E-1,-1.177973747E0
1.457029063E1,3.281321228E-1,8.020703197E-1,-3.502016068E-1
1.458029063E1,2.738437355E-1,8.769574165E-1,6.172790527E-1
1.459029063E1,3.065626323E-1,1.052353621E0,1.699761391E0
1.460029063E1,4.250658751E-1,1.193338156E0,2.868313789E0
1.461029063E1,3.654189706E-1,1.278861761E0,3.941328049E0
1.462029063E1,-4.895017296E-2,1.387521029E0,4.662458420E0
1.463029063E1,-7.108958960E-1,1.455501556E0,5.239203453E0
1.464029063E1,-1.336328983E0,1.452070117E0,5.740386963E0
1.465029063E1,-1.707528591E0,1.461284399E0,6.060412407E0
1.466029063E1,-1.879097939E0,1.561270595E0,6.193985939E0
1.467029063E1,-1.760654211E0,1.659589171E0,6.123532295E0
1.468029063E1,-1.467822194E0,1.753277421E0,5.913469315E0
1.469029063E1,-1.217664719E0,1.781144619E0,5.726758957E0
1.470029063E1,-1.129890561E0,1.735064387E0,5.689545631E0
1.471029063E1,-1.237091303E0,1.671810150E0,5.443356514E0
1.472029063E1,-1.451071858E0,1.690721512E0,4.795106888E0
1.473029063E1,-1.485100985E0,1.715196609E0,4.029755592E0
1.474029063E1,-1.202508450E0,1.726223707E0,3.559282303E0
1.475029063E1,-6.734648943E-1,1.477060556E0,3.381711960E0
1.476029063E1,-1.875412464E-1,1.007100821E0,3.769513130E0
1.477029063E1,1.132733822E-1,3.187908828E-1,4.784963608E0
1.478029063E1,5.819690228E-2,-4.072611332E-1,5.638686180E0
1.479029063E1,-3.247099519E-1,-1.010990024E0,5.791079521E0
1.480029063E1,-8.150758147E-1,-1.445281506E0,5.175462723E0
1.481029063E1,-1.144779682E0,-1.744499445E0,3.942587852E0
1.482029063E1,-1.199514389E0,-1.889707565E0,2.385207176E0
1.483029063E1,-8.703709841E-1,-1.937558174E0,6.933765411E-1
1.484029063E1,-2.798895240E-1,-1.966211796E0,-9.869337082E-1
1.485029063E1,4.193415642E-1,-1.943809986E0,-2.492762566E0
1.486029063E1,1.100594282E0,-1.894018650E0,-3.634334564E0
1.487029063E1,1.604515314E0,-1.809828520E0,-4.402333260E0
1.488029063E1,1.996613026E0,-1.802962542E0,-4.682415009E0
1.489029063E1,2.307334185E0,-1.839793086E0,-4.577838898E0
1.490029063E1,2.537493229E0,-1.970151901E0,-3.969204903E0
1.491029063E1,2.531973124E0,-2.067311287E0,-3.077755928E0
1.492029063E1,2.331366539E0,-2.021796465E0,-2.234729767E0
1.493029063E1,2.088621616E0,-2.005413294E0,-1.715430260E0
1.494029063E1,1.931077957E0,-2.038445473E0,-1.489238739E0
1.495029063E1,1.871462107E0,-2.111737251E0,-1.580735207E0
1.496029063E1,1.813782454E0,-2.146105289E0,-1.895650387E0
1.497029063E1,1.569553375E0,-1.983050823E0,-2.259191036E0
1.498029063E1,1.308382154E0,-1.665571094E0,-2.569293022E0
1.499029063E1,1.139019966E0,-1.399603844E0,-2.915184021E0
1.500029063E1,9.758245349E-1,-1.126509190E0,-3.219700336E0
1.501029063E1,7.164366841E-1,-8.567020893E-1,-3.494355679E0
1.502029063E1,5.210538507E-1,-6.176191568E-1,-3.641381264E0
1.503029063E1,5.232905746E-1,-4.212967753E-1,-3.440995216E0
1.504029063E1,6.193333268E-1,-2.577242851E-1,-3.035499573E0
1.505029063E1,7.651709318E-1,-1.271535754E-1,-2.657598972E0
1.506029063E1,8.135954738E-1,6.209051609E-2,-2.405482769E0
1.507029063E1,6.475784183E-1,2.945116758E-1,-2.141975403E0
1.508029063E1,4.032653570E-1,4.573336244E-1,-1.805669785E0
1.509029063E1,1.137949228E-1,5.639047623E-1,-1.487765312E0
1.510029063E1,-1.699405909E-1,6.654995680E-1,-1.097225189E0
1.511029063E1,-4.176512957E-1,8.461469412E-1,-6.981439590E-1
1.512029063E1,-3.757604361E-1,9.574581981E-1,-3.672876358E-1
1.513029063E1,-6.887114048E-2,1.038869262E0,-6.094455719E-2
1.514029063E1,3.563468456E-1,1.101822495E0,1.736297607E-1
1.515029063E1,7.004193068E-1,1.136351824E0,3.087940216E-1
1.516029063E1,9.234092832E-1,1.043909431E0,3.613080978E-1
1.517029063E1,8.315469623E-1,8.231418133E-1,4.066076279E-1
1.518029063E1,5.499610901E-1,5.648669004E-1,5.339031219E-1
1.519029063E1,2.605352402E-1,4.189863205E-1,7.918949127E-1
1.520029063E1,1.226491928E-1,4.022312164E-1,1.161587715E0
1.521029063E1,1.446786523E-1,4.465285540E-1,1.463214874E0
1.522029063E1,2.614830732E-1,4.890415668E-1,1.614277840E0
1.523029063E1,5.171679854E-1,3.961989880E-1,1.808079720E0
1.524029063E1,5.691932440E-1,3.028628826E-1,2.186254501E0
1.525029063E1,5.000413656E-1,3.641427159E-1,2.787000656E0
1.526029063E1,6.581261158E-1,4.310106039E-1,3.267732620E0
1.527029063E1,9.736542702E-1,3.071812987E-1,3.205165863E0
1.528029063E1,1.324086189E0,3.225535154E-2,2.667667389E0
1.529029063E1,1.590940237E0,-2.746378779E-1,2.168341637E0
1.530029063E1,1.694159031E0,-6.135941744E-1,2.103816032E0
1.531029063E1,1.637541652E0,-1.029614449E0,2.563034058E0
1.532029063E1,1.309871197E0,-1.481102943E0,3.273266792E0
1.533029063E1,6.932761073E-1,-1.756881952E0,3.928723335E0
1.534029063E1,-5.791008472E-2,-1.783518672E0,4.274645805E0
1.535029063E1,-5.735043883E-1,-1.746980429E0,4.170566559E0
1.536029063E1,-6.523538232E-1,-1.732253313E0,3.410014153E0
1.537029063E1,-4.155623913E-1,-1.645261884E0,2.228008270E0
1.538029063E1,1.670376062E-1,-1.415528536E0,9.648981094E-1
1.539029063E1,9.848158956E-1,-1.173907757E0,-2.919120789E-1
1.540029063E1,1.857999206E0,-1.062542319E0,-1.371166229E0
1.541029063E1,2.518710613E0,-9.981065989E-1,-2.166649818E0
1.542029063E1,2.882398605E0,-9.678076506E-1,-2.537572861E0
1.543029063E1,3.044201374E0,-9.908991456E-1,-2.642549992E0
1.544029063E1,3.077284813E0,-1.021178961E0,-2.729248047E0
1.545029063E1,2.945445299E0,-1.042648792E0,-2.931857109E0
1.546029063E1,2.581628799E0,-9.809442759E-1,-3.210636139E0
1.547029063E1,2.019137859E0,-8.241121173E-1,-3.623673439E0
1.548029063E1,1.474827766E0,-6.902702451E-1,-4.054340839E0
1.549029063E1,1.042932510E0,-6.003586054E-1,-4.404320717E0
1.550029063E1,6.681751609E-1,-4.429126084E-1,-4.615120888E0
1.551029063E1,4.425228834E-1,-3.321149349E-1,-4.629302025E0
1.552029063E1,4.301453829E-1,-2.518066764E-1,-4.455113411E0
1.553029063E1,4.917747974E-1,-1.237716675E-1,-4.183107376E0
1.554029063E1,5.874814987E-1,4.122984409E-2,-3.861595154E0
1.555029063E1,6.778130531E-1,2.029727101E-1,-3.533791542E0
1.556029063E1,6.865890026E-1,3.479455113E-1,-3.303735733E0
1.557029063E1,6.725361347E-1,4.783247113E-1,-3.203149796E0
1.558029063E1,6.190934181E-1,6.154813766E-1,-3.044748306E0
1.559029063E1,5.411581993E-1,7.537703514E-1,-2.836079597E0
1.560029063E1,4.329372644E-1,8.486998081E-1,-2.574172974E0
1.561029063E1,3.752007186E-1,9.568017125E-1,-2.315876484E0
1.562029063E1,3.554300070E-1,1.076984048E0,-2.035524368E0
1.563029063E1,4.447199106E-1,1.179927111E0,-1.533615112E0
1.564029063E1,5.919429064E-1,1.246874452E0,-7.764272690E-1
1.565029063E1,7.854419947E-1,1.173083544E0,2.031297684E-1
1.566029063E1,1.007486820E0,1.046531677E0,1.195880890E0
1.567029063E1,1.194209456E0,8.948657513E-1,1.979953766E0
1.568029063E1,1.164658189E0,7.299097776E-1,2.339452744E0
1.569029063E1,9.586741328E-1,5.585310459E-1,2.627447128E0
1.570029063E1,4.758511186E-1,5.194978714E-1,2.740022659E0
1.571029063E1,-2.956975996E-2,5.140482187E-1,2.840691566E0
1.572029063E1,-7.570080161E-1,7.670915127E-1,2.872834206E0
1.573029063E1,-1.434633255E0,1.062503457E0,2.724910736E0
1.574029063E1,-1.738984227E0,1.151362896E0,2.607110023E0
1.575029063E1,-1.844874620E0,1.173555374E0,2.648281097E0
1.576029063E1,-1.975260019E0,1.297577381E0,2.772452354E0
1.577029063E1,-1.971973419E0,1.451214790E0,2.920725822E0
1.578029063E1,-1.728422523E0,1.413978457E0,3.077455521E0
1.579029063E1,-1.478621602E0,1.288280129E0,3.288792610E0
1.580029063E1,-1.495080590E0,1.245939136E0,3.416992188E0
1.581029063E1,-1.692953706E0,1.301168799E0,3.331665039E0
1.582029063E1,-1.911241531E0,1.394204140E0,3.010057449E0
1.583029063E1,-1.939879894E0,1.277728677E0,2.513567924E0
1.584029063E1,-1.705990434E0,9.832684994E-1,2.157244682E0
1.585029063E1,-1.347297907E0,6.630957723E-1,2.430713654E0
1.586029063E1,-9.542922378E-1,2.616561055E-1,3.489974022E0
1.587029063E1,-6.678074598E-1,-2.433963418E-1,4.751320839E0
1.588029063E1,-6.689787507E-1,-7.239217758E-1,5.391583443E0
1.589029063E1,-8.459542394E-1,-1.146580338E0,5.266152382E0
1.590029063E1,-1.125390172E0,-1.401458859E0,4.508874893E0
1.591029063E1,-1.337430716E0,-1.510782242E0,3.264456749E0
1.592029063E1,-1.342876554E0,-1.450997710E0,1.768988609E0
1.593029063E1,-1.120558619E0,-1.288297534E0,2.871227264E-1
1.594029063E1,-7.787401676E-1,-1.125656247E0,-9.072198868E-1
1.595029063E1,-4.649026692E-1,-9.119893312E-1,-1.772001743E0
1.596029063E1,-2.159085274E-1,-7.721067071E-1,-2.434059143E0
1.597029063E1,-6.085067987E-2,-6.821603775E-1,-2.818079948E0
1.598029063E1,1.308593154E-1,-7.825806737E-1,-2.738881111E0
1.599029063E1,2.608772516E-1,-9.978663921E-1,-2.270237923E0
1.600029063E1,2.902093530E-1,-1.156469345E0,-1.625413895E0
1.601029063E1,9.631720185E-2,-1.223466754E0,-1.034667969E0
1.602029063E1,-1.951751113E-1,-1.303683639E0,-5.360298157E-1
1.603029063E1,-4.468595982E-1,-1.385209441E0,-2.523956299E-1
1.604029063E1,-6.222379804E-1,-1.444806218E0,-2.814750671E-1
1.605029063E1,-6.791021824E-1,-1.469906807E0,-6.778268814E-1
1.606029063E1,-5.321994424E-1,-1.473939538E0,-1.328991890E0
1.607029063E1,-3.037460744E-1,-1.371503711E0,-2.144765854E0
1.608029063E1,-9.075203538E-2,-1.180680513E0,-2.834928513E0
1.609029063E1,7.789456844E-2,-9.952273965E-1,-3.294467449E0
1.610029063E1,2.164354622E-1,-8.672020435E-1,-3.562422276E0
1.611029063E1,2.393712103E-1,-7.807527781E-1,-3.744016171E0
1.612029063E1,1.557342708E-1,-7.026747465E-1,-3.835063934E0
1.613029063E1,1.549496949E-1,-6.953451633E-1,-3.893341064E0
1.614029063E1,1.644492000E-1,-6.923636198E-1,-4.060618877E0
1.615029063E1,1.426755786E-1,-5.982707739E-1,-4.134697914E0
1.616029063E1,6.292498112E-2,-4.247674346E-1,-3.966562271E0
1.617029063E1,-1.278747618E-1,-2.611030936E-1,-3.637894630E0
1.618029063E1,-2.929083705E-1,-1.381256282E-1,-3.136234283E0
1.619029063E1,-4.449206591E-1,-7.211980224E-2,-2.510664940E0
1.620029063E1,-6.272380352E-1,-9.761714935E-2,-1.896130085E0
1.621029063E1,-6.867247224E-1,-8.488483727E-2,-1.322020531E0
1.622029063E1,-5.864554644E-1,-2.529007196E-2,-7.916965485E-1
1.623029063E1,-4.039638638E-1,6.390339136E-2,-2.569732666E-1
1.624029063E1,-1.788848042E-1,1.403750777E-1,3.357524872E-1
1.625029063E1,-5.234664679E-2,2.673381567E-1,9.376239777E-1
1.626029063E1,-1.918673515E-3,3.644653857E-1,1.554236412E0
1.627029063E1,-7.426360250E-2,3.406876922E-1,2.020730972E0
1.628029063E1,-9.173297882E-2,2.001503706E-1,2.380554199E0
1.629029063E1,7.621198893E-2,-3.245168924E-2,2.553976059E0
1.630029063E1,3.154296279E-1,-1.951299012E-1,2.640837669E0
1.631029063E1,4.701002240E-1,-2.315937579E-1,2.775661469E0
1.632029063E1,5.360448360E-1,-1.573795080E-1,2.994199753E0
1.633029063E1,4.912751913E-1,-9.722723067E-2,3.240513802E0
1.634029063E1,3.047892451E-1,-5.568774790E-2,3.435944557E0
1.635029063E1,-7.061946392E-2,5.616344512E-2,3.398611069E0
1.636029063E1,-5.245711803E-1,2.714964449E-1,2.967798233E0
1.637029063E1,-7.770355344E-1,4.462288320E-1,2.404554367E0
1.638029063E1,-6.309891939E-1,5.429313779E-1,1.786652565E0
1.639029063E1,-2.338324189E-1,6.478012800E-1,1.271405220E0
1.640029063E1,3.315603137E-1,7.179858088E-1,1.205174446E0
1.641029063E1,6.965830326E-1,6.971541047E-1,1.492913246E0
1.642029063E1,7.690219879E-1,6.018734574E-1,2.473932266E0
1.643029063E1,5.942001343E-1,2.935280502E-1,3.837154388E0
1.644029063E1,2.980010509E-1,-1.377330124E-1,4.910736084E0
1.645029063E1,-2.207329273E-1,-5.219032764E-1,5.306267738E0
1.646029063E1,-8.111102581E-1,-7.590819001E-1,4.888565063E0
1.647029063E1,-1.226415157E0,-9.329547882E-1,3.722254753E0
1.648029063E1,-1.255934715E0,-9.928750992E-1,2.244476318E0
1.649029063E1,-9.445142746E-1,-9.467206001E-1,7.539634705E-1
1.650029063E1,-4.007259011E-1,-8.626664877E-1,-3.435258865E-1
1.651029063E1,6.944406033E-2,-7.196882367E-1,-7.796373367E-1
1.652029063E1,4.700971842E-1,-6.168172956E-1,-4.003877640E-1
1.653029063E1,7.690620422E-1,-6.303499341E-1,2.059803009E-1
1.654029063E1,9.266411066E-1,-6.604826450E-1,3.173608780E-1
1.655029063E1,7.770271301E-1,-6.469565034E-1,-2.572183609E-1
1.656029063E1,3.610482216E-1,-6.034038663E-1,-1.277257919E0
1.657029063E1,-1.615193486E-1,-5.073012710E-1,-2.339520454E0
1.658029063E1,-6.445873976E-1,-4.327380061E-1,-3.234994888E0
1.659029063E1,-1.068803668E0,-3.207098544E-1,-3.884579659E0
1.660029063E1,-1.383425236E0,-2.065287977E-1,-4.243006229E0
1.661029063E1,-1.585209370E0,-9.853908420E-2,-4.315410614E0
1.662029063E1,-1.649802566E0,-1.375289410E-1,-4.256808281E0
1.663029063E1,-1.678657770E0,-2.220516056E-1,-4.257308006E0
1.664029063E1,-1.742513180E0,-2.178993821E-1,-4.328924656E0
1.665029063E1,-1.713894367E0,-1.895836741E-1,-4.382258415E0
1.666029063E1,-1.552878141E0,-1.725264788E-1,-4.359961510E0
1.667029063E1,-1.199521065E0,-1.392280906E-1,-4.176138401E0
1.668029063E1,-8.075128794E-1,-3.017696738E-2,-4.005595684E0
1.669029063E1,-3.936709166E-1,2.796259522E-2,-3.832648277E0
1.670029063E1,-1.482996047E-1,1.183088720E-1,-3.632968903E0
1.671029063E1,9.320873022E-2,2.090804279E-1,-3.343183517E0
1.672029063E1,3.669491410E-1,2.849469185E-1,-2.998223305E0
1.673029063E1,5.575088263E-1,3.162266612E-1,-2.607207775E0
1.674029063E1,5.620811582E-1,3.720037043E-1,-2.146746635E0
1.675029063E1,4.305126071E-1,4.000512958E-1,-1.505069733E0
1.676029063E1,3.036096096E-1,3.841464520E-1,-7.517366409E-1
1.677029063E1,2.240958810E-1,3.500204682E-1,-3.235816956E-2
1.678029063E1,1.746586561E-1,3.841437697E-1,5.859794617E-1
1.679029063E1,1.424075961E-1,4.390475452E-1,1.111075401E0
1.680029063E1,6.835651398E-2,5.253456235E-1,1.566821098E0
1.681029063E1,-9.651201963E-2,7.314107418E-1,1.955260277E0
1.682029063E1,-3.303474188E-1,1.032088757E0,2.014991760E0
1.683029063E1,-6.826469302E-1,1.304419518E0,1.727216721E0
1.684029063E1,-1.010847211E0,1.469186425E0,1.381543159E0
1.685029063E1,-1.125819802E0,1.567450523E0,1.326263428E0
1.686029063E1,-1.143017530E0,1.710460544E0,1.670693398E0
1.687029063E1,-1.193181872E0,1.821271062E0,2.231750488E0
1.688029063E1,-1.210309267E0,1.824672103E0,2.840789795E0
1.689029063E1,-1.134561062E0,1.789752603E0,3.521229744E0
1.690029063E1,-9.691413641E-1,1.686377883E0,4.271919250E0
1.691029063E1,-7.587118149E-1,1.492279410E0,4.748841286E0
1.692029063E1,-7.075226307E-1,1.473628163E0,4.861756325E0
1.693029063E1,-8.859316111E-1,1.652826548E0,4.459293365E0
1.694029063E1,-1.009140134E0,1.861045241E0,3.691282272E0
1.695029063E1,-7.614123821E-1,2.041848183E0,2.973552704E0
1.696029063E1,-2.362486422E-1,1.909470081E0,3.063887596E0
1.697029063E1,1.956641972E-1,1.433031201E0,4.322666168E0
1.698029063E1,2.768530548E-1,5.891399384E-1,5.721877098E0
1.699029063E1,-2.268420458E-1,-2.968601286E-1,6.536783218E0
1.700029063E1,-1.002964258E0,-1.005341172E0,6.873881340E0
1.701029063E1,-1.836302280E0,-1.483672023E0,6.571702957E0
1.702029063E1,-2.471560955E0,-1.806137085E0,5.667966843E0
1.703029063E1,-2.792488575E0,-2.040400267E0,4.184206963E0
1.704029063E1,-2.809772253E0,-2.119351625E0,2.481981277E0
1.705029063E1,-2.453101397E0,-2.070115328E0,8.566026688E-1
1.706029063E1,-1.818268657E0,-1.926353574E0,-5.400161743E-1
1.707029063E1,-1.078011751E0,-1.747009277E0,-1.725974083E0
1.708029063E1,-4.060125947E-1,-1.511240721E0,-2.614073753E0
1.709029063E1,1.338046491E-1,-1.273036242E0,-3.110643864E0
1.710029063E1,5.172262192E-1,-1.114253640E0,-3.182213306E0
1.711029063E1,8.329745531E-1,-1.151339531E0,-2.907215118E0
1.712029063E1,1.173532963E0,-1.242095232E0,-2.197574139E0
1.713029063E1,1.400000334E0,-1.290096521E0,-1.344937325E0
1.714029063E1,1.472168088E0,-1.362166882E0,-7.583742142E-1
1.715029063E1,1.345687389E0,-1.463457584E0,-6.680927277E-1
1.716029063E1,1.048228979E0,-1.569848537E0,-1.104022026E0
1.717029063E1,7.056773901E-1,-1.621662855E0,-1.716765404E0
1.718029063E1,4.800542593E-1,-1.629359484E0,-2.252116203E0
1.719029063E1,3.324732184E-1,-1.578105450E0,-2.678103447E0
1.720029063E1,3.105231225E-1,-1.461236358E0,-3.058363914E0
1.721029063E1,4.727008939E-1,-1.356376290E0,-3.404109001E0
1.722029063E1,7.932837009E-1,-1.299547672E0,-3.735123634E0
1.723029063E1,1.104461908E0,-1.176606178E0,-3.967726707E0
1.724029063E1,1.347348571E0,-9.993175268E-1,-4.166076660E0
1.725029063E1,1.498579264E0,-8.262181282E-1,-4.294104576E0
1.726029063E1,1.514155149E0,-6.283582449E-1,-4.355364799E0
1.727029063E1,1.426550388E0,-4.462703466E-1,-4.265574932E0
1.728029063E1,1.351717949E0,-3.931295872E-1,-3.901554108E0
1.729029063E1,1.247833967E0,-4.206744432E-1,-3.143039703E0
1.730029063E1,1.051227927E0,-3.655818701E-1,-2.044217110E0
1.731029063E1,8.015962839E-1,-3.353072405E-1,-1.243700981E0
1.732029063E1,5.678826571E-1,-4.173512459E-1,-1.117212296E0
1.733029063E1,3.091056943E-1,-4.127385616E-1,-1.252864838E0
1.734029063E1,2.720916867E-1,-5.076233149E-1,-1.474960327E0
1.735029063E1,2.164457142E-1,-5.020037889E-1,-1.436468601E0
1.736029063E1,1.580137312E-1,-4.662603140E-1,-1.074925423E0
1.737029063E1,8.443617821E-2,-5.166010857E-1,-4.997177124E-1
1.738029063E1,-2.858984470E-2,-6.519330740E-1,1.462545395E-1
1.739029063E1,2.332657576E-2,-8.287742138E-1,7.933750153E-1
1.740029063E1,2.475749254E-1,-9.817330837E-1,1.257143974E0
1.741029063E1,5.275599957E-1,-9.348077774E-1,1.441861153E0
1.742029063E1,7.929660082E-1,-6.142808199E-1,1.527662277E0
1.743029063E1,1.006030560E0,-1.725339890E-1,1.712415695E0
1.744029063E1,1.076479435E0,2.842184305E-1,2.014060020E0
1.745029063E1,1.058309555E0,5.600473881E-1,2.329916954E0
1.746029063E1,9.598300457E-1,6.799192429E-1,2.570159912E0
1.747029063E1,8.230967522E-1,7.612299919E-1,2.407748222E0
1.748029063E1,8.782040477E-1,8.143937588E-1,1.870489120E0
1.749029063E1,1.238337159E0,9.292408228E-1,1.300295830E0
1.750029063E1,1.575209856E0,1.226765752E0,9.219942093E-1
1.751029063E1,1.947232723E0,1.504593968E0,9.763250351E-1
1.752029063E1,2.188901186E0,1.522139549E0,1.597546577E0
1.753029063E1,2.165719509E0,1.126215935E0,2.540966988E0
1.754029063E1,1.898295641E0,5.131021738E-1,3.394867897E0
1.755029063E1,1.455238581E0,-2.641260624E-2,3.971594810E0
1.756029063E1,9.594197273E-1,-4.300389886E-1,4.207784653E0
1.757029063E1,5.238437653E-1,-7.093665600E-1,3.972074509E0
1.758029063E1,2.432447076E-1,-8.590708971E-1,3.464673042E0
1.759029063E1,1.726082563E-1,-8.414788842E-1,2.775130272E0
1.760029063E1,3.452092409E-1,-8.052645922E-1,2.013407707E0
1.761029063E1,7.678761482E-1,-9.327403307E-1,1.278438568E0
1.762029063E1,1.144001722E0,-1.138941646E0,4.787740707E-1
1.763029063E1,1.373537064E0,-1.275999069E0,-2.381896973E-1
1.764029063E1,1.527779698E0,-1.348491430E0,-7.415485382E-1
1.765029063E1,1.540246487E0,-1.379217386E0,-1.306667328E0
1.766029063E1,1.382208109E0,-1.338016748E0,-1.928025246E0
1.767029063E1,1.125147581E0,-1.274396896E0,-2.515769958E0
1.768029063E1,8.438702822E-1,-1.153708458E0,-2.956627369E0
1.769029063E1,6.014035344E-1,-9.711856842E-1,-3.345521927E0
1.770029063E1,4.135112166E-1,-8.037438989E-1,-3.700088024E0
1.771029063E1,2.821820080E-1,-6.518070698E-1,-4.012065887E0
1.772029063E1,1.452975571E-1,-4.597503841E-1,-4.265930176E0
1.773029063E1,-2.251783013E-2,-2.760590911E-1,-4.524077892E0
1.774029063E1,-1.764934659E-1,-1.467229128E-1,-4.735699654E0
1.775029063E1,-3.444558382E-1,-6.584465504E-2,-4.911338329E0
1.776029063E1,-4.629026055E-1,-2.545261383E-2,-4.912812710E0
1.777029063E1,-4.527040720E-1,2.753657103E-2,-4.720426559E0
1.778029063E1,-3.703384399E-1,1.041261554E-1,-4.344478607E0
1.779029063E1,-3.250194788E-1,2.463849783E-1,-3.892683506E0
1.780029063E1,-2.685762942E-1,4.083017111E-1,-3.479238510E0
1.781029063E1,-3.206615150E-2,5.966057181E-1,-3.138027191E0
1.782029063E1,4.079293907E-1,7.490031719E-1,-2.688383579E0
1.783029063E1,8.328683376E-1,8.775191307E-1,-2.172956467E0
1.784029063E1,9.391806126E-1,1.047994971E0,-1.638834953E0
1.785029063E1,7.072327137E-1,1.109150529E0,-1.036585808E0
1.786029063E1,4.388155639E-1,1.013237834E0,-4.418544769E-1
1.787029063E1,1.995252371E-1,8.679873943E-1,2.838277817E-1
1.788029063E1,-3.935486078E-3,8.385209441E-1,1.079954147E0
1.789029063E1,-1.820489913E-1,9.444687963E-1,2.005461693E0
1.790029063E1,-2.853392363E-1,1.127629757E0,2.949849129E0
1.791029063E1,-3.503230512E-1,1.318322897E0,3.558797836E0
1.792029063E1,-5.124323368E-1,1.521246195E0,3.673653603E0
1.793029063E1,-7.599052191E-1,1.689011097E0,3.406579018E0
1.794029063E1,-9.577671885E-1,1.802074552E0,3.009300232E0
1.795029063E1,-1.151044607E0,1.970422387E0,2.863517761E0
1.796029063E1,-1.250650644E0,2.095905781E0,2.973759651E0
1.797029063E1,-1.312443972E0,2.128381014E0,3.141884804E0
1.798029063E1,-1.298667908E0,2.031762600E0,3.261485100E0
1.799029063E1,-1.300369382E0,1.819992781E0,3.381298065E0
1.800029063E1,-1.334427595E0,1.615610003E0,3.415851593E0
1.801029063E1,-1.438401937E0,1.572425008E0,3.268281937E0
1.802029063E1,-1.633342028E0,1.665747046E0,2.844226837E0
1.803029063E1,-1.816123009E0,1.792253733E0,2.163331985E0
1.804029063E1,-1.795638204E0,1.911403298E0,1.292731285E0
1.805029063E1,-1.267120123E0,1.818985701E0,8.683671951E-1
1.806029063E1,-3.071084023E-1,1.413130045E0,1.997193336E0
1.807029063E1,5.746726394E-1,7.680019736E-1,4.274584770E0
1.808029063E1,8.319567442E-1,4.101467133E-2,6.284289360E0
1.809029063E1,6.203864813E-1,-5.713137984E-1,7.530271530E0
1.810029063E1,7.011485100E-2,-1.013330579E0,7.649579048E0
1.811029063E1,-5.703173280E-1,-1.462731123E0,6.496643066E0
1.812029063E1,-1.178113222E0,-1.907832861E0,4.674911499E0
1.813029063E1,-1.609892845E0,-2.252423286E0,2.603221893E0
1.814029063E1,-1.789016604E0,-2.397274494E0,7.244520187E-1
1.815029063E1,-1.622429490E0,-2.303874969E0,-6.540565491E-1
1.816029063E1,-1.240529299E0,-2.100780249E0,-1.788216591E0
1.817029063E1,-7.281084657E-1,-1.750364304E0,-2.613195419E0
1.818029063E1,-1.226027906E-1,-1.412460208E0,-2.994194031E0
1.819029063E1,4.298567176E-1,-1.181535006E0,-3.180261612E0
1.820029063E1,8.426737189E-1,-1.002867222E0,-3.117723465E0
1.821029063E1,1.184543014E0,-9.679580331E-1,-2.900476456E0
1.822029063E1,1.485274196E0,-1.066594958E0,-2.591774940E0
1.823029063E1,1.507190228E0,-1.142292261E0,-2.332880020E0
1.824029063E1,1.231876135E0,-1.129783869E0,-2.240844250E0
1.825029063E1,9.386214614E-1,-1.203226089E0,-2.381699562E0
1.826029063E1,7.141925097E-1,-1.318657637E0,-2.669019699E0
1.827029063E1,5.386304855E-1,-1.361649990E0,-2.906953335E0
1.828029063E1,5.250923634E-1,-1.354882717E0,-2.955122948E0
1.829029063E1,6.346224546E-1,-1.326278090E0,-2.822674274E0
1.830029063E1,6.997151971E-1,-1.247830391E0,-2.757920742E0
1.831029063E1,6.498982906E-1,-1.161717653E0,-2.797437668E0
1.832029063E1,5.817497373E-1,-1.121886253E0,-2.999579430E0
1.833029063E1,5.596087575E-1,-1.122419238E0,-3.307897568E0
1.834029063E1,5.367531776E-1,-1.089242935E0,-3.616146564E0
1.835029063E1,5.076988339E-1,-1.013608932E0,-3.822408676E0
1.836029063E1,5.002385378E-1,-9.082449675E-1,-3.841731071E0
1.837029063E1,5.101091862E-1,-7.562785149E-1,-3.700219154E0
1.838029063E1,6.055805087E-1,-6.400958896E-1,-3.534148693E0
1.839029063E1,7.377856970E-1,-5.002059937E-1,-3.379579067E0
1.840029063E1,8.717519641E-1,-3.096424341E-1,-3.208496094E0
1.841029063E1,9.145255685E-1,-9.040933847E-2,-2.928154945E0
1.842029063E1,9.120048881E-1,7.836210728E-2,-2.515742779E0
1.843029063E1,9.001081586E-1,1.569786072E-1,-1.954163551E0
1.844029063E1,8.748340607E-1,2.111744881E-1,-1.358548164E0
1.845029063E1,7.450048923E-1,2.903611660E-1,-7.611570358E-1
1.846029063E1,5.208507180E-1,2.870423794E-1,-1.038436890E-1
1.847029063E1,2.685598135E-1,2.075383663E-1,6.212005615E-1
1.848029063E1,9.275422990E-2,1.405431032E-1,1.353104591E0
1.849029063E1,-1.824650913E-2,1.229289174E-1,1.988563538E0
1.850029063E1,-9.871678054E-2,1.521120667E-1,2.533439636E0
1.851029063E1,-2.365204543E-1,1.727594137E-1,2.963209152E0
1.852029063E1,-3.060901761E-1,1.614674926E-1,3.385860443E0
1.853029063E1,-1.579931974E-1,1.000165641E-1,3.885233879E0
1.854029063E1,3.648612648E-3,2.563744783E-2,4.318363190E0
1.855029063E1,1.088143513E-2,9.754136205E-2,4.638278008E0
1.856029063E1,-3.752412647E-2,3.287877440E-1,4.611142159E0
1.857029063E1,7.834859192E-2,4.726682603E-1,4.081966400E0
1.858029063E1,2.152699828E-1,6.810377240E-1,3.403425217E0
1.859029063E1,3.746111989E-1,9.876390100E-1,3.059908867E0
1.860029063E1,5.887280703E-1,1.303408623E0,3.056185722E0
1.861029063E1,9.906433821E-1,1.337010264E0,3.654293060E0
1.862029063E1,1.343223929E0,9.467380643E-1,4.683176041E0
1.863029063E1,1.303620815E0,3.401345015E-1,5.641236305E0
1.864029063E1,8.151025772E-1,-1.453658640E-1,6.307342529E0
1.865029063E1,1.095245183E-1,-4.765245020E-1,6.353608131E0
1.866029063E1,-4.640901089E-1,-7.867013216E-1,5.666423798E0
1.867029063E1,-7.229512930E-1,-1.046518207E0,4.352964401E0
1.868029063E1,-6.734850407E-1,-1.116363764E0,2.824172974E0
1.869029063E1,-3.442569375E-1,-1.039606214E0,1.481846809E0
1.870029063E1,1.871046126E-1,-9.486882687E-1,4.394416809E-1
1.871029063E1,7.558244467E-1,-9.266867042E-1,-3.087463379E-1
1.872029063E1,1.271640062E0,-9.654747844E-1,-8.696460724E-1
1.873029063E1,1.594161153E0,-9.869104624E-1,-1.428067207E0
1.874029063E1,1.678504586E0,-9.947536588E-1,-2.125792503E0
1.875029063E1,1.537603498E0,-9.311521649E-1,-2.874276161E0
1.876029063E1,1.167213798E0,-8.091267347E-1,-3.532188416E0
1.877029063E1,6.888358593E-1,-7.346255779E-1,-4.028834820E0
1.878029063E1,2.122742236E-1,-6.979237795E-1,-4.331697464E0
1.879029063E1,-2.496081591E-1,-6.703197956E-1,-4.502230167E0
1.880029063E1,-6.407784224E-1,-6.529469490E-1,-4.621166706E0
1.881029063E1,-9.880020022E-1,-6.306285858E-1,-4.732877254E0
1.882029063E1,-1.273516893E0,-5.937471390E-1,-4.818322182E0
1.883029063E1,-1.481441855E0,-5.530945063E-1,-4.864071846E0
1.884029063E1,-1.485822201E0,-5.141814947E-1,-4.929359436E0
1.885029063E1,-1.267383337E0,-4.793592095E-1,-4.983770370E0
1.886029063E1,-9.801521301E-1,-4.112769365E-1,-5.048295021E0
1.887029063E1,-6.209312677E-1,-2.485598624E-1,-4.909955978E0
1.888029063E1,-3.852783442E-1,-8.626058698E-2,-4.662659645E0
1.889029063E1,-2.926889360E-1,-3.881335258E-3,-4.410000801E0
1.890029063E1,-2.833519578E-1,5.335640907E-2,-4.108964920E0
1.891029063E1,-3.110023439E-1,1.154555976E-1,-3.777470589E0
1.892029063E1,-3.128963113E-1,1.456407309E-1,-3.448267460E0
1.893029063E1,-3.278286755E-1,2.862127423E-1,-2.912667274E0
1.894029063E1,-3.259109557E-1,4.800273180E-1,-2.128453732E0
1.895029063E1,-2.453708053E-1,6.256851554E-1,-1.171887398E0
1.896029063E1,-1.827299893E-1,6.889468431E-1,-1.901407242E-1
1.897029063E1,-1.401613355E-1,7.438343763E-1,8.013467789E-1
1.898029063E1,-3.227290511E-2,8.900889754E-1,1.914903641E0
1.899029063E1,7.998389006E-2,1.086037636E0,2.963836670E0
1.900029063E1,4.172891378E-2,1.227488637E0,3.732187271E0
1.901029063E1,-2.845887840E-1,1.410415053E0,3.991075516E0
1.902029063E1,-7.764862776E-1,1.667190671E0,3.648547173E0
1.903029063E1,-1.204624295E0,1.811529756E0,3.039731026E0
1.904029063E1,-1.418380499E0,1.934186220E0,2.658989906E0
1.905029063E1,-1.539741874E0,2.160043240E0,2.729651451E0
1.906029063E1,-1.504640341E0,2.303685427E0,3.162923813E0
1.907029063E1,-1.367134094E0,2.291054010E0,3.656483650E0
1.908029063E1,-1.174089313E0,2.066700220E0,3.989458084E0
1.909029063E1,-1.059757233E0,1.695689559E0,4.191623688E0
1.910029063E1,-9.706720710E-1,1.475595474E0,4.268448830E0
1.911029063E1,-1.019949555E0,1.445269823E0,4.004071236E0
1.912029063E1,-1.069320440E0,1.539208770E0,3.390757561E0
1.913029063E1,-8.195872903E-1,1.620779276E0,2.675068855E0
1.914029063E1,-3.304375410E-1,1.532967091E0,2.255637169E0
1.915029063E1,2.519591451E-1,1.155804396E0,2.922924042E0
1.916029063E1,8.621516824E-1,3.770466149E-1,4.531282425E0
1.917029063E1,1.109404325E0,-4.801477790E-1,6.024631500E0
1.918029063E1,8.603116274E-1,-1.172489762E0,6.951849937E0
1.919029063E1,1.806448698E-1,-1.638118744E0,6.881774902E0
1.920029063E1,-5.541962981E-1,-1.966921210E0,5.594583511E0
1.921029063E1,-1.041003823E0,-2.205116749E0,3.614862442E0
1.922029063E1,-1.161208987E0,-2.227211952E0,1.402726173E0
1.923029063E1,-8.516659141E-1,-2.069444656E0,-5.279684067E-1
1.924029063E1,-2.286111712E-1,-1.784423351E0,-1.884290218E0
1.925029063E1,5.009033084E-1,-1.518972516E0,-2.760087490E0
1.926029063E1,1.100904703E0,-1.353421569E0,-3.209462643E0
1.927029063E1,1.528604269E0,-1.367284656E0,-3.106748581E0
1.928029063E1,1.785359621E0,-1.550632834E0,-2.502676487E0
1.929029063E1,1.822945118E0,-1.699846864E0,-1.806054115E0
1.930029063E1,1.731856346E0,-1.825809240E0,-1.207734108E0
1.931029063E1,1.504841924E0,-1.910409927E0,-6.983137131E-1
1.932029063E1,1.112375975E0,-1.906168461E0,-3.856735229E-1
1.933029063E1,6.416519880E-1,-1.837569356E0,-3.282194138E-1
1.934029063E1,2.630533576E-1,-1.706348896E0,-5.327205658E-1
1.935029063E1,1.735680699E-1,-1.535666108E0,-1.082661629E0
1.936029063E1,3.950209022E-1,-1.322367907E0,-1.856622696E0
1.937029063E1,8.084365726E-1,-1.040529490E0,-2.674758434E0
1.938029063E1,1.268235207E0,-7.732856274E-1,-3.384368896E0
1.939029063E1,1.731751204E0,-5.823326111E-1,-3.928136349E0
1.940029063E1,2.066939831E0,-4.493487179E-1,-4.307167530E0
1.941029063E1,2.158154011E0,-3.914035559E-1,-4.503174782E0
1.942029063E1,2.073751926E0,-4.010051489E-1,-4.428067207E0
1.943029063E1,1.814419508E0,-4.525889456E-1,-4.188154221E0
1.944029063E1,1.528549910E0,-5.124072433E-1,-3.959404945E0
1.945029063E1,1.262166023E0,-5.344934464E-1,-3.782588482E0
1.946029063E1,1.072564244E0,-5.246694088E-1,-3.595516205E0
1.947029063E1,8.929752111E-1,-5.630321503E-1,-3.366549492E0
1.948029063E1,5.639999509E-1,-5.337283015E-1,-3.032850266E0
1.949029063E1,2.452273667E-1,-3.896848559E-1,-2.554589272E0
1.950029063E1,6.718307734E-2,-2.691375017E-1,-2.051607609E0
1.951029063E1,1.304221153E-2,2.762651443E-2,-1.570775032E0
1.952029063E1,-3.196060658E-2,3.160597682E-1,-1.146845818E0
1.953029063E1,8.263909817E-2,4.300350547E-1,-7.654504776E-1
1.954029063E1,2.517579198E-1,4.923980236E-1,-3.682594299E-1
1.955029063E1,2.906317115E-1,5.682337880E-1,1.022386551E-1
1.956029063E1,2.953179181E-1,4.857260585E-1,5.612344742E-1
1.957029063E1,2.238862216E-1,2.856365442E-1,1.037730217E0
1.958029063E1,1.894763112E-2,6.029951572E-2,1.401209831E0
1.959029063E1,-1.586717367E-1,1.828098297E-2,1.661764145E0
1.960029063E1,-2.168687582E-1,8.360117674E-2,1.752118111E0
1.961029063E1,-2.206042409E-2,1.652015448E-1,1.757198334E0
1.962029063E1,1.437683403E-1,2.789702415E-1,1.855537415E0
1.963029063E1,1.436655819E-1,4.245492220E-1,2.098320007E0
1.964029063E1,-6.304243207E-2,5.745844841E-1,2.451449394E0
1.965029063E1,-2.889265716E-1,6.117136478E-1,2.622494698E0
1.966029063E1,-3.637261987E-1,4.738314748E-1,2.448250771E0
1.967029063E1,-4.840677679E-1,3.886453509E-1,2.142055511E0
1.968029063E1,-4.673663080E-1,3.023501337E-1,1.949499130E0
1.969029063E1,-2.279309332E-1,2.386708558E-1,2.150402069E0
1.970029063E1,1.027544811E-1,2.256527692E-1,3.009667397E0
1.971029063E1,3.467594981E-1,6.256614625E-2,4.149102211E0
1.972029063E1,4.863338172E-1,-2.471674681E-1,5.225912094E0
1.973029063E1,5.992207527E-1,-6.168630719E-1,6.254689217E0
1.974029063E1,5.442080498E-1,-1.039702654E0,6.846317291E0
1.975029063E1,2.342898250E-1,-1.368348718E0,6.504316330E0
1.976029063E1,-1.230124831E-1,-1.595052242E0,5.165397644E0
1.977029063E1,-3.183490336E-1,-1.675839424E0,3.304148674E0
1.978029063E1,-3.015071750E-1,-1.591415167E0,1.485356331E0
1.979029063E1,1.500013471E-2,-1.430691242E0,-6.687736511E-2
1.980029063E1,4.831555188E-1,-1.301171541E0,-1.206934929E0
1.981029063E1,1.011262178E0,-1.177418828E0,-1.935183525E0
1.982029063E1,1.508250237E0,-1.133378863E0,-2.398237228E0
1.983029063E1,1.829127550E0,-1.042038321E0,-2.768284798E0
1.984029063E1,1.926514030E0,-8.947737217E-1,-3.092350960E0
1.985029063E1,1.786936402E0,-6.583293676E-1,-3.451294422E0
1.986029063E1,1.429898620E0,-4.003225267E-1,-3.907119274E0
1.987029063E1,9.912880659E-1,-2.078220099E-1,-4.464385033E0
1.988029063E1,5.505850315E-1,-9.885561466E-2,-5.038660049E0
1.989029063E1,1.981720179E-1,-6.515990198E-2,-5.419245243E0
1.990029063E1,-1.164328009E-1,-5.039952695E-2,-5.496571541E0
1.991029063E1,-4.162564874E-1,-4.673103988E-2,-5.303793430E0
1.992029063E1,-6.128098965E-1,-3.251701593E-3,-4.881276131E0
1.993029063E1,-6.587064266E-1,3.502741456E-2,-4.418520927E0
1.994029063E1,-5.740065575E-1,5.070628971E-2,-3.995632172E0
1.995029063E1,-5.371596217E-1,1.322194934E-1,-3.709388733E0
1.996029063E1,-4.239820838E-1,2.279911488E-1,-3.550674438E0
1.997029063E1,-1.389255077E-1,3.300770819E-1,-3.452133179E0
1.998029063E1,2.415730804E-1,4.588685334E-1,-3.264030457E0
1.999029063E1,4.881705046E-1,6.849330068E-1,-2.965018749E0
2.000029063E1,5.758776069E-1,9.216791391E-1,-2.689917564E0
2.001029063E1,6.120910048E-1,9.873877764E-1,-2.407219887E0
2.002029063E1,4.689081013E-1,1.000672579E0,-2.033127785E0
2.003029063E1,1.718353331E-1,1.037452936E0,-1.433010101E0
2.004029063E1,-6.689932942E-2,1.055101752E0,-6.704416275E-1
2.005029063E1,-2.090010047E-1,1.004199505E0,1.313524246E-1
2.006029063E1,-3.495002985E-1,1.027339101E0,9.670562744E-1
2.007029063E1,-3.794484437E-1,1.051641345E0,1.686264992E0
2.008029063E1,-4.121414721E-1,1.067813396E0,2.260343552E0
2.009029063E1,-4.885705709E-1,1.189385891E0,2.747205734E0
2.010029063E1,-5.898789167E-1,1.410966277E0,3.094023705E0
2.011029063E1,-8.154225945E-1,1.614371181E0,3.197343826E0
2.012029063E1,-1.205487251E0,1.779982209E0,3.104451180E0
2.013029063E1,-1.477560401E0,1.903654933E0,2.947134018E0
2.014029063E1,-1.557317853E0,2.017298222E0,2.804905891E0
2.015029063E1,-1.618830442E0,2.186592817E0,2.690802574E0
2.016029063E1,-1.587510943E0,2.316734076E0,2.710585594E0
2.017029063E1,-1.467239141E0,2.225373507E0,2.929314613E0
2.018029063E1,-1.388180256E0,1.944648266E0,3.338918686E0
2.019029063E1,-1.388217211E0,1.537891865E0,3.871562958E0
2.020029063E1,-1.585884094E0,1.207667112E0,4.390553474E0
2.021029063E1,-1.895786285E0,1.109737754E0,4.564424515E0
2.022029063E1,-2.188499451E0,1.220727444E0,4.173317909E0
2.023029063E1,-2.197094202E0,1.387385607E0,3.471049309E0
2.024029063E1,-1.571632147E0,1.377473116E0,2.830301285E0
2.025029063E1,-6.619232893E-1,1.213034391E0,2.671088219E0
2.026029063E1,1.416250467E-1,8.012239933E-1,3.308122635E0
2.027029063E1,6.683879495E-1,1.033972502E-1,4.523330688E0
2.028029063E1,5.556834936E-1,-6.267241240E-1,5.431625366E0
2.029029063E1,-5.091589689E-2,-1.156643152E0,5.740533829E0
2.030029063E1,-7.292974591E-1,-1.567519784E0,5.475156784E0
2.031029063E1,-1.258676052E0,-2.009095192E0,4.610133171E0
2.032029063E1,-1.460569143E0,-2.417374611E0,3.298038483E0
2.033029063E1,-1.330495596E0,-2.685252905E0,1.634701729E0
2.034029063E1,-9.244410992E-1,-2.687375307E0,-4.784202576E-2
2.035029063E1,-2.318387032E-1,-2.503684521E0,-1.477458000E0
2.036029063E1,5.433449745E-1,-2.153456926E0,-2.700406075E0
2.037029063E1,1.217455387E0,-1.702215433E0,-3.706662655E0
