Time_interval,Time,Acceleration_x,Acceleration_y,Acceleration_z
0,0.24730503284000002,-0.5059384122844,2.2430798224924002,8.87799416514
1,0.747279962,-2.579223532684,0.4111826449034,9.58689172708
2,1.2472799620000001,-0.19573289125932,0.7602476118402001,9.24275606162
3,1.747079962,-1.095529916858,1.539542094468,9.62225770016
4,2.247079962,-0.6188796532238,1.095051356564,9.542528838760001
5,2.747279962,-0.4967021282012,1.283701494938,9.39580095262
6,3.2470799620000004,-0.3740460372428,2.10936888694,9.204470929740001
7,3.747279962,-0.150987106231,1.926557218956,9.51812202446
8,4.247279962,0.267613284278,1.744128427478,9.95289794964
9,4.747279962,-0.2476571458942,2.55658742668,8.98629327728
10,5.247079962,-0.06417550040896,1.82926505574,9.617759189480001
11,5.747279962,0.049962138514000005,1.7130217457,9.27826546658
12,6.247279962,-0.16965112641219998,1.74494199038,9.68260471354
13,6.747279962,-0.2950350330362,1.89961405046,9.4974480437
14,7.247279962,-0.43357946165506,2.02681650154,9.49988876344
15,7.747279962,-0.3052284533044,1.95929104326,9.52204620382
16,8.247079962,-0.25153351517364003,1.9224894309999998,9.42872613922
17,8.747279962,-0.1517528103276,2.0113588358000003,9.50146814348
18,9.247279962,-0.14079368648239998,1.93574564452,9.49467235542
19,9.747079962,-0.05795416434574,1.9633109902199999,9.28888972306
20,10.24727996,-0.13500305400858,2.15861316676,9.60943212518
21,10.74727996,-0.01780260032482,2.45216464036,9.18441898342
22,11.24727996,0.0032542388134400007,2.6221507645,9.427673377460001
23,11.74727996,0.06216553192588,2.46398518562,9.47686975536
24,12.24727996,-0.0895394236984,2.37353649144,9.28132834414
25,12.74727996,0.0035892328429599995,2.1912033986,9.538174037940001
26,13.24727996,-0.0199082848076,2.33778771394,9.28635332102
27,13.74727996,-0.1205982620252,2.35736101624,9.54721878062
28,14.24727996,-0.11724830944280001,2.15033398862,9.34067037576
29,14.74727996,-0.09437292419820001,1.821273018112,9.5060143469
30,15.24727996,-0.31317262544162,1.73465284584,9.463661422700001
31,15.74707996,-0.2951786016502,2.00934888602,9.54841522194
32,16.24707996,-0.5463292651480001,2.06175170664,9.4092964165
33,16.74707996,-0.4100340896486,2.0095881653000003,9.41599645572
34,17.24727996,-0.21382263257036002,2.01738875384,9.43394260428
35,17.74727996,-0.31714471441752,2.048064766,9.36254070284
36,18.24727996,-0.41721255314600003,2.03126714948,9.69897159514
37,18.74727996,-0.4104169418614,2.02274868964,9.38551179896
38,19.24727996,-0.37557744004612,2.2593988466,8.981076994
39,19.74727996,-0.15677773895328,1.9241644227599999,9.87704542098
40,20.24727996,0.050201417477,2.080272135726,9.33928248316
41,20.74727996,0.049148575341439994,1.9037296796199998,9.58100545922
42,21.24727996,0.0493878592154,2.00446753036,9.33267837556
43,21.74727996,-0.028139591417480004,2.05179757362,9.477109070120001
44,22.24727996,-0.16352549888856,2.03011859658,9.53793460816
45,22.74727996,-0.2152104726428,2.06414453748,9.289416103
46,23.24727996,-0.2054956079062,1.83907561064,9.63273823756
47,23.74727996,-0.1489771366108,1.72445942162,9.39522668836
48,24.24727996,-0.3285824062756,1.8303178978599999,9.35727655496
49,24.74727996,0.00981057261258,1.74001276968,9.44877801858
50,25.24727996,0.0571884601554,2.00126114366,9.430305404979999
51,25.74707996,0.1263410347698,2.04390123842,9.76845912874
52,26.24727996,-0.18568303621479998,2.31017454138,9.2177749252
53,26.74727996,-0.2172682954151,2.0389241886600002,9.6669556812
54,27.24727996,-0.3810809344724,1.9703459047319998,9.15848080656
55,27.74727996,-0.2618705058786,1.643342737024,9.80066654258
56,28.24727996,-0.2824966371484,1.8314664555,9.17848483042
57,28.74727996,0.1102134118087,1.7019190478,9.82866256726
58,29.24727996,0.7697231906580001,1.73163789022,9.341101007759999
59,29.74727996,1.186552889371,1.7821743107399999,9.568275604
60,30.24727996,1.6050575684800001,1.8296479129599998,9.435521793520001
61,30.74727996,1.3216516542260002,1.8832471346200002,9.502473030280001
62,31.24727996,1.087011475006,1.95546251068,9.46610204752
63,31.74727996,0.91573323246,1.9644595337600002,9.5119485474
64,32.24727996,0.63031734229,2.21312168596,9.17140206284
65,32.74727996,0.92975516625,2.2401127101,9.54071039164
66,33.24707996,0.772881720074,2.11429806698,9.418293523180001
67,33.74727996,0.797779034952,1.91936679112,9.34117280986
68,34.24727996,0.781184806214,1.78516533624,9.82658075326
69,34.74727996,0.7818308687379999,1.8936319850399999,9.38871824276
70,35.24727996,0.57920664882974,1.994274106,9.421691208
71,35.74727996,0.7009056055439999,1.85520327568,9.59129459398
72,36.24727996,0.6455835532157,1.8777914906000002,9.4584929466
73,36.74727996,0.666544675234,1.77753222708,9.56664844498
74,37.24727996,0.33336805142020004,1.7683916426,9.60694362646
75,37.74727996,-0.16137195907420002,1.2040683533598,9.698205948
76,38.24707996,-0.42606600124192,1.4433027590040002,9.223996381880001
77,38.74707996,0.09126225664460001,1.557248980535,9.80349012378
78,39.24727996,-0.5311587705568,2.77332930792,8.88325835242
79,39.74707996,-0.032015966716599994,2.22140084272,9.88427182248
80,40.24727996,-0.051302118200219994,2.20034398086,9.51486785884
81,40.74727996,-0.1385444317522,2.48255347974,9.25586871134
82,41.24727995999999,0.13347164791364,2.5026532126000003,9.52108909642
83,41.74727995999999,0.08805587405700001,2.8121887398000003,9.154891529499999
84,42.24707996,-0.026991036801319996,2.9132615757999996,9.24361740128
85,42.74707996,-0.03656232972178,2.77021862982,9.54391670222
86,43.24707996,0.13471591640379998,2.9793991852,9.11698929792
87,43.74707996,0.10423135443050001,3.0117501687200003,9.413890676040001
88,44.24727995999999,0.1419422389118,2.9763363837999997,9.428008327779999
89,44.746879959999994,0.35265420012040005,3.02639423842,8.96825138124
90,45.24727995999999,0.4129533316192,2.96877505302,9.2645786095
91,45.74727995999999,0.4314737810282,2.92374212256,9.41671422994
92,46.24727995999999,-0.17218751956168,3.07793560974,9.18882176406
93,46.74727995999999,0.0959521874895,2.8892855048,9.21016570086
94,47.24727995999999,0.16151552445888,2.6459354161800004,9.33444896704
95,47.74727995999999,0.13294522420904,2.73035421362,9.12014780078
96,48.24727995999999,0.09643075286484,2.8698078966000002,9.309133005
97,48.74727995999999,0.11638689143084,3.45490090852,9.24897732718
98,49.24727995999999,0.9622018370569999,4.0382232380400005,8.67795418736
99,49.74727995999999,1.1202238476120001,4.26903489586,8.6994417
100,50.24727995999999,1.0275737428628,4.26405776502,8.68235693932
101,50.74727995999999,0.4693282355436,2.67484068632,9.7147164062
102,51.24727995999999,0.29637501426956,2.2678694462799998,9.28065829314
103,51.74727995999999,-0.1289731403532,2.243893355204,9.37871628758
104,52.24727995999999,-0.24650858860859998,2.57434215554,9.513623599699999
105,52.74727995999999,0.6460142543722001,2.97652781006,9.290038214019999
106,53.24727995999999,0.18027526066400001,3.2947253560400003,9.32846704462
107,53.74727995999999,-0.05905486217214,2.8762685251200004,9.471701221
108,54.24707996,-0.11380264478680001,3.14235041142,9.33698537836
109,54.74727995999999,-0.0780538744285,1.430525091932,9.569232788
110,55.24707996,-0.17458033898025999,1.275230902504,9.5568378448
111,55.74727995999999,-0.326907433214,1.0981141734125999,9.694377422259999
112,56.24727995999999,-0.91190470456,1.9826928472399998,9.2692685411
113,56.74727995999999,-0.405822718715,1.41262677672,9.60971939076
114,57.24727995999999,-0.77943805454,1.55988108158,9.506157894540001
115,57.74727995999999,-0.900562732222,1.69148633716,9.456817989480001
116,58.24727995999999,-0.7971449369020001,1.4471791267,9.50165946962
117,58.74727995999999,-0.59777495265,1.272981649698,9.60038724872
118,59.24727995999999,-0.48957151532399995,1.322273792044,9.55339227656
119,59.74727995999999,-0.43137806535,1.2457034730399998,9.56722276684
120,60.24727995999999,-0.493639310604,1.3040404796799998,9.56124067304
121,60.74727995999999,-0.5477649635040001,1.3052847505,9.6039766312
122,61.24727995999999,-0.52173104643,1.28470647802,9.5707163239
123,61.746879959999994,-0.410034089674,1.2470913053,9.56415994646
124,62.24727995999999,-0.37682170897580003,1.242162086982,9.58047899214
125,62.74727995999999,-0.333320195366,1.21517105104,9.59268239978
126,63.24727995999999,-0.37246677399,1.24177924394,9.558321495080001
127,63.74727995999999,-0.30709485858,1.19564561604,9.61814205162
128,64.24727996,-0.38098521956875997,1.0746166538458,9.4013044167
129,64.74707996000001,-0.11059626249836,1.122425248018,9.83569740298
130,65.24727996,0.0035413777736000057,1.26853099104,9.51821771614
131,65.74707996000001,0.18405591662424,1.19861272336,9.5727740859
132,66.24707996000001,0.2596691121154,1.148172013698,9.56377704616
133,66.74727996,0.16998612165899998,1.133815072708,9.59383089068
134,67.24707996000001,-0.011533404534499999,0.9739745235339999,9.65015806196
135,67.74727996,-0.08298308860560001,1.068491020232,9.59210817302
136,68.24727996,0.0115812617085,1.0332686710180001,9.6429317284
137,68.74727996,-0.010289137337100001,1.0170931910899998,9.61565351484
138,69.24727996,0.1624726580082,0.9815837096900001,9.617807025880001
139,69.74707996000001,0.25660629980419997,0.934588670724,9.60747011178
140,70.24727996,0.324945314534,0.895729223552,9.66020788184
141,70.74707996000001,0.314656178958,0.961101149376,9.6168499375
142,71.24727996,0.267565427426,0.922576700444,9.61498353948
143,71.74727996,0.2138704860162,0.9583733284279999,9.62584695822
144,72.24727996,0.19190437644799999,0.965360358988,9.628574714600001
145,72.74727996,0.205591319788,0.9659825002760001,9.61254280086
146,73.24727996,0.226935299032,0.9633025372180001,9.61948205948
147,73.74727996,0.24148366034199997,0.9294680309660001,9.61857276908
148,74.24727996,0.214636189036,0.942437123094,9.61847702024
149,74.74727996,0.21425333946400002,0.935641514096,9.62685195912
150,75.24727996,0.1913300995532,0.9228159821040001,9.64728660586
151,75.74727996,0.2130569282142,0.96641321061,9.62551195144
152,76.24727996,0.21458833530620003,0.948514902526,9.615940570920001
153,76.74707996000001,0.20951555028920002,0.7923114320850201,9.67504335404
154,77.24727996,0.2187518455096,0.25397419359379997,9.67198059078
155,77.74727996,0.19506290257199999,-0.2907758098822,9.7611848449
156,78.24727996,0.220761816202,-0.46999822557000004,9.749938678780001
157,78.74727996,0.29824141561600004,-0.6362515407880001,9.8066485598
158,79.24727996,0.243637202078,-0.17927027032120002,9.71548215812
159,79.74727996,0.2142054846536,0.1217468159037,9.80999860762
160,80.24727996,0.17601603631079998,0.07609175974231999,9.42240921994
161,80.74727996,0.3386322609336,0.11954542007219998,9.657671585340001
162,81.24727996,0.5420221875598,0.253974197436,9.57578908938
163,81.74727996,0.787047219594,0.23933011911600002,9.885181083600001
164,82.24707996,1.2060304678059999,0.35882768568907997,9.686289672540001
165,82.74727996,1.61395887376,0.41912681371399996,9.52228557582
166,83.24727996,1.95196901088,0.5663811175622601,9.627139034099999
167,83.74727996,2.18469490766,0.286899436784,9.610341510440001
168,84.24727996,1.976519369184,1.097444174704,9.50122872296
169,84.74727996,1.7689659309199999,1.669711639882,9.50697143578
170,85.24727996,1.809261037718,1.960343880108,9.21681782716
171,85.74727996,1.8705651648500001,1.3522797881856,9.687916746339999
172,86.24707996,2.17196511735,1.38941639416,9.39431741716
173,86.74727996,1.4384214044160002,1.480678661482,9.56004440352
174,87.24707996,0.8260980859407201,1.16731459912,9.86608631074
175,87.74727996,0.4574119806396,1.052554827884,9.95859287318
176,88.24727996,-0.0160319105588,0.9299944543399999,9.6989237022
177,88.74727996,-0.498424958602,1.054062314062,9.479801073139999
178,89.24727996,-0.42991844716899996,1.10573530679,9.54221776996
179,89.74707996,-0.749384198774,1.217228882366,9.71270641338
180,90.24727996,-0.3767738480154,1.469145252186,9.47256271354
181,90.74727996,-0.7065048117256001,2.17105583906,9.33837315602
182,91.24727996,-0.6340022865016001,2.27648360968,9.35923860946
183,91.74727996,0.033355943872000006,2.5468725604566003,9.11962140084
184,92.24727996,-0.585906549574,2.67216079712,9.04951163306
185,92.74727996,-0.26263621360286,2.6977639722999998,9.430161934000001
186,93.24687996,-0.09403793290433998,2.73762838364,9.30262446372
187,93.74727996,0.133232362365,2.8745457077,9.27821767804
188,94.24727996,0.010528418206000001,3.14723178394,9.32439920396
189,94.74727996,0.061782682498500004,3.2568709182999998,9.237683305640001
190,95.24727996,-0.3659104400167,3.55621299266,9.08291551606
191,95.74727996,-0.795039253858,3.9994116258399997,8.81051655774
192,96.24727996,-0.8160960864979999,4.06195999626,8.828701972840001
193,96.74727996,-0.6954021086519999,4.19045458322,8.897136631119999
194,97.24727996,-0.8596933120679999,4.35675576212,8.798983097059999
195,97.74727996,-0.750819894684,4.08569684028,8.90254449852
196,98.24727996,-0.7523991515391999,3.7146178770400002,9.1053601745
197,98.74707996,-0.9428678262140001,4.1835632371600004,8.70776877426
198,99.24727996,-0.8555298119939999,4.29396809098,8.73973684308
199,99.74727996,-0.691621454682,4.17619331838,8.80252435676
200,100.24708000000001,-0.5908836226199999,3.0719535636799997,9.202317371420001
201,100.74727999999999,-0.3342294654524,2.5604159331800003,9.21921073902
202,101.24727999999999,0.1335195020856,2.13755632642,9.4656235312
203,101.74727999999999,-0.17525032963488,2.39215263374,9.41537414546
204,102.24727999999999,-0.12189038556418,2.2713629913599998,9.38589466096
205,102.74727999999999,-0.03148954708212,2.08477066286,9.46150798786
206,103.24727999999999,-0.08930014077161999,1.9836021185000001,9.49778297432
207,103.74727999999999,-0.034025938208939996,2.0682601856600002,9.441073169720001
208,104.24727999999999,-0.051972107658800004,2.0841485238199997,9.44270027166
209,104.74727999999999,-0.12394821405586001,2.12769790168,9.49328453036
210,105.24727999999999,-0.0893479964352,2.1042003941800003,9.391158923919999
211,105.74727999999999,-0.023688945699699995,2.04040771964,9.4250412465
212,106.24727999999999,0.018855443268440002,2.08496207944,9.525683365139999
213,106.74727999999999,-0.09265009091835999,2.0751036477600002,9.50165946974
214,107.24727999999999,-0.2253081802836,1.95431397204,9.47686975484
215,107.74708000000001,-0.031345977632679996,1.9521604347,9.44538022996
216,108.24727999999999,-0.09901500128764001,1.9479969095799998,9.48457464214
217,108.74727999999999,-0.0956650499075,2.01025815956,9.47950189586
218,109.24727999999999,-0.41309689656559995,2.23614063026,9.3910631562
219,109.74727999999999,-0.59026148657212,2.46685658692,9.43102323502
220,110.24708000000001,-0.7359843802320001,2.46455947866,9.36091362042
221,110.74727999999999,-0.6608497544334,1.771454459464,9.4814639187
222,111.24727999999999,-0.8535676971486601,1.515087451974,9.53051685344
223,111.74727999999999,-0.053503514213,0.71889963062888,9.70662862818
224,112.24727999999999,-0.10581061607768,0.9127661239479999,9.598712329800001
225,112.74727999999999,0.3679682635624,1.2009098166199998,9.54099754328
226,113.24727999999999,0.4247260192886,1.124578798436,9.74725871084
227,113.74727999999999,0.40811982895779997,1.42009238474,9.6088100628
228,114.24727999999999,0.3870629905212,1.84156415938,9.37847681054
229,114.74688,0.44702712894880003,1.691725599722,9.695478076839999
230,115.24708000000001,0.3600240912804,2.07242367984,9.54401232736
231,115.74727999999999,0.3863451509806,2.4895405196400002,9.27773908652
232,116.24708000000001,0.1169611721612,2.6121966266200003,9.27654268282
233,116.74727999999999,-0.38849867765064,2.41111578464,9.15791851936
234,117.24727999999999,-0.614895595898,2.46649765016,9.34987077732
235,117.74727999999999,-0.7385686347076,2.51533517362,9.27831334078
236,118.24727999999999,-0.797384220931,2.50150463106,9.3966144753
237,118.74727999999999,-0.4949792864986,2.6500510645600004,9.14120457676
238,119.24727999999999,-0.052546382640360004,2.1911076784,9.8734083745
239,119.74708000000001,-0.1044227856546,2.6612494611599997,9.1892524717
240,120.24727999999999,-0.22535604097280001,2.8330063009,9.1009573653
241,120.74708000000001,-0.22573888712559997,2.7357619763,9.22854260478
242,121.24727999999999,0.35877982925578,2.5686472416200004,9.22524053564
243,121.74727999999999,0.2804866722676,2.83448984624,9.21298923532
244,122.24727999999999,0.10734202391050002,2.7087709522799996,9.3488537884
245,122.74727999999999,0.10681560381803999,2.45632814172,9.40427158376
246,123.24727999999999,0.05149354072956,2.4932733512,9.3512944504
247,123.74727999999999,0.41271404835380004,2.60731525428,9.3837890243
248,124.24727999999999,0.5628397436824,2.7490660858399996,9.12134423222
249,124.74727999999999,-0.2140140548298,2.7767270826600003,9.320331316079999
250,125.24727999999999,0.04689932364294,2.9210143183399997,9.289368229199999
251,125.74727999999999,-0.0798724155301,2.87191358566,9.1994937226
252,126.24708000000001,-0.4720081978002,3.02921774384,9.14651666654
253,126.74727999999999,0.1741496310962,2.83051775462,9.15249873198
254,127.24727999999999,1.06131255551,2.53184562684,9.45059662842
255,127.74727999999999,-0.5720281837762,2.5949682998,9.17690554648
256,128.24728,0.3007778019202,2.32027227882,9.36110507962
257,128.74728,0.249762832905,2.45647174132,9.3908717058
258,129.24728,0.759769048344,2.99911601534,9.101770935
259,129.74728,0.40443488552394,2.6552674245600003,9.30640512458
260,130.24728,0.45296132879416,2.24748258834,9.545256614580001
261,130.74728,0.3128854915724,2.6150201463999996,9.167956419
262,131.24708,-0.28120451755403997,3.43106842986,9.03754758806
263,131.74728,-0.05680560926452,3.3991481209,9.10201015474
264,132.24728,-0.5724110285708001,3.652930913,9.0750670619
265,132.74728,-0.48536014280160006,3.80702866074,8.776107721219999
266,133.24728,-0.1591227074916,3.7485002184000003,8.913934364640001
267,133.74728,-0.3824687758628,3.6057444667,9.18590252872
268,134.24728,-0.4551627251494,3.5662628412,9.04836314204
269,134.74708,-0.45559343574975997,3.7726677584,8.84430317866
270,135.24728,-0.5402993527784,3.5816247654,9.055063066359999
271,135.74728,-0.9880921786718,3.43671544554,9.0678406624
272,136.24728,-0.5966742555764,3.42647415628,9.24352170916
273,136.74728,-0.5179025354005,3.49237250802,8.67020142556
274,137.24728,-0.28158736922556,3.24294466972,9.06329437268
275,137.74728,0.05977271031079999,3.2082008838,8.82382064826
276,138.24728,0.07676175350812,3.1067451954000003,8.77768701534
277,138.74728,-0.038859433610600014,3.00270527846,9.04592243208
278,139.24708,-0.03943371382392,2.8682286500600003,9.64393663398
279,139.74728,0.012155539706540009,2.70700024368,9.442461099780001
280,140.24728,0.18151952186839998,2.66550870422,9.1061737539
281,140.74708,0.15304494172774,3.1950403595,9.0019902327
282,141.24728,-0.4983292364048,3.35425879472,8.88593829202
283,141.74728,-0.41639898930610003,2.9045995569399996,9.43274618164
284,142.24728,-0.374620308951,3.09951888086,8.88617773028
285,142.74728,-0.28618158962204,2.8940711308,8.99940602324
286,143.24708,-0.3117369276582,2.79706609016,9.53013402954
287,143.74728,0.5982535254960001,2.4040688991,9.17216773034
288,144.24728,0.37787455051560004,2.4912633680400003,9.43844107642
289,144.74728,0.0990628567732,2.3677937292999998,9.61306916246
290,145.24728,-0.135338047146,2.18756631144,9.314636392359999
291,145.74728,-0.4046741610238,2.044571226804,9.51094348996
292,146.24728,0.29537003281380003,1.882864289294,9.35541008974
293,146.74728,-0.3418386277004,2.61200520268,9.406472945320001
294,147.24728,-0.7090890602331601,2.6787171149199995,9.46126863494
295,147.74708,-0.5756652735794,2.83535125728,9.20250870756
296,148.24728,-0.4914857714286,3.0343862438,9.289368247879999
297,148.74728,-0.4643990228172,3.0512795639799997,8.9176193044
298,149.24728,-0.677886653636,3.0580273533,9.09918672542
299,149.74728,-0.87409811476488,3.03290271292,9.27070426892
300,150.24708,-0.13246665699199997,3.099662471964,8.77318849546
301,150.74728,-0.30776485510720003,2.8214729022,9.67236337628
302,151.24728,0.3572484220132,3.2606994247400003,8.66761712956
303,151.74728,0.6135197198816,3.1894411754800003,9.30516084654
304,152.24728,0.17065611036,3.40623087636,8.9710748814
305,152.74728,0.766277520342,3.24390178688,9.44954376178
306,153.24728,0.5442235877696,3.19623675352,8.85353948614
307,153.74728,0.3158525954952,3.57808342462,9.07741201444
308,154.24728,0.8418907156862001,3.38584403038,9.18130834592
309,154.74728,0.22047467448426,3.4389646958399998,8.77409777662
310,155.24728,-0.30240492504014,3.0549645234000002,9.44595459984
311,155.74708,-0.47397031073,3.16493864542,9.01361922236
312,156.24728,-0.1585962909662,3.11942716124,9.24021956468
313,156.74728,-0.3228396280044,3.06089872838,9.0518087962
314,157.24728,0.15471991321828,3.17025074478,9.033479747400001
315,157.74708,0.046516468345960016,3.3408111381600003,8.99179677976
316,158.24728,-0.8320322916531999,3.47184207916,9.19327243816
317,158.74728,0.07834101184259999,3.37354494336,8.86000011394
318,159.24728,0.44080577099600005,2.96035233313,9.163553585979999
319,159.74708,0.1035135088162,3.41259580616,8.7907039781
320,160.24728,-0.25794628140299997,3.44963668822,9.14637309138
321,160.74728,0.11552547676760003,3.40809730052,9.06482578284
322,161.24728,-0.18970298128180002,3.5308012294799997,8.86760934806
323,161.74728,-0.13730016365480002,3.4624143743399998,9.05066024796
324,162.24728,-0.07733603144222,3.396324606,8.95418161368
325,162.74728,-0.15127425017092,3.34904242512,8.76309082992
326,163.24728,-0.14500505485959997,3.21207727422,9.46399653476
327,163.74728,-0.1729532219639,3.3131979465400003,8.88440691004
328,164.24707999999998,-0.354807740424,3.46528573514,8.93843682322
329,164.74728,-0.7084669267722,3.62029282568,8.90675583828
330,165.24728,-1.3537633229702002,3.71069368354,8.861435852
331,165.74728,-2.009109605628,3.6500595283400004,9.05448874498
332,166.24728,-1.3354821799587,2.95489666934,9.07664627064
333,166.74707999999998,-1.2194302776000001,2.66378587962,9.16819564798
334,167.24707999999998,-1.005751211718,2.513995212368,9.46327863228
335,167.74728,-0.5786802211302,2.9149365544199997,8.96456641638
336,168.24728,-0.61179689210736,2.78505413058,9.3480881116
337,168.74728,-0.6109833308518,2.75610100742,9.17001417138
338,169.24728,-0.5767181142114,2.47149866106,9.4470551299
339,169.74728,-0.21291335754418,2.238389874718,9.24577107418
340,170.24728,0.552885601489,2.47953853848,9.47758770906
341,170.74728,-0.05704489549127999,2.56333519815,9.27994049056
342,171.24728,0.2621576502188,2.19517550468,9.25381092944
343,171.74728,-0.0930808043876,2.027486484,9.08200613042
344,172.24728,-0.5100062142003,2.049309009264,9.33578899392
345,172.74728,0.44506500643148,2.73432631309,7.58845415588
346,173.24728,1.9320128764646,0.9796215942858,10.89605287056
347,173.74728,1.580459345051,3.0272556833952002,8.688291158272
348,174.24728,1.1780823018764002,2.4971018552722,10.14528077342
349,174.74728,-0.004498508108540022,2.982318435806,8.36712650754
350,175.24728,-0.852801995598,2.73915979866,9.81205638882
351,175.74707999999998,0.15093925340076,2.46020452014,9.1476174929
352,176.24728,-0.266991151804,2.330752821,9.29372322098
353,176.74728,-0.3158047288066,2.1626809692986,9.39824161522
354,177.24728,-0.21272193438202,1.951538292066,9.74156384444
355,177.74728,0.6243831397588,1.752216171116,9.36440714868
356,178.24728,0.9381778944752,1.236467158997,10.06531266238
357,178.74728,1.160614702678,1.655115408944,9.006153745619999
358,179.24687999999998,0.7733124299441999,1.4643117612220002,10.02276839316
359,179.74728,0.4219024961286,1.757384651838,9.048075986726
360,180.24728,-0.4112304873026,1.5545211572982,9.94677231296
361,180.74728,-0.2737867737672,1.728144375962,9.63962968808
362,181.24728,-0.21406191249656,2.048304049692,9.40881791142
363,181.74728,-0.19448862386156,2.2961526107,9.09339613014
364,182.24728,-0.21195622963519997,2.197041892192,9.28070611984
365,182.74728,0.0894437028108,2.258058888916,9.5565029911
366,183.24728,-0.2109034037152,2.5112195169200002,9.06243286134
367,183.74728,-0.06407979555950001,2.26274880168,9.9993186577
368,184.24728,0.44042293204419997,2.82678494452,9.16183081616
369,184.74728,0.26952753661580003,3.1366076184000002,8.783046941599999
370,185.24707999999998,0.03096312403739999,2.8052016878,9.6010573385
371,185.74728,0.25258635888290004,2.8327670144400003,9.0351069357
372,186.24728,0.5471906840186,3.2893654393999996,9.34995438598
373,186.74728,0.5363751217652,3.98208757872,8.89464818
374,187.24728,0.44161934461560004,3.74696882958,9.03075188592
375,187.74728,-0.29278578143032,3.0713792658659997,9.247828846380001
376,188.24707999999998,-0.2304766710246,2.8414768862599997,8.915130700959999
377,188.74728,-1.4150674457573,3.4919418002,9.29707306836
378,189.24728,-1.6498990854300002,2.6600530964299995,8.359613044131
379,189.74728,-2.7175286829279997,2.91139517066,9.427194785840001
380,190.24728,-2.888759071836,2.8730142736200004,9.1971489335
381,190.74728,-2.80448385234,2.88095845226,8.81228732122
382,191.24728,-2.6425376319,2.9359933806,9.242516775079999
383,191.74728,-1.8578353631459998,2.779407053,9.05903507236
384,192.24728,-1.017858903368,2.69848180292,9.22390069968
385,192.74728,0.2536392039384,2.5985575437199997,9.2761598683
386,193.24728,1.3556297206799999,2.17584147446,9.53769536008
387,193.74707999999998,2.0865892076,2.38746270892,9.10009590104
388,194.24728,2.56615872388,1.829121488912,9.55090366376
389,194.74728,2.81075305218,1.84118132826,9.337751044340001
390,195.24728,2.4938476132400003,2.25466107846,9.14790466358
391,195.74728,2.10429609304,2.10922529216,9.46916486752
392,196.24728,1.52489801769,2.0936240911799997,9.22935621228
393,196.74728,0.871944564622,2.25619247674,9.490126075900001
394,197.24707999999998,0.036658044145800005,3.1355548215200004,9.19035325994
395,197.74728,0.2502413887448,4.1618364477,8.49140971176
396,198.24728,-0.484546615842,3.324013482356,8.669292089014
397,198.74728,0.04608574899439999,3.487826142352,8.725954161438
398,199.24728,0.006125630716000013,3.2338998055,9.13560538306
399,199.74728,0.207362008086,3.1899675750800003,9.14326249084
400,200.24728,0.2759881663978,3.71437859058,9.01988844904
401,200.74728,0.52560742184,3.58473546982,9.3025766375
402,201.24728,0.4086941048314,2.54165622006,9.31937423724
403,201.74728,0.37481173962139996,2.50729526032,9.32368133546
404,202.24728,-0.14438291897892,2.4991596699,9.26816785798
405,202.74728,-0.06805187741575999,2.1246829319200002,9.47954975128
406,203.24728,-0.06872186677066,1.95393110036,9.46284778558
407,203.74707999999998,0.34725839278633996,1.8656359743600002,9.894010506319999
408,204.24728,-0.13820943582912,2.03346853262,9.6011051371
409,204.74728,0.0524028152236,1.8857356870620001,9.3951310157
410,205.24728,0.3617947789341,1.96532094724,9.57205621762
411,205.74728,-0.18410377062313998,2.19503192664,9.50883791882
412,206.24728,-0.06632904258252,1.93641566522,9.69332447956
413,206.74728,-0.27101109082252,2.0120766972618,9.415804958119999
414,207.24728,-0.15065210420039998,1.4916377871042,9.503429994954
415,207.74728,-0.3048456082594,1.8443877006540002,9.6378110692
416,208.24728,-0.6247181357356,1.8966469478199999,9.525156946380001
417,208.74728,-0.44740998052579994,1.92832793004,9.26395644178
418,209.24728,-0.6465885296071999,1.8652052498,9.54468240722
419,209.74687999999998,-0.1523270878984,1.99192914252,9.47624763514
420,210.24728,-0.15835700361494,1.94445552584,9.472562656320001
421,210.74728,-0.028570303410560004,1.94273271318,9.19150177938
422,211.24728,-0.36394832775526,1.8469240831600002,9.66815198924
423,211.74728,-0.461240495746,1.89320127722,9.42752981148
424,212.24728,-0.3233181948192,1.8964555049,9.60402446772
425,212.74707999999998,-0.3814159290992,1.92009661206,9.33564534172
426,213.24728,-0.50024350147646,1.92981147292,9.61493566522
427,213.74728,-0.40342990280873997,1.85840963116,9.5062059017
428,214.24728,-0.47708097160564,2.06495810032,9.55109513242
429,214.74707999999998,-0.45726840624452003,1.97307371378,9.5905767632
430,215.24728,0.057092742214239996,2.08639776948,9.28142404562
431,215.74728,0.8069076488883999,1.8280208014600001,9.83904744122
432,216.24728,1.7171852379800001,1.511258929906,9.469787030200001
433,216.74728,0.3956771341036,1.987334914894,9.222225656560001
434,217.24707999999998,0.6385486571868,2.8339155697600003,8.93264616992
435,217.74728,-0.38457445237834004,3.1313434171,9.17532636632
436,218.24728,-0.53350373809484,3.3359297466399997,9.1086143968
437,218.74728,0.08824730097672001,3.42599560742,9.129096994740001
438,219.24728,0.4997649393126,3.07981399554,9.87125489316
439,219.74728,0.698464934502,3.61445429798,8.8598086833
440,220.24728,0.5461378395328,3.99596593858,8.61363514896
441,220.74707999999998,0.20391634558,4.11651636596,8.435178432359999
442,221.24728,0.6716653190517999,4.1653778076200005,8.58023131398
443,221.74707999999998,1.1282637387594,3.9784026240999997,9.03994033782
444,222.24728,0.272494647617,4.65002013202,8.66436285004
445,222.74728,0.22669601341068,4.422223386780001,8.50538372966
446,223.24707999999998,0.1190189951716,4.6502593804000005,8.73274981488
447,223.74707999999998,0.4899065062666,4.75056652556,8.3642072391
448,224.24728,0.33882368483139996,4.81627344132,9.05692939774
449,224.74728,-0.24368506212936,5.361597719180001,8.10889301304
450,225.24728,-0.640510767408,5.42735243794,7.92545934686
451,225.74728,-0.46262832901499995,3.9697884942000004,9.03079978944
452,226.24728,-0.48593442045,3.83775254242,8.84650464074
453,226.74707999999998,-0.13261023133804,2.81300230502,9.2359603978
454,227.24728,-0.6281637953785,2.7416004753,9.19906303404
455,227.75208392156864,-0.9520619061470589,2.772530747372549,9.30310671017647
456,228.25207591836735,-0.7621384288018367,2.7308454708367345,9.28332166302041
457,228.74707999999998,-0.0944925642938,2.71920361504,9.45878000274
458,229.24707999999998,0.21157337902914,2.4688186979599998,9.44614592536
459,229.74707999999998,0.413910459302,2.46379377842,9.3130092817
460,230.24728,0.3816552127122,2.3881805635,9.45490363082
461,230.74728,0.06001199187149999,2.40708385224,9.397906666
462,231.24728,-0.71703323174288,2.60377388954,9.385798912
463,231.74728,-1.623243018852,2.82463141682,9.0893282701
464,232.24707999999998,-2.32233009098,2.93336126318,8.96633708006
465,232.74728,-2.28303995366,2.8197979354799996,9.074444847119999
466,233.24728,-1.9957098149999999,2.8550202703600003,9.00763727184
467,233.74728,-0.8221260011520001,2.68895838744,9.19499527926
468,234.24728,-0.4861737077708,2.61683869844,9.3005666161
469,234.74728,0.2238246263968,2.6162165561159996,8.97351565358
470,235.24728,0.4146761787932,2.429719963048,9.34325454474
471,235.74728,0.23186451476523998,3.03328556058,9.56396861038
472,236.24728,0.0022971042564599565,3.25677519806,8.877515606880001
473,236.74728,-0.1079162991271,3.20978014234,8.83951748832
474,237.24728,-0.1241396365992,3.1014331532400004,9.12301905646
475,237.74728,-0.16677973696344,3.2749127579399997,9.12009997296
476,238.24707999999998,0.05024927392840001,3.6885839842399997,8.875362091000001
477,238.74728,-0.1642433459162,4.0332461596,8.879812707820001
478,239.24728,-0.08365307903182,4.0280776215,8.91474788656
479,239.74728,0.11351550584984,4.5921616601599995,8.6400518703
480,240.24728,-0.17486747505084,5.021721153220001,8.4183328819
481,240.74728,-0.17051254229902,4.89293948178,8.620191526380001
482,241.24728,-0.07226324256540001,5.04048086166,8.42512845976
483,241.74728,-0.012825528464000003,4.67930825226,8.9296790882
484,242.24728,0.035318062311059994,4.63776884082,8.51964506144
485,242.74728,0.12648460422888,4.565888462059999,8.74366106042
486,243.24728,-0.03632304784272,4.55870999336,8.59750742916
487,243.74728,0.474879585838,4.7129991913,8.63674975396
488,244.24728,0.47607599561111996,3.79453814036,8.84760528562
489,244.74728,-0.06714260448460001,2.41019453522,9.46351783756
490,245.24728,-0.17702101990256,2.74810894968,9.28764535926
491,245.74728,0.16634902718761999,2.6346891593999997,9.39192451476
492,246.24728,-0.2194696899986,2.90005317322,8.8287977117
493,246.74707999999998,-1.1214681148785,2.25092827316,9.55262651478
494,247.24728,-1.0478170356360001,-0.6193582135678,9.562197837700001
495,247.74728,-0.21836900102799997,1.218377450734,10.2568342213
496,248.24728,-0.019812572635700004,2.81228444822,8.25629096028
497,248.75208392156864,0.9514988894621569,2.5441334711362744,9.681501145588236
498,249.25228,0.013917435938775516,2.3472613290816327,9.40872507722449
499,249.74728,0.0091884389784,2.4557538652,9.394078159340001
500,250.24728,-0.25182065704740003,2.21321737294,9.487876892140001
501,250.74728,-0.14873785471842,2.25748459812,9.3986245536
502,251.24728,-0.0829830888668,2.335586357,9.40427146904
503,251.74707999999998,-0.06934400075326,2.2613609600399998,9.38752174382
504,252.24728,-0.09504291479584,1.7912670373,9.59947805442
505,252.74728,-0.10490134369442,1.36725885152,9.55439720158
506,253.24728,-0.050201418032860004,1.128742301482,9.66106925964
507,253.74707999999998,-0.1681197208943,0.904869812796,9.83756397272
508,254.24728,-0.1516092417694,1.187557870104,9.57626766228
509,254.74728,-0.16926827179973997,1.5637574601,9.59914304764
510,255.24728,-0.17659030974259998,1.4675181412200002,9.70428371412
511,255.74728,-0.15605989323776,1.42420803066,9.57033336592
512,256.24728,-0.0220139690278,1.46158392432,9.446480979959999
513,256.74728,-0.10332208304467999,1.421336644298,9.76439140354
514,257.24728,-0.1442872036674,1.439569959598,9.526066245560001
515,257.74708,-0.2858944449638,1.61793095747,9.8320603841
516,258.24728,0.0861416136949,1.45301763056,9.6891609287
517,258.74728,-0.15548561564653998,1.44153207062,9.69327663392
518,259.24728,-0.02622533537540001,1.476419425,9.65197655672
519,259.74728,-0.17319250412603998,1.62333873502,9.39895947448
520,260.24728,-0.015122637300599994,2.27504791974,9.37067628804
521,260.74728,-0.06398407621718,2.9637022828200004,8.61607565866
522,261.24728,-0.649029215506,2.4381427019034003,9.21059651346
523,261.74728,-0.8022655790962,2.93551480764,9.1667599868
524,262.24728,-0.7116733107163999,2.46834013606572,9.3192306236
525,262.74728,-0.47325246023379997,2.4977718399600004,9.63202037784
526,263.24728,-0.8019784387839999,2.63612487306,9.1341697787
527,263.74728,-0.35806197520734,2.8485117721,9.46715503688
528,264.24728,-0.2774238603338,2.9977281832799996,8.953703174700001
529,264.74728,0.1044227774334,1.95125113956,9.428247642899999
530,265.24728,0.42013179649048,1.95886033058,9.44212600692
531,265.74708,0.33724442502084,2.39827827932,9.47878409394
532,266.24728,0.1929572181909,2.56027236464,9.43638326634
533,266.74728,0.08240881209775999,2.7786413573999997,9.296211662460001
534,267.24728,0.20482561833448,2.76217874058,9.39694948172
535,267.74728,0.23832513519426002,2.64794537068,9.3451688002
536,268.24728,0.32551959157219995,3.18451193336,9.250365219179999
537,268.74728,0.26450261297564004,2.04303983097,9.563346404919999
538,269.24728,0.26656043942876,1.34141636608,9.49625164026
539,269.74728,0.30374490708,1.2783415639240001,9.62522478104
540,270.24728,0.30939196567467997,0.47636313101440003,9.68418395028
541,270.74728,0.24993032639284,0.6657670038960001,9.72633357994
542,271.24728,0.25280171250329997,0.527856679584,9.84671640404
543,271.74708,-0.22396819618980002,0.8950113650346,9.70251296034
544,272.24728,-0.42979880191619996,0.8272944998680001,9.53937029826
545,272.74728,-0.9739266828386001,1.073850943422,9.69868443464
546,273.24728,-1.51192892078,1.32155594598,9.63752389906
547,273.74728,-2.0408384275,1.414349614384,9.58349396736
548,274.24728,-2.242984109,1.7498233365800002,9.35282587092
549,274.74728,-2.47169006586,1.8197894907,9.4487779713
550,275.24728,-2.799985342,1.99628408902,8.90670799246
551,275.74728,-2.41981370452,1.86199887514,9.12770917874
552,276.24728,-2.6598616385000002,1.8508483195260002,9.6109157092
553,276.74708,-2.13411066774,1.9355542183599999,9.0291247463
554,277.24728,-1.88927704812,1.9338792848200002,9.69428161646
555,277.74728,-1.5879728198679999,2.01518737318,9.52817188254
556,278.24708,-0.705786973272,1.88157215354,9.245292339679999
557,278.74728,-0.1676890118611,1.7398213530000002,9.87072837786
558,279.24708,0.031585261382120006,1.78815635206,9.28549182862
559,279.74728,-0.003684948150339996,1.80739465236,9.50366942484
560,280.24728,0.0005742783563200027,1.8389799093799999,9.46681990636
561,280.74728,-0.08394021788530001,1.80662894956,9.235051135520001
562,281.24688000000003,-0.14270794183,1.8916698694000003,9.56219784754
563,281.74728,-0.13131810556102,1.9099031925,9.601153011280001
564,282.24728,-0.1531885065872,2.01729305746,9.30066242198
565,282.74728,-0.23904298156982,1.92062303544,9.5642077828
566,283.24728,-0.17190037868342,1.90468682538,9.42106916444
567,283.74728,-0.22564317323026,1.85443754914,9.53525465942
568,284.24728,-0.13749158932694,1.7967226719800002,9.413938570120001
569,284.74728,-0.0950429173922,1.82371370082,9.61091568448
570,285.24728,-0.22669601574488,1.8797057461,9.49003030722
571,285.74728,-0.0747039235822,1.7744694304800002,9.78894168846
572,286.24708,-0.0853280554044,1.8488383293600001,9.5096514418
573,286.74728,-0.2763710155232,1.5408341957644,10.221324815840001
574,287.24728,-0.0211046969944,1.777532221056,9.4127421477
575,287.74728,-0.046803617940399986,1.6617674636339999,9.3564629797
576,288.24708,-0.2357408872904,1.694931994676,9.678441124219999
577,288.74728,-0.30427132686180003,1.842952011772,9.60483796162
578,289.24708,-0.062691953775,1.910668876146,9.219737067679999
579,289.74728,-0.2672782926458,1.5297315234336,9.987880892548
580,290.24728,-0.20937197925989998,1.836108532532,9.081910471292
581,290.74708,0.019669004451900004,1.7146010049566,10.118529234778
582,291.24728,0.15395421234416,1.815003847756,8.779553416458
583,291.74728,-0.3187239722248,1.717089534418,10.041432332052
584,292.24728,-0.3079084148993,1.947135480682,9.317364149280001
585,292.74728,-0.2952264572128,1.761021755926,9.42145208382
586,293.24708,-0.26440690323919996,1.8223258732919998,9.29625953214
587,293.74728,-0.21267407474199998,1.89257913342,9.39206814774
588,294.24728,-0.2975235639139,1.735418547394,9.0672185514
589,294.74728,-0.16046269281666,1.7578632295240002,9.62029561026
590,295.24708,0.26445475844496,1.63190504312,9.63541827174
591,295.74728,0.1358166117858,1.5848142981000002,9.38924471886
592,296.24688000000003,-1.1317572536946,0.392710053538,9.71773124736
593,296.74708,-0.283932332723,0.8173882070259999,9.52410402226
594,297.24728,0.132466661922,0.961866837706,9.7328539845
595,297.74728,0.07719246189139999,0.9389435960764,9.46638922688
596,298.24728,-0.33705299403,1.1738709348608,9.3918288377
597,298.74708,-1.29537846268,1.96355025286,9.2823811909
598,299.24728,-1.374820181128,1.8919570039820002,9.43896745628
599,299.74728,-1.25403049227,1.872383718536,9.49878811838
600,300.24728,-0.8382057742719999,1.7558053902058,9.39905521356
601,300.74728,-1.0537990878368,1.742070598665,9.4470073709
602,301.24728,-1.0806944265486,1.9323957142540003,9.46093356126
603,301.74728,-0.9939306501631999,2.2962004439318,9.2992265705
604,302.24728,-0.818441057612,1.893536279518,9.69083610544
605,302.7520839215686,-0.6820482897576471,2.315173201052941,9.175395760176471
606,303.25228000000004,-1.0190006165130612,2.3471148658489795,9.405502163857143
607,303.74728,-1.411717501832,2.425939314372,9.01237497306
608,304.24708,-1.311218957986,2.5343341700996,9.68782107354
609,304.74708,-0.942102125282,2.3833470671494,8.6740777112
610,305.24728,-1.4354064478892,2.11908372396866,9.338516759660001
611,305.74708,-1.193252786518,2.28055141552806,9.05917866734
612,306.24728,-2.1622981047599996,1.7991154885040002,9.27831326444
613,306.74728,-2.22187937742,1.182054383298,9.16527647918
614,307.24708,-1.285520030216,1.711155343044,9.51170930828
615,307.74728,0.22655245210959996,3.095403221926,9.1163192654
616,308.24728,-0.08154738791264,3.39378822092,8.97432914726
617,308.74728,-0.34035510545496,2.949680334286,9.396040230239999
618,309.24728,-0.058384872326799994,2.8650701283199997,8.85105099852
619,309.74728,0.07293322534680001,2.85865735762,9.245005281333999
620,310.24708,-0.026512475447880015,2.7822784781400003,8.91910281256
621,310.74708,0.3756253005506,2.63019063468,9.42049490974
622,311.24728,0.319441822931,2.6321527624599996,9.1369933417
623,311.74728,0.27527031840244,2.63717767954,9.35062442808
624,312.24728,0.6225645915514,2.71963434696,9.19207600574
625,312.74728,0.738520767448,3.15034241432,8.68345762294
626,313.24728,1.154010500934,2.5846313119400004,9.853404292919999
627,313.74728,0.7851329649004001,2.45001109838,9.20528435658
628,314.24728,0.8602197405421,2.2792114092,9.5805746835
629,314.74728,0.7423971539900001,2.31515160804,9.42116491304
630,315.24728,0.78709508046804,2.5553910063800003,9.2172007276
631,315.74728,0.9229595436182,2.93029845716,9.27209197024
632,316.24728,0.7031070063176,2.8952196836799997,9.45375514014
633,316.74728,0.3719403390914,2.472934327126,9.41221568652
634,317.24728,-0.2333002060818,2.9557580851760004,8.9715056842356
635,317.74728,0.4068277130092,3.5257762933679997,9.25577300269
636,318.24728,0.21454048154976,3.2266734565404,8.934751867815999
637,318.74708,0.5129254628359999,3.511132240906,8.479302062726
638,319.24708,0.89352782023176,3.0843005318422003,8.592817492946
639,319.74728,0.2456950430098,3.52166065692,9.1535038085
640,320.24708,0.0562313309188,3.3028130960200004,9.29779101844
641,320.74728,0.8891728994002,3.0798977518,8.844446725038
642,321.24728,0.54608998683,3.5204163861,9.21935422918
643,321.74728,0.3308316543586,4.21414353838,8.24207754096
644,322.24728,0.40467417282379997,3.8043487380800003,8.712362962644
645,322.74728,0.9674181871390001,3.48907042506,9.86354996226
646,323.24728,0.4125226207636,3.6301991033000003,9.113495783560001
647,323.74728,0.9798130073392,3.85833079112,8.366600057232
648,324.24728,0.390412939953,4.31033500192,8.878281297800001
649,324.74728,0.6240481425642,2.83621268988,9.28936826696
650,325.24728,0.37873596742400006,3.63962681298,9.31908712402
651,325.74728,0.58853865802,3.64479531764,9.01070014956
652,326.24728,0.4894757996444,2.068403767346,9.40522876776
653,326.74728,0.550062071686,2.23451350448,9.40527656556
654,327.24728,0.810305460708,2.14023627754,9.385320415459999
655,327.74728000000005,0.827820924514,2.11075671202,9.42149986274
656,328.24728000000005,0.843517836348,2.07347653396,9.42231340412
657,328.74728000000005,0.836195796732,2.0410777092,9.45059652324
658,329.24728000000005,0.6892764925980001,1.7948084091999998,9.47174911494
659,329.74728000000005,0.67621168017,1.71881234874,9.52056270602
660,330.24708,0.6278766667819999,1.9256957888,9.45772708874
661,330.74728000000005,0.538145807392,2.1525354075600003,9.43882383312
662,331.24728000000005,0.603996294134,2.1710558414600003,9.4478209495
663,331.74728000000005,0.590165776606,2.12104583728,9.38220968244
664,332.24728000000005,0.627015241666,2.22508579242,9.4557651525
665,332.74728000000005,0.81035331128,2.28126926422,9.514197750000001
666,333.24728000000005,0.8222217142620001,2.1936440611,9.352538795340001
667,333.74728000000005,0.551306332636,2.0844356679000002,9.43422960278
668,334.24708,0.598540659092,2.02810861348,9.47146202086
669,334.74728000000005,-0.10470991554154,2.08295211554,9.38881393488
670,335.24728000000005,-1.357543993006,2.44570401427,9.25988864898
671,335.74728000000005,-3.35287092678,0.9959884965026,8.682309093679999
672,336.24728000000005,-0.4338187550052,2.191825574342,9.4652407076
673,336.74728000000005,-0.19525432077759997,4.4616570949200005,8.082954921599999
674,337.24728000000005,-1.090457123258,3.88565681462,9.124694099480001
675,337.74728000000005,-0.41716469892226,4.43040683272,8.415796499299999
676,338.24728000000005,-0.4766502712882,4.53798817626,8.733467598019999
677,338.74728000000005,-1.088399308334,4.77712681766,8.46260023116
678,339.24708,-0.59753566572268,5.09604217528,8.20513238906
679,339.74728000000005,-0.7600083323910001,5.03378101348,8.29002976416
680,340.24728000000005,-0.393188619017,4.9668298149600005,8.197618951739999
681,340.74728000000005,-0.1964028817606,5.14590866086,8.19417319308
682,341.24728000000005,-0.1563948892378,4.95893348692,8.33199977884
683,341.74728000000005,-0.073459652862,5.01913691522,8.06974647526
684,342.24728000000005,-0.2661775855904,4.44275377748,8.5834376236
685,342.74708,0.12323036854244,5.195440082479999,8.33281340604
686,343.24728000000005,-0.444777881464,5.16567335124,8.21561302188
687,343.74728000000005,-0.1459621795354,5.2219525433000005,7.9435969447599994
688,344.24728000000005,-0.08370093710354,4.40389436718,8.72791631696
689,344.74728000000005,-0.1127976584148,4.33464605346,8.67082353594
690,345.24728000000005,-0.11959327582320001,4.25128016484,8.71786642072
691,345.74728000000005,-0.09399007374018,4.19337380412,8.74839885712
692,346.24728000000005,-0.1995614086514,4.3199063013800005,8.63579271314
693,346.74708,-0.2524427877402,4.2753518676999995,8.7125066377
694,347.24728000000005,-0.23645873273768,4.25807574266,8.66364515302
695,347.74728000000005,-0.2038684883497,4.18198394776,8.81128224372
696,348.24728000000005,-0.2266481623412,4.26597205638,8.632825479460001
697,348.74728000000005,-0.20008783114508,4.2594157504000005,8.70714664458
698,349.24708,-0.18577875118248,4.202849388160001,8.72930416106
699,349.74728000000005,-0.21123838208400003,4.20907073024,8.76916865366
700,350.24728000000005,-0.3063770109408,4.25697504988,8.6827398395
701,350.74728000000005,-0.2293281224416,3.80439657684,8.88450262072
702,351.24728000000005,-0.0678604499009,3.51338146212,9.08124052046
703,351.74728000000005,-0.0369451840606,3.19824675088,9.28539611814
704,352.24728000000005,0.13820943602604,3.3560773325000004,9.11971708308
705,352.74728000000005,0.059389856345480004,3.51945927144,8.99892736444
706,353.24728000000005,0.0574277406674,3.95504868514,8.878664159800001
707,353.74708,-0.10805987605247999,4.24199598782,8.579274187040001
708,354.24728000000005,-0.0008614150378000096,4.28990034102,8.6265563584
709,354.74708,-0.0351266390528,4.5483730077799995,8.44939169884
710,355.24728000000005,0.05819344923040001,3.99199387544,9.05755170828
711,355.74728000000005,-0.0911665400635,3.84263389112,8.9677728843
712,356.24728000000005,-0.46636113649020006,3.7038023090000003,8.72480564128
713,356.74728000000005,-0.32312676678686003,3.8797226547,9.099760980820001
714,357.24728000000005,-1.2051211954244,5.360401249000001,7.665168047
715,357.74728000000005,-1.3052847426156,4.81847483634,8.60171879778
716,358.24667999999997,-0.7031548639946,4.06258214958,8.677714910239999
717,358.74728000000005,-0.68243301512,3.98524610036,8.80553952184
718,359.24728000000005,-1.1381700238731,4.181122627220001,9.0645385456
719,359.74728000000005,-0.6070590985971199,3.582438331836,8.77601206782
720,360.24728000000005,-0.9157810877152001,3.9177685118,8.5926739693
721,360.74728000000005,-0.8764430891162001,4.30301295274,8.7579223441
722,361.24708,-1.0377193348732,4.11139574292,9.0153421597
723,361.74728000000005,-0.560159791967,3.0818598394039998,8.38770479198
724,362.24728000000005,-0.42951166526039997,3.5198779823,9.37998438948
725,362.74728000000005,-0.4074617933762,3.9144305209434,8.56778868678
726,363.24728000000005,0.35274991719354,3.991611064718,9.025104942719999
727,363.74728000000005,-0.18458233530680002,3.584256916696,9.05980085402
728,364.24728000000005,-0.5835615840876,2.49250763076888,9.12507695236
729,364.74728000000005,-0.178600283009,2.8800013324258,9.20672015166
730,365.24728000000005,-1.7119210175126,2.8751199745999996,9.32430340766
731,365.74728000000005,-2.153683945032,2.80850380654,9.212271509339999
732,366.24728000000005,-1.542078477172,3.0631001066200003,8.8426761149
733,366.74728000000005,-2.1048703623200002,2.9601130437400003,8.94221749294
734,367.24728000000005,-1.250536970977,4.04568881514,8.8341097547
735,367.74728000000005,-0.874433103174,4.07488126278,8.731026973759999
736,368.24728000000005,-0.788913619482,3.9030765772600002,8.73595621108
737,368.74728000000005,-0.644147850594,3.8569908047,8.92403204912
738,369.24728000000005,-0.6198846293078,3.8113357639200003,8.770843467759999
739,369.74728000000005,-0.621751036348,3.72270562178,8.95734016426
740,370.24728000000005,-0.4232903219932,3.8232998561200002,8.83214763646
741,370.74708,-0.588538664316,3.8507695007600002,8.86813573842
742,371.24728000000005,-0.59533427700016,4.0576529502400005,8.81434514024
743,371.74708,-0.5482435214086,4.06511855606,8.59224327088
744,372.24728000000005,-0.550827770528,3.93609754092,8.83320052142
745,372.74728000000005,-0.595094991613,3.91279143328,8.72786847116
746,373.24708,-0.2838844806028,3.76721213102,8.92652062458
747,373.74708,-0.09973284410951999,3.7163407373399995,9.052239417860001
748,374.24728000000005,-0.25354349197919995,3.8971902512999996,8.7568694494
749,374.74728000000005,-0.38122450508384,3.8168871068800003,8.70130813608
750,375.24728000000005,-0.6592704946328,2.2425533794340002,9.64364952058
751,375.74728000000005,-0.3413600795455,1.72709152585,9.431358271
752,376.24728000000005,-0.16113267736852,1.642624906298,9.62594274538
753,376.74728000000005,-0.2806302416248,2.015713778832,9.21787077892
754,377.24728000000005,-0.4258267163456,2.40325535766,9.40527666084
755,377.74728000000005,-0.6037570116408,2.8666972447199996,9.32234130874
756,378.24728000000005,-0.6585526497959999,2.97418285126,8.94317465786
757,378.74728000000005,-0.6046662792606,2.8599973344799996,9.21208003984
758,379.24728000000005,-0.41333618061676,2.9248428297999998,9.01357145326
759,379.74688000000003,-0.6517091763057999,2.8876583695199995,9.36598644252
760,380.24728000000005,-0.648263511161,3.10334739206,9.29013391518
761,380.74728000000005,-0.7926942739535999,3.03003133064,9.18355762486
762,381.24728000000005,-0.604379144006,2.89129544732,9.29573312764
763,381.74728000000005,-0.6508477517322799,2.8994310426800003,9.140726108640001
764,382.24728000000005,-0.51282974448908,2.90957662106,9.2270112609
765,382.74708,-0.5293402226984,2.88349484206,9.2194020272
766,383.24728000000005,-0.623426023134,3.389529019616,9.29104317594
767,383.74728000000005,-0.8813244329005999,3.5622429467,8.9303969956
768,384.24708,-0.5024927632157999,2.7524638605400003,9.1677170659
769,384.74728000000005,-0.010289148566400017,3.95677150488,8.47944554314
770,385.24728000000005,-0.11255837560109999,4.12795407288,9.24658455842
771,385.74728000000005,0.37237105775152,5.533019514159999,7.66066960336
772,386.24728000000005,0.005407782033760005,5.780628795579999,7.84046623236
773,386.74728000000005,0.1480200079904,5.58523093224,7.9278042697
774,387.24728000000005,0.1024606641426,5.655771312780001,8.21819722178
775,387.74728000000005,0.20176280995860002,5.7549777316999995,7.8858341026400005
776,388.24728000000005,0.1488335678746,5.8323616313399995,8.07343153
777,388.74728000000005,-0.17505891149970002,6.1179689311,7.7170444298000005
778,389.24728000000005,0.8394978891359,5.97282030104,7.834436388179999
779,389.74728000000005,0.48756155021959996,5.87777738562,7.78265568732
780,390.24728000000005,0.39405003308574005,6.0431214428199995,7.73417706492
781,390.74728000000005,0.438987231726,6.6039512348,7.40530752184
782,391.24708,0.3713182145892,6.61156040198,7.188422088679999
783,391.74708,0.2902493876802,6.878264398620001,7.10070122726
784,392.24728000000005,0.4837808772782,6.690571413080001,7.2378577900200005
785,392.74708,0.3173839975026,6.92052160262,7.00709394456
786,393.24728000000005,0.7327780070236,6.678559417740001,7.14463342668
787,393.74708,0.6189753573210001,5.63074235906,7.73293284418
788,394.24708,0.6794659191264,5.17691963194,8.160769548340001
789,394.74728000000005,0.961196862484,5.43457880016,7.97948925024
790,395.24728000000005,1.098114169148,5.427113161019999,7.9495310974599995
791,395.74708,1.067581745372,5.4384072971199995,7.92770858764
792,396.24728000000005,1.154489065394,5.4495578957,8.00466176984
793,396.74728000000005,1.037240756988,5.5415379620800005,7.80849810598
794,397.24728000000005,1.181001541624,5.54397865294,7.8008411122000005
795,397.74728000000005,1.096247773999,5.622558917999999,7.949387493100001
796,398.24728000000005,0.80202629388,5.628780298220001,7.83314422606
797,398.74708,0.6982256536193999,5.60073640832,7.93876339916
798,399.24728000000005,0.374476740817,5.57628174788,7.838360538640001
799,399.74728000000005,0.33121451350208,5.08632738102,8.33831695556
800,400.24728000000005,0.38476588292020003,4.7160141564,8.400817375279999
801,400.74728000000005,0.43836510517039995,4.63073399552,8.53778266904
802,401.24728000000005,0.468466816846,4.67949964526,8.44116043092
803,401.74728000000005,0.44922852396400004,4.64466017728,8.5102651023
804,402.24708,0.39749569505,4.606279316,8.486145458240001
805,402.74728000000005,0.37878382623,4.63776882172,8.560610199000001
806,403.24728000000005,0.06575476571564,4.67543186186,8.51859212872
807,403.74728000000005,-0.003014957198,4.28640677944,8.68953546528
808,404.24728000000005,0.16845471870072,4.0741155482,8.84018753046
809,404.74728000000005,0.16965112557377998,3.8969988107799995,8.98873399736
810,405.24728000000005,0.16572689886988,3.8113836384,9.08411188136
811,405.7520839215686,0.5450943822666666,4.210288706941177,8.72507587119608
812,406.25228000000004,0.6631048717338776,4.644371120244898,8.483532954265307
813,406.74728000000005,0.27613173144832,4.72639900212,8.52988637898
814,407.24728000000005,0.32183464883662,4.73635313984,8.40574672696
815,407.74728000000005,0.3056113087986,4.80526645652,8.49782241812
816,408.24728000000005,-0.0994457093728,4.2578842877800005,9.18264827726
817,408.74728000000005,0.115381909354,4.50970499034,8.581762723939999
818,409.24728000000005,0.34571501157859996,4.5767996931,8.3391305064
819,409.74728000000005,0.12217752446366,4.67390048506,8.61478363036
820,410.24728000000005,0.3284866905008,4.630686101939999,8.43010555294
821,410.74728000000005,0.3053720215454,4.59120452406,8.51342370016
822,411.24728000000005,0.33049666790869997,4.6620799684600005,8.49241475108
823,411.74728000000005,0.006699904384600002,4.9888916302,8.3801913545
824,412.24728000000005,0.2193739786334,4.94405014522,8.324342870719999
825,412.74728000000005,-0.0785324421622,4.6786861086,8.51351941102
826,413.24728000000005,-0.486843694954,4.74448870662,8.63856831518
827,413.74728000000005,-0.781256599283,4.80497929574,8.46657226548
828,414.24728000000005,-1.1977991544356998,5.08704519744,8.367892207979999
829,414.74728000000005,-1.5021183391267,4.76822554586,8.125547123259999
830,415.24708,-1.667270950748,4.54406589504,8.597076768860001
831,415.74728000000005,-1.03642720010548,4.10737580312,8.471645050120001
832,416.24708,-0.9847900821708001,4.23031902312,8.41072371496
833,416.74688000000003,-0.34853855117960003,4.50276577006,8.22102077492
834,417.24728000000005,-0.128494572485,4.4082014560400005,9.0279284382
835,417.74728000000005,0.7074140790401999,4.694239459059999,8.32783635142
836,418.24708,0.45276989864850004,5.23362956058,8.20733385098
837,418.74728000000005,0.4005585199075,5.341976571060001,7.98992192264
838,419.24728000000005,-0.6330930144460001,5.7398550987600006,7.90387594228
839,419.74728000000005,-0.40232920271620004,6.0113447857,7.4342606545
840,420.24728000000005,-0.4976114021122,5.81853111274,7.82510426016
841,420.74708,0.78920078064712,5.55130075454,7.60415104914
842,421.24708,0.00961914787706001,5.38476021766,7.835010585700001
843,421.74728000000005,-0.26244478865320003,5.45673635484,8.2682072167
844,422.24728000000005,0.6230910233043601,5.69664066326,7.6816785429
845,422.74728000000005,0.1064327506408,5.70621204384,7.90191395758
846,423.24708,-0.256223445678,5.56953397754,8.1826877928
847,423.74728000000005,-0.802361293077,5.6264353180199995,7.74738542566
848,424.24708,-0.4834458880142,5.798718557360001,7.76839439394
849,424.74728000000005,-0.455497720399,5.52052896016,8.16895289434
850,425.24728000000005,-0.21056839736599997,5.07924465646,7.87554503894
851,425.74728000000005,-0.4481278212426,4.99741011142,8.56156724966
852,426.24728000000005,0.045750764776400034,4.54105097778,8.48049839994
853,426.74728000000005,0.5357529907132,4.988604517,7.555672497980001
854,427.24728000000005,0.41907896629956,4.90212789064,8.37722418744
855,427.74708,0.10490133377574001,3.29936745642,9.374839782939999
856,428.24728000000005,-0.02823531118140002,2.202114675096,8.99016968706
857,428.74728000000005,-0.026321049872160007,1.593237030558,9.501946611140001
858,429.24728000000005,0.24933211676288,1.543753449926,9.45901925106
859,429.74728000000005,0.10676774617019999,1.712064601132,9.3760362914
860,430.24728000000005,0.1332323680096,1.9243079737420001,9.792291674760001
861,430.74728000000005,0.0947557781832,1.9143059606119999,8.82568697882
862,431.24728000000005,0.12940385119686001,1.912008848154,9.54994659434
863,431.74708,0.1611326772884,1.94871476646,9.42126062406
864,432.24688000000003,0.08786444477401999,1.907366783588,9.65580503434
865,432.74708,0.224733902808,2.2889741468400002,9.329232683459999
866,433.24728000000005,0.3946721658712,2.1335363697400003,9.350145902720001
867,433.74728000000005,0.183768776199,2.2635623574799997,9.60646509086
868,434.24728000000005,0.06183054123458,2.6536403239079998,9.06339006424
869,434.74728000000005,0.025124656953799986,2.9967710686399998,9.59129459356
870,435.24728000000005,0.20157137590482,2.9239335609,9.55152588834
871,435.74728000000005,0.2799602461556,2.15894816878,9.47806619616
872,436.24708,0.2310509511454,2.43962624554,9.3219583991
873,436.74728000000005,0.1430907986378,2.88153271676,9.13393043508
874,437.24728000000005,0.38691941872805996,2.695179708,9.4743334198
875,437.74728000000005,0.130839543127,3.0091180516000002,9.474046144359999
876,438.24728000000005,0.43037307856299994,3.33315409186,9.34985867462
877,438.74728000000005,0.32379676141179997,3.2909446715799997,9.28506112118
878,439.24728000000005,0.23822942137599998,2.8210900306999998,9.3570851135
879,439.74728000000005,0.264119765163,1.8240008426,9.44284387556
880,440.24708,0.19535004038259998,1.172339525758,9.66925277742
881,440.74728000000005,0.259764827188,1.29872842308,9.5855997276
882,441.24728000000005,0.26971896797399997,1.27063667532,9.600100193000001
883,441.74728000000005,0.3048456052,1.24689986702,9.58885389324
884,442.24728000000005,0.31130622506,1.23273435824,9.597180919700001
885,442.74728000000005,0.33044880658399994,1.22991083382,9.59493156432
886,443.24728000000005,0.30575487464199996,1.24828772302,9.5788996887
887,443.74708,0.337722990516,1.2404871153400001,9.59785089502
888,444.24728000000005,0.374381031392,1.2480484223000001,9.6371890258
889,444.74688000000003,0.2889572633724,1.23785500516,9.56104928972
890,445.24708,0.346337147362,1.22426377782,9.5897631073
891,445.74728000000005,0.35088351161,1.2156974792200002,9.60191869732
892,446.24708,0.374285318552,1.21378322834,9.61369144448
893,446.74708,0.418504682788,1.2169895934800001,9.60244520186
894,447.24728000000005,0.40768912135999996,1.18669647212,9.60029157632
895,447.74728000000005,0.452052054998,1.1067761875220001,9.61421787266
896,448.24728000000005,0.466983266474,0.12308679548862,9.72423980734
897,448.74728000000005,0.43468015849799996,-0.2456471716978,9.756064395860001
898,449.24728000000005,0.561404049394,-0.390747936964,9.70236932746
899,449.74728000000005,0.538959376812,-0.3118805059456,9.85929069536
900,450.24708,0.48349374780411997,0.4526263283932,9.5683713531
901,450.74728000000005,0.569156795746,0.27081966851920003,9.76219003728
902,451.24728000000005,0.7447899717545999,0.2003271144346,9.8066965384
903,451.74728000000005,0.693392145908,0.35097922782540003,9.82607834814
904,452.24728000000005,0.721866737998,0.42338604244980005,9.60512512226
905,452.74728000000005,0.6932485795615401,0.33116665179648,9.67920681998
906,453.24728000000005,0.5301059296808,0.4152983012614,9.48428751924
907,453.74728000000005,0.5249374299368,0.4897629430568,9.75596865652
908,454.24708,1.52939652206,0.775130968094,9.35880789754
909,454.74728000000005,0.5076612543904,0.7312466074362,9.61775918004
910,455.24728000000005,-0.011772686894879994,0.60193846744406,9.95773140848
911,455.74728000000005,0.05781059802400001,0.41994037350999996,9.60948002868
912,456.24728000000005,0.08609375779492,0.5019184752424,9.53123478936
913,456.74728000000005,0.09963713527233999,0.4716253444312,9.50017579048
914,457.24728000000005,0.12476177368136,0.40577486178956,9.66513709988
915,457.74728000000005,0.1972164401111,0.5681039550693999,9.25491163248
916,458.24728000000005,-0.12997812316739998,0.209946271731,10.347952967040001
917,458.74728000000005,0.23325234722764002,0.5168018363699001,9.62034335176
918,459.24708,0.43750369175944004,0.8387800495922001,9.11564929012
919,459.74728000000005,0.31824540726399997,0.7144489935110001,9.79061668342
920,460.24728000000005,0.19367506705804,0.5415914725538,9.97357196338
921,460.74708,0.3256631609718,0.56872609088656,9.54286385518
922,461.24708,0.12672388643134,0.6635775762820001,9.63800247186
923,461.74708,0.26971896977616,0.625244563818,9.616419181920001
924,462.24728000000005,0.2376551457694,0.6804230505027999,9.8440723605
925,462.74728000000005,0.14945570091768,0.643190723658,9.568466968320001
926,463.24728000000005,-0.022061824377179996,0.67678594772,9.6141699598
927,463.74728000000005,-0.00952343366488,0.80250486016,9.6704013063
928,464.24728000000005,0.2194218367738,0.5791587856486,9.606656513379999
929,464.74728000000005,0.36509687881572,0.7477092211795999,9.872259836440001
930,465.24728000000005,0.3103490988658,0.85318483822,9.7228040689
931,465.74728000000005,0.1205504029896,0.711625447374,9.7482636838
932,466.24728000000005,-0.04398007971364,1.1600882798988001,9.52563557572
933,466.74728000000005,-0.1009771140456,1.2195259858266,9.62249690044
934,467.24728000000005,0.1866401676938,1.0475298951938,9.599525890019999
935,467.74708,0.8103054547894,1.5992190747480002,9.48471826574
936,468.24728000000005,1.388985698186,1.4516297929338,9.48175109862
937,468.74728000000005,1.33304148671,1.213304650782,9.91552205088
938,469.24728000000005,1.337109291494,1.283175066084,9.5179784394
939,469.74728000000005,1.16362966631,1.3849179052540002,9.408147888
940,470.24728000000005,1.259294693544,1.288630707362,9.5787082292
941,470.74728000000005,1.313133207516,1.17377523036,9.54319889088
942,471.24728000000005,0.54250074635504,1.6491812182199999,9.38484180454
943,471.74708,0.3898386616286,1.536766417022,9.71749211308
944,472.24708,0.39472002666272,1.7081403779800002,9.49644317652
945,472.74728000000005,0.4791388076018,1.599984781752,9.3782376861
946,473.24728000000005,-0.020434708528199997,1.7336000026990002,9.48648887608
947,473.74728000000005,-0.491102922176,1.925265095564,9.49180090898
948,474.24728000000005,-0.60394843847,2.27969000344,9.32219767564
949,474.74728000000005,-0.41237905050522,2.20512962808,9.39852882386
950,475.24688000000003,-0.31049266857708,2.18881059874,9.446959467320001
951,475.74728000000005,-0.28421947460054,2.13238780964,9.4629914095
952,476.24728000000005,-0.2309073837299,2.21584949742,9.48830750474
953,476.74708,-0.2783331281318,2.20445964344,9.29726447094
954,477.24728000000005,-0.371796783502,2.24231412412,9.41121069898
955,477.74728000000005,-0.4883751039166,2.23862915996,9.401495952620001
956,478.24728000000005,-0.5129733194220001,2.18421636592,9.44250887872
957,478.74728000000005,-0.5584848056181,2.31122739078,9.36847497956
958,479.24708,-0.621416048133,2.21173383468,9.564064378420001
959,479.74728000000005,-0.46545185594300004,2.29232408756,9.36809207922
960,480.24728000000005,-0.48459444445781996,2.27768001088,9.33449681276
961,480.74728000000005,-0.4772724049912,2.29543475632,9.4076215747
962,481.24708,-0.2930729226116,2.58018066648,9.0297948072
963,481.74708,-0.40936411967400005,2.68130133629,9.59564940446
964,482.24728000000005,-0.19377077645460003,2.78596336848,9.188199711140001
965,482.74728000000005,-0.2634019108774,3.1146893740399997,8.913359976079999
966,483.24708,-0.28101309142119996,3.5825819134800003,9.391876745360001
967,483.74688000000003,-0.3027877777842,2.89498037578,8.82712267396
968,484.24728000000005,-0.398548531478,2.9951918220800002,9.66183500328
969,484.74728000000005,0.037998022083399995,2.851191767362,9.05846079842
970,485.24728000000005,-0.05742774519380001,2.693600452,9.65082797968
971,485.74708,0.142947224838,2.4588645411,9.16096933376
972,486.24728000000005,-0.0138783708848,2.53481274838,9.46217774426
973,486.74728000000005,0.16433906144819999,2.523805747,9.5567900647
974,487.24728000000005,-0.06116054852664,2.4440290498560002,9.48811600712
975,487.74728000000005,0.1093998511341,2.7528467274399997,9.49840514202
976,488.24708,0.09982855882879998,2.8579395055999997,9.26304716996
977,488.74728000000005,0.01651047650762,2.9840412712,9.65628370272
978,489.24728000000005,0.04876572464975999,2.86631439216,9.368283443540001
979,489.74728000000005,0.05608776317698,2.94245399948,9.39484390258
980,490.24728000000005,0.01607976859114,2.09041771646,9.50290365224
981,490.74728000000005,0.07350751085156,0.999338454642,9.619194889080001
982,491.24728000000005,0.005168496992799999,1.001013420844,9.63828962312
983,491.74728000000005,0.0552263470989,1.0414042676939999,9.61627559658
984,492.24728000000005,0.049100720724800005,1.011206854574,9.628096218100001
985,492.74728000000005,0.09801001543033999,1.010201858284,9.63642316822
986,493.24708,0.13083954260574,0.9659825015360001,9.62579906464
987,493.74708,0.1926700781264,0.926022359148,9.64843515398
988,494.24728000000005,0.1475893016264,0.94569136503,9.61775924688
989,494.74728000000005,0.185252329514,0.960239725134,9.647669487
990,495.24728000000005,0.20338992558320002,0.9515777039459999,9.63225973128
991,495.74728000000005,0.1865923105258,0.991442140356,9.59445308684
992,496.24728000000005,0.10418349820021999,0.98297153592,9.70265663166
993,496.74728000000005,0.0260339108342,1.140227839998,9.569615630980001
994,497.24708,-0.02800798895588,1.20202249292,9.57054870606
995,497.74728000000005,0.01963310931222,1.26470247502,9.557172832500001
996,498.24708,0.0427358124748,1.2256994747999999,9.62847913738
997,498.74728000000005,-0.24612574251504,1.7278572345,9.44676811204
998,499.24728000000005,-0.30216564358516,1.7056997037,9.50328655204
999,499.74728000000005,-0.15223137841519999,1.5059468532400002,9.68404033662
1000,500.24728000000005,-0.060251273606360005,1.3925749301400001,9.55726861948
1001,500.74708,-0.2344487642522,1.43899568322,9.56832345976
1002,501.24728000000005,-0.22956740409280002,1.4604832149200002,9.54501729966
1003,501.74728000000005,-0.2041556280834,1.37400662424,9.56497346866
1004,502.24708,-0.2432064947418,1.3445270395,9.57100336082
1005,502.74708,-0.2313380925298,1.4141581726,9.539705333639999
1006,503.24728000000005,-0.2568934411178,1.114337503892,9.57023778858
1007,503.74728000000005,-0.23526232247964,1.244219920628,9.63733255366
1008,504.24728000000005,-0.1826202238486,1.20449906108,9.60938428876
1009,504.74728000000005,-0.1485464300578,1.2180424452,9.60622575756
1010,505.24728000000005,-0.1060977558255,1.2327822184,9.59885591502
1011,505.74708,-0.1360558956542,1.22072239398,9.61225568768
1012,506.24728000000005,-0.13710873574286,1.29647917746,9.62733053206
1013,506.74728000000005,0.8490213263440001,1.53992493384,9.488546791060001
1014,507.24728000000005,0.60471413546912,1.86965591422,9.48452682502
1015,507.74728000000005,0.14868999825857998,1.7729858659800002,9.47902338032
1016,508.24728000000005,0.18707087307474002,1.5742380238000002,9.5681320953
1017,508.74728000000005,0.16993826456480002,1.363717483014,9.66523271584
1018,509.24728000000005,0.4864129916078,1.4318650675200002,9.43202827454
1019,509.74728000000005,0.4706682111344,1.37659086706,9.564829902600001
1020,510.24728000000005,0.824518821234,1.113954653758,9.62579912136
1021,510.74728000000005,0.810831878196,1.124961632476,9.53673820494
1022,511.24728000000005,0.89912703039,1.049539873646,9.599669456340001
1023,511.74708,0.8718488573759999,1.06643319368,9.579234771700001
1024,512.24728,0.772068148856,0.6899943399599999,9.6183335112
1025,512.74728,0.8118847239039999,0.65161346316,9.64436735146
1026,513.24728,0.7882436358920001,0.858114055402,9.61594070432
1027,513.74728,0.802552710782,0.868642474408,9.60565147398
1028,514.24728,0.885105088948,0.88682792546,9.60201446526
1029,514.74728,0.883765110958,0.932482985256,9.59641530988
1030,515.24728,0.7530691413460001,0.860171878938,9.59225168224
1031,515.74728,0.855242663012,0.5347480016162001,9.65853288658
1032,516.24728,0.5036413038454,0.6600840542964,9.738931732600001
1033,516.74728,-0.27732814497839997,0.3898865268846,9.81109929976
1034,517.24708,-0.885009380928,-1.0463813484217999,9.62594259296
1035,517.74728,-2.68551272634,-1.1141460771876,9.42901337638
1036,518.24728,-0.992877828132,0.6385486443696,9.4831389425
1037,518.74728,-1.0938549365042,0.28335806032099997,9.60378517138
1038,519.24728,-0.03541377166660002,0.5372365382898,9.88752595792
1039,519.74728,0.4989513800598,0.1720439499064,9.83397466672
1040,520.24728,0.6423293042960999,0.14021940583944,9.4460981182
1041,520.74728,0.8111668810157999,0.14701502527479998,9.49692171524
1042,521.24708,0.37060036619906,-0.5120640446998,9.593448180960001
1043,521.74728,0.003924233716840008,-0.08910871646659999,9.89566162156
1044,522.24728,0.23540589605280002,0.3293481096794,9.89269452128
1045,522.74708,-0.10810772990216,0.5799723536304,9.5370732493
1046,523.24728,0.37117465123918003,0.6692724955296001,9.48821173722
1047,523.74728,0.397830697933,0.4033820420112,9.92241344396
1048,524.24728,0.47334817803134,0.5112504905638999,9.7664014046
1049,524.74728,0.2733082051047,0.806094093356,9.4736634254
1050,525.24728,0.43439303014004,0.8588319021540001,9.68226973564
1051,525.74728,0.43310090174599997,0.8728538456511,9.02242491978
1052,526.24728,0.22219751044056,0.41194834141532,10.449217378492001
1053,526.74728,0.20918055401463997,1.0153224913212,9.59100745192
1054,527.24728,0.313411911586,0.9938349631440001,9.237922516040001
1055,527.74728,0.28728229031108,0.656781969648,9.329902680368
1056,528.24708,-0.041347977538599985,0.6608019122484001,10.5897716251162
1057,528.74728,0.6621897348651999,0.8691688886560001,9.552291539194
1058,529.24708,0.41099122226,0.6785566417304,9.228638423084
1059,529.74728,0.36844682418626,0.6620461585672,10.697831439168
1060,530.24708,0.28938797851388,1.7635581273919998,8.765531463182
1061,530.74728,0.2533042084314,2.004515398018,10.36436770456
1062,531.24728,0.5541298847338,1.3288779730217999,9.352538690620001
1063,531.74728,-0.3817030702842599,1.3433784828028001,9.4940024665
1064,532.24708,-0.5262295586246001,1.3179667142317002,9.81306138026
1065,532.74728,-0.28244878036939997,1.519729516538,9.00002808546
1066,533.24728,-0.14376078177528,1.281882945316,9.683992528720001
1067,533.74728,-0.0697268499838,1.3592189789420002,9.38048688836
1068,534.24728,-0.10662417505899999,0.8971170668894,9.764247791648
1069,534.74728,0.21592831154418002,1.20866257575,9.644989538859999
1070,535.24728,0.2196132592806,1.203829069122,9.60014803902
1071,535.74708,0.33480374374980004,1.122520963604,9.77343617388
1072,536.24728,0.42453459162179996,1.155876904078,9.27802621874
1073,536.74708,0.2837887682304,1.195167050344,10.03693383228
1074,537.24728,0.35643485912949996,1.43645928862,9.41848497876
1075,537.74728,0.370887505495,1.3910435140000001,9.59349595096
1076,538.24728,0.440757938285,1.572419462166,9.27438915264
1077,538.74728,0.1012163974705,1.80466683854,9.54568748462
1078,539.24728,-0.0306759883316,1.96910159586,9.44863440536
1079,539.74728,0.019573286988599996,1.8896120477159999,9.56353779798
1080,540.24728,0.011772685570799997,2.1162123728399997,9.41872415558
1081,540.74728,0.024741784562399994,2.2446590732800002,9.61220779464
1082,541.24728,-0.010959128329,2.46934509516,9.00797220228
1083,541.74728,0.008039886330120006,2.39880471706,9.651115112500001
1084,542.24728,-0.2527777857504,2.6472275281399997,9.5519086749
1085,542.74728,-0.2416750788262,3.0742027973400003,9.32095347844
1086,543.24728,0.02067399083179998,3.0520452738,8.89852451298
1087,543.74708,0.1690768552854,2.59386761902,9.6459467216
1088,544.24708,0.003014950011800005,2.5721886325,9.549707426878
1089,544.74728,0.09322437749024001,2.5946811747200003,9.37943396654
1090,545.24708,0.08614161654600001,2.1225293893079997,9.8029157000742
1091,545.74728,-0.20697915611974,2.24240981814,9.78908532166
1092,546.24688,0.19721644313792003,2.7296842241399997,9.42537621412
1093,546.74708,-0.16208980467926,3.0337162684999996,9.16685566912
1094,547.24728,-0.12715459345828,2.82051577092,9.44672031448
1095,547.74728,-0.03670589863894,2.7890740584000002,9.43757972698
1096,548.24708,-0.10212567066452,2.58577984338,9.420638474999999
1097,548.74728,0.0029192443994600047,2.7590680598799997,9.30037517536
1098,549.24728,-0.0672861740356,2.6006632328,9.45676998118
1099,549.74728,-0.0495792862355,1.95996101616,9.51907917024
1100,550.24728,0.0903051256121,1.2566147412882,9.64053882614
1101,550.74728,-0.04211367847179999,1.212347524182,9.54458671568
1102,551.24728,0.0081355967227,1.116299625636,9.6169455908
1103,551.74728,-0.02512463774872,1.088542879742,9.61091564166
1104,552.24728,0.05154139937748,1.131805108782,9.64250089636
1105,552.74728,0.052594241713,1.123813089084,9.587657547100001
1106,553.24728,0.08188239067952001,1.096199924982,9.6425967407
1107,553.74728,0.089491567016,1.087681461546,9.60833139432
1108,554.24728,0.14524433421968,1.080598712004,9.67336833954
1109,554.74728,0.006173481959099998,1.15061269524,9.540853843659999
1110,555.24728,0.013447663220200003,1.1442956472,9.64905735014
1111,555.74728,0.039242291962419996,1.1779387308,9.58851892466
1112,556.24728,-0.0019621143203399994,1.11495965246,9.59971721644
1113,556.74728,0.049340003279,1.117639608408,9.64140028004
1114,557.24728,-0.0036370910873600006,1.1069197631,9.59603235232
1115,557.74708,0.012538391571879996,1.14644919168,9.61661060334
1116,558.24728,-0.01335195001774,1.13850502254,9.60340232842
1117,558.74708,0.009667003113860002,1.1497512841,9.60258867262
1118,559.24728,0.007704889564600001,1.080167988564,9.63962957376
1119,559.74728,0.0396729982282,1.060786128048,9.59837738036
1120,560.24728,0.036418759958639996,1.086006481698,9.65676216126
1121,560.74728,-0.0372801748926,1.057579752228,9.622353363
1122,561.24728,0.021774685872299998,1.0865328979439999,9.63225973126
1123,561.74728,-0.05388636647616,1.050927697416,9.595793132779999
1124,562.24728,-0.052354959449859996,1.05049700132,9.61924274462
1125,562.74728,-0.1449571942677,1.033316530012,9.61101140974
1126,563.24728,-0.06752545485818001,0.995557795736,9.6692048834
1127,563.74728,-0.049052865085880006,0.987422192066,9.58708332062
1128,564.24728,-0.05460421289596,0.985795075922,9.60507726672
1129,564.74728,-0.015026924968999997,1.00445909152,9.65508728022
1130,565.24728,-0.046229334557959995,0.980100150082,9.623358440419999
1131,565.74728,-0.045798624509000005,0.9803394317919999,9.61498338698
1132,566.24728,-0.0629312352987,0.931382279356,9.6550872995
1133,566.74708,-0.0447457851629,0.935258657912,9.63776311874
1134,567.24728,-0.0759481903604,0.941336427942,9.60268430716
1135,567.74728,-0.063792651184,0.956841922978,9.6167542266
1136,568.24728,-0.0884865812385,0.957416199478,9.55516296372
1137,568.74708,-0.1205025454618,0.5425964710737999,9.71830562578
1138,569.24728,-0.0073220381512,-0.18386449337279998,9.6461859133
1139,569.74728,-0.07006184746857999,-0.473204607674,9.80640939732
1140,570.24728,0.005982055887799999,-0.5805466333143999,9.640491085239999
1141,570.74728,-0.018568304170159998,-0.1661097475971,9.71543413148
1142,571.24688,-0.03823730449908,0.08073383536852,9.8142099188
1143,571.74728,-0.01938186319804,0.11715259628982,9.6972008893
1144,572.24728,-0.03737588736378,0.09805787200636001,9.76381710092
1145,572.74708,0.04024727713113999,0.08977870487026002,9.82449914008
1146,573.24708,0.0292881466995,0.09676574862734,9.42523277304
1147,573.74728,0.0665204719852,0.044075793264299994,9.90595067992
1148,574.24728,-0.0020578238649200074,0.41860039304572,9.33186465242
1149,574.74728,-0.0077527485526000086,0.13007383795514,9.76281202548
1150,575.24728,-0.003445664331640001,0.3023092156688,9.39149383544
1151,575.74728,0.11227124063218,0.25804199226040003,9.93346816116
1152,576.24728,0.05967699676234,0.2923072132128,9.61278209664
1153,576.74728,0.44784068517564,0.228370995249,9.60359371188
1154,577.24728,0.5903572034824,0.020291137882599997,9.71514711412
1155,577.74708,0.59064434275,-0.10844272315540002,9.49495960248
1156,578.24728,0.2192782665044,-0.33858440660859995,9.71117501214
1157,578.74728,0.5071826843672,0.11370693244688,9.69586088172
1158,579.24728,0.3540420371539,-0.01938186451134,9.67470823268
1159,579.74728,0.419701087839,0.037040892193000004,9.23055256384
1160,580.24728,0.36576686963,0.13485948281722,10.056555041500001
1161,580.74728,0.34987852452484,0.525320283024,9.61192062372
1162,581.24728,0.3353301659356,0.2928336333052,9.862305641479999
1163,581.74708,0.0626440962802,0.7033462852139999,9.5363075447
1164,582.24728,-0.0230668079246,0.79819778265,9.6923195463
1165,582.74728,-0.017419749578199997,0.708227643364,9.58947605086
1166,583.24728,-0.0876251634946,0.49622356077234003,9.62158776224
1167,583.74728,-0.09193224720662001,0.64888564554288,9.593735218059999
1168,584.24728,-0.26062624166694,0.7489534890359999,9.63455678914
1169,584.74728,0.08207381685055999,0.6698946234588,9.59253879616
1170,585.24728,-0.07412964674668,0.55862837776,9.78138048196
1171,585.74728,-0.1220818113534,0.5046941550271999,9.60971927676
1172,586.24708,-0.22157538098379997,0.7139704326598,9.94835164042
1173,586.74728,-0.012729817818320006,0.9495677369188,10.160834145119999
1174,587.24728,-0.023497518874339995,1.0625568175840001,9.65915501572
1175,587.74708,-0.10188638969979999,1.3000683927680001,9.59895158734
1176,588.24728,0.1091127143754,1.160423259466,9.31286577254
1177,588.74728,0.059007006901999996,1.1399885614354,9.87599256042
1178,589.24728,-0.050823556690219984,1.12898158603,9.5552107531
1179,589.74728,0.057906305215300005,1.690577044402,9.24337824766
1180,590.24728,0.06331408191374,1.6376478147,10.07928684276
1181,590.74728,0.055226345802400004,1.81739665026,9.57148199138
1182,591.24728,-0.012011970510199994,1.87305370802,9.229930448380001
1183,591.74728,-0.0866680420812,2.14081056122,9.79291385648
1184,592.24728,0.026033910993139994,2.8276942397,9.46763350482
1185,592.74728,0.5161796955758,2.8952196812800004,8.98351761824
1186,593.24728,0.2112383826924,2.3525274935894003,9.65867643346
1187,593.74728,0.73426155521746,2.61162235022,9.26534426688
1188,594.24728,1.41506746588,2.227526440586,9.36909700402
1189,594.74728,2.393396919908,1.7129260223142,9.41618779148
1190,595.24728,2.7242285585399997,1.811988872266,9.07267421668
1191,595.74708,2.85037821058,2.064575249476,9.32899334898
1192,596.24728,2.3105095482799998,1.7689180612800002,9.51659073824
1193,596.74728,1.5431791902360001,1.1419506854200001,10.0023336409
1194,597.24708,1.71096390128,1.3194502459433999,9.72892976728
1195,597.74708,1.923925120812,0.978329458542,9.91135849008
1196,598.24728,2.0767786217,0.9616754167713999,9.60890572536
1197,598.74728,3.1335926961400005,1.01747603717,8.54405186656
1198,599.24728,3.1571380424799997,1.4972369772679999,9.030081911
1199,599.74708,1.5367185491179998,-1.518006687032,9.946868094860001
1200,600.24728,0.69741209183472,0.101838540446,9.29252685562
1201,600.74708,0.4522913319998,-0.35418560154,9.79018598594
1202,601.24728,0.7480442109028,0.41252261886380004,9.79013812102
1203,601.74728,0.69128646245512,0.2131526435792,9.459737205700002
1204,602.24728,-0.6997570506373999,-0.1247139113102,9.80416002228
1205,602.74728,-1.3488819715509999,0.6010770454616,9.44514100074
1206,603.24728,-1.1403235656319999,0.26876183909,9.4838089943
1207,603.74708,-1.3057154673959999,-1.0096275890298,10.19486017292
1208,604.24728,-1.8765472390135198,-1.336391448793,9.01763929368
1209,604.74708,-2.1504775445348,-1.5525111892660002,9.251896610940001
1210,605.24728,-1.5258072801286,-0.6621897354756,9.9607464026
1211,605.74708,-1.4423456173467,0.49081577822680006,9.44834736794
1212,606.24728,1.32768157458,0.63701724724764,9.6358490179
1213,606.74708,0.356961284825,0.10916057074068,9.8417752266
1214,607.24728,0.504119873178,0.497276402731,9.645850877400001
1215,607.74728,0.8355736667358,-0.0156490613359,9.604407310840001
1216,608.24728,0.082217386558,-0.5359444137699999,9.59296949408
1217,608.74728,0.41702113672220004,-1.35969754338,9.64757375704
1218,609.24708,0.26904897883019996,-0.85026559590512,9.57808629986
1219,609.74728,1.344814186088,0.864574671558,9.419059238480001
1220,610.24728,1.6980426502539998,2.11133099084,9.83301753952
1221,610.74728,1.80193901080826,2.993325429102,8.56266799202
1222,611.24708,-1.3359607428288,2.392822618174,9.45983292634
1223,611.7322800000001,-0.43819201012310643,2.787332930489362,9.188948103978724
