Time_interval,Time,Acceleration_x,Acceleration_y,Acceleration_z
0,0.2546492424897959,-0.5998380486889796,-0.15460177149448978,0.2758864846689796
1,0.74962366,-0.22411406766279998,0.2891528527024,0.08548441829838
2,1.2496236600000001,0.35598755577139995,-0.2061729688438,-0.20147542309719998
3,1.7496236600000001,-0.1947925615546,-0.141421306212116,-0.16712038752931999
4,2.24962366,-0.005473347324406003,0.020934338532800002,-0.05982809668436
5,2.7496236599999997,0.23958116825782,-0.017281362485080002,0.052558803878499996
6,3.2496236599999997,0.04337139885440001,0.1371941225234,-0.06439736435752
7,3.7496236599999997,0.0083321941698,-0.002901608793399999,-0.02801425939772
8,4.24962366,-0.13451242025119997,-0.0292176651304,-0.048441579085600005
9,4.74962366,-0.059180580386,-0.10022458624949798,0.0171897354748
10,5.24962366,-0.12345577154222001,-0.03322493627574,0.019278892547552
11,5.74962366,0.0138910651654,0.037696464955199994,0.0070249449157919995
12,6.24962366,0.00786793796214,-0.012565490145998002,-0.015809180336368002
13,6.74962366,0.021368051913780006,-0.00078801567804,-0.00665842617838
14,7.24962366,0.029846853404399996,-0.024758350151558,-0.008576541334063999
15,7.74962366,-0.014514147958900003,-0.009010255917099995,-0.027672174321968
16,8.24922366,0.045142908103800006,0.01436143097132,-0.020903792669940004
17,8.74962366,-0.0263404894048,0.005589414671859996,-0.0025656321187200004
18,9.24962366,-0.023029602802399997,0.026994113874380003,0.00237015536364
19,9.74962366,0.0215146571588,0.006652317290379999,-0.0054122619568039996
20,10.24962366,-0.01792277330743,-0.019651519633999998,-0.00455705104868
21,10.74942366,0.06388423819032,0.02442848230114,-0.0049968738696920005
22,11.24962366,-0.03712836092172,-0.0361570860816,0.005632173138192
23,11.74962366,0.003665188590200001,0.0124799673996,0.014086541885868
24,12.24962366,-0.0162001336129,0.021667371911379997,0.0010262526827399998
25,12.74962366,-0.0006841684356800004,-0.015961896815,-0.005583304212192001
26,13.24962366,0.011398736687539998,0.0559735380202,0.00474031064792
27,13.74962366,0.004899135281374,0.004697549547460001,0.008466585808648
28,14.24942366,0.0034697133985199993,-0.02638325077844,-0.010274745580072
29,14.74962366,-0.15548952270983998,-0.0574273977804,-0.019376631209504
30,15.24962366,0.18825630717506,0.0923322075086,0.0015515967921800001
31,15.74962366,-0.010140356311194,0.011136065638599996,0.007953459464019999
32,16.24962366,-0.020427318627039996,-0.006554580075599999,-0.01483179692854
33,16.74962366,0.017678428708399998,-3.054249840000134e-05,-0.019633194106248
34,17.24962366,0.017922772320599998,0.052345004355664,0.0036041022288679997
35,17.74962366,0.018814634611280003,0.0026450442143600016,0.001979201888928
36,18.24962366,-0.000708600510660002,-0.02529591123568,-0.00155159657384
37,18.74962366,-0.0032375839505399974,-0.0091812994294,-0.007574723283408
38,19.24962366,0.056651600820726004,0.016914846109322,-0.014807362341512
39,19.74962366,-0.10864840652815999,0.00784961924183999,0.02873507938616
40,20.24962366,-0.01152091020636,-0.028166971811000002,0.014868448671879999
41,20.74962366,-0.023420554780699997,-0.024086400812995998,-0.00937066602952
42,21.24942366,0.032669048098,0.036242606149,0.005106829718428001
43,21.74962366,0.052473283346960005,0.042546731008,3.665186297599998e-05
44,22.24942366,-0.012938116420999997,0.006725621431880002,0.0028710644078680002
45,22.74942366,-0.024092505593399996,-0.004001163430320001,-0.00465478949916
46,23.24962366,-0.0020891584123999963,-0.027934845665200003,-0.0113498675681
47,23.74942366,0.048759226281180006,-0.007959567813799995,-0.003982838370168
48,24.24942366,0.00012217146329999707,0.022583669057759995,0.02175900347326
49,24.74962366,0.091666368319406,-0.014654643211200002,0.011386519232359999
50,25.24962366,-0.0268902685326,0.06007855166308,-0.026658138680008003
51,25.74962366,-0.022699737700594,-0.030671521449099997,-0.002858847003688
52,26.24962366,0.008723148769200002,0.021594070792419998,0.008967495116
53,26.74962366,-0.03404960065464,-0.021398593307672003,0.0070982483971
54,27.24962366,-0.03237583330304,-0.028570145081400006,-0.00681725103816
55,27.74942366,-0.012498295473200001,-0.07382300944878,-0.01920558842024
56,28.24942366,0.0405492049084,0.02125198768758,0.01888793864382
57,28.74942366,-0.026975790896599995,-0.0445625841276,0.060390092249059994
58,29.24962366,0.022162172926220004,0.08492852829339999,0.06307789695676
59,29.74962366,0.032388050698086,-0.029352051302399998,0.11331541598
60,30.24962366,0.021587960853,0.03260185317758,0.17855577424179997
61,30.74962366,0.02938259560392,0.04644404996965999,0.10250310942036
62,31.24962366,-0.004276053049494001,0.012687661835400004,0.059424926084400004
63,31.74962366,0.034819292083546005,0.09545983925359999,0.08525228925100001
64,32.249623660000005,0.01692095368356,0.03441001337182001,0.074611024197608
65,32.749623660000005,-0.038325657280434,0.020812163192003998,0.1003162141096
66,33.249623660000005,-0.021514657034065996,0.020384558097839997,0.0978727547848
67,33.749623660000005,0.0115819959072,0.02823416946006,0.0814588189116
68,34.249623660000005,-0.019733986351599998,0.06350244627052,0.0679953585168
69,34.749623660000005,0.05149590179776,0.02655429295846,0.07402459409
70,35.249623660000005,-0.034477208123579996,0.05599797398682,0.0982270568386
71,35.749623660000005,0.018435900613860003,0.0041477714444,0.07735991548839999
72,36.249623660000005,-0.032265878326328,0.01646280568492,0.0666819995984
73,36.749623660000005,0.007318160609800002,0.005381717829540001,0.052228939024720006
74,37.249623660000005,-0.0485881846918,0.02240041088068,0.05081173213368
75,37.749623660000005,-0.15679676696779998,0.1491059838336,0.029651376582599996
76,38.249423660000005,0.16768238609891997,-0.13681538473590002,-0.07944907322268001
77,38.749623660000005,0.095734731394,-0.05245495512074001,-0.12807390985656
78,39.249623660000005,0.22459054585340002,-0.010635159855199998,0.013048072329140004
79,39.749623660000005,-0.24217123704548002,0.0031703891811799994,-0.010739002365132
80,40.249423660000005,0.058997321212000006,0.006676751917559998,-0.032339181666907996
81,40.749623660000005,0.016004657511880002,-0.03475209704194,0.045350601391031996
82,41.249423660000005,-0.005962039065926001,-0.03119686567964,-0.027611087862820002
83,41.74962366,0.02261421569726,0.009963204875202,0.026426010625
84,42.24962366,-0.04173428135246,0.004612029308083999,-0.005473348394360001
85,42.74962366,0.029969026401794,-0.02222936924448,-0.0007696896053880002
86,43.24962366,0.016102395677000003,-0.01817322726284,0.0004398225913080002
87,43.74962366,0.0009162979630540014,0.00952338132513,-0.00334753891772
88,44.24962366,-0.006157519192200001,-0.012198969120698002,0.005900953716128
89,44.74962366,0.03597993377532,-0.01408043328816,0.01766620970074
90,45.24962366,-0.05088503643598,-0.013420699074938001,0.007501419337676
91,45.74962366,-0.043737918618140005,0.08795841835962,-0.041587674837076004
92,46.24962366,-0.03652971456490001,0.0035369081596599984,-0.002455676278288
93,46.74962366,-0.08073188972112,-0.046578440173820006,-0.01858250639474
94,47.24962366,0.034550511469394,-0.008240566533148001,0.00240680726062
95,47.74962366,-0.015552618184100002,0.003817904507279999,-0.00511904677284
96,48.24962366,0.045350602251,-0.01824653066588,-0.00252898032044
97,48.74962366,-0.005986473707800003,0.02783710790532,-0.02112370482714
98,49.24962366,0.12415215817854,-0.29632439635687996,0.037091708631399996
99,49.74962366,0.057702287396919995,0.06843518089273999,0.06835576986507999
100,50.24962366,-0.2516518552638,0.03467879343638,-0.08411608037926001
101,50.74962366,-0.21277642090059998,0.0679709244624,0.069394240667848
102,51.24962366,-0.060561134891200005,-0.0024617844306200017,-0.070127277296732
103,51.74962366,0.07806852018640001,0.16223957599034,0.060011356578660004
104,52.24962366,0.029223771699999998,0.07568003745320001,-0.00984714028646
105,52.74962366,0.224285111385634,-0.48166077352100006,-0.035784458327
106,53.24962366,-0.12498293350070601,0.32129654916920003,-0.005387827449792
107,53.74962366,-0.05094612297126,-0.009657772202735998,0.006536253149412
108,54.24962366,-0.02116035584186,0.0001404992031600004,-0.000696385769488
109,54.749423660000005,-0.05869188727791999,-0.010745111462580002,-0.00722042185744
110,55.24962366,0.03475820595054,0.04527118908636,0.011753038379396
111,55.74962366,0.206142429966754,0.129179574981044,-0.040659160222848004
112,56.24962366,-0.049736611105806,-0.041288350946719996,-0.019645411648660002
113,56.74962366,0.02050062368418,0.0049541120923820015,-0.010274745805004
114,57.249423660000005,-0.087341445507706,0.019749255946920004,-0.00951727330608
115,57.74962366,0.08836769834734,0.06690801944998,-0.002113592184408
116,58.24962366,-0.0970297617152,-0.0743972208152,0.01133765039014
117,58.74962366,0.008564323991288,-0.008411607978916,0.0005619953980599999
118,59.24962366,0.0012217294050880002,-0.026334380662719998,-0.00447153022948
119,59.74962366,-0.004642572276834,-0.006762272899328,-0.001136208491948
120,60.24962366,0.008405498937574,0.025454734837341998,-3.6651908236000166e-05
121,60.749423660000005,0.011936297482620001,-0.0056504992622,0.002125809470908
122,61.24962366,-0.011459823256504,-0.013970477545278,-0.00107512197458
123,61.749423660000005,-0.0019425499328760002,-0.01907730701288,-0.0018081597729359996
124,62.24962366,-0.0030054546007,-0.0015088360952000023,0.018912373725968
125,62.74962366,0.008527672147462,0.0015454878892199996,-0.016090178334212
126,63.24962366,-0.010690133633314001,0.0060903217715399995,-0.007501419539899999
127,63.749423660000005,-0.01227838208388,-0.016242894345996,-0.015332705924448
128,64.24942366,0.0389609547772,0.013066398368159999,0.07745765385249999
129,64.74962366,-0.06560687640686,-0.08233846407138,-0.01277929186338
130,65.24962366,0.04421439106846001,-0.015790854640840003,-0.009566142543256
131,65.74962366,-0.00999374766018,-0.05437307561094,-0.0002565631628879998
132,66.24962366,-0.003701840469766,0.0281181060703,-0.013658936434440001
133,66.74962366,0.00538782780206,-0.01796553233874,-0.015308271740620001
134,67.24962366,-0.01902232924234,0.06021294306214,0.01381776143546
135,67.74942366,0.024190245314988,0.0001282819535999996,0.0031154104942079995
136,68.24962366,-0.012107339666314,-0.020262385100556002,-0.006780599119068
137,68.74962366,-0.000537560926666,-0.008790344187139998,-0.000757472330196
138,69.24942366,-0.010653481925907999,-0.04440376121594,-0.005009091213456
139,69.74962366,-0.010201441878518,-0.00383012227102,0.0029077163158879996
140,70.24962366,0.0050579601671,-0.0013377935967800014,0.00464257231646
141,70.74962366,0.0077701999897539994,0.012479967620084,0.003066541189228
142,71.24962366,0.0031520622451339997,0.011282672533353999,0.0007086031407679999
143,71.74962366,-0.000561995489018,0.013066397644079998,-0.00030543238611999997
144,72.24962366,-0.001319467931742,-0.004893026825336,0.00021991133802800003
145,72.74962366,0.002883281785502,0.0034391686282439996,0.00019547674107999998
146,73.24962366,-0.00025656316959400005,0.0007513636949479993,-0.001099556601892
147,73.74962366,-0.004239401647572,-0.002547306083974,0.00013439025727600006
148,74.24962366,0.001050687438764,0.004392117853612,-0.00010995565098800001
149,74.74962366,-0.0016371176429360002,-0.0007269289913200004,0.00030543241421599995
150,75.24942366,-0.001527161885162,-0.0055283262332539995,0.0009529490466519999
151,75.74962366,-0.0008674280445840001,-0.0008491021408179996,-0.001221729562408
152,76.24962366,-0.0021624612916340004,-0.0021074836686780004,6.108648035599996e-05
153,76.74942366,-0.005387827282478,0.00929125327318,-0.0032620178707879997
154,77.24962366,0.008026763058471999,0.004404334887844,0.0003909534384719998
155,77.74962366,-0.0032742352340359997,-0.002620609978906,-0.00290771636294
156,78.24962366,-0.003921751939556,-0.009376774319614,-0.001331685235492
157,78.74942366,-0.00029321509863400015,-0.0044409869896440005,-0.005216785206548
158,79.24962366,0.010299180011094,0.001020144136126,-0.009602794303391999
159,79.74942366,2.305200003105412e-11,0.0007024944552860003,-0.0126571182293
160,80.24962366,0.0011606428847260014,-0.001301143155079999,-0.008478803251932
161,80.74962366,-0.0096883154991,-0.018979568658698,0.01161864801696
162,81.24962366,-0.002186895923559999,0.003805686745619999,0.061257520375
163,81.74962366,-0.0022113303403580005,-0.010048725205236,0.10934479578419999
164,82.24962366,-0.005986475145960001,0.022681408645381998,0.1770041775732
165,82.74962366,0.010702350910519999,-0.008765909449000001,0.224737153346
166,83.24962366,-0.010177007489580002,0.0020830491122459994,0.28132766784
167,83.74962366,0.014453060560640002,0.014996730172023999,0.342340840096
168,84.24942365999999,0.24136489384186,0.269873952366182,0.05252215015528
169,84.74962366,-0.03133736306882,-0.04619970251424,0.370013014076
170,85.24962366,0.0763703140303,0.13233163573384,0.5195038412472001
171,85.74942365999999,-0.1015012930518,0.021337508855000006,0.3177107726772
172,86.24962366,-0.0248255432408,-0.0620821883833,0.328119909608
173,86.74922366000001,0.025839580369600004,0.19637469968554,0.25491387487536
174,87.24942365999999,-0.03163057711138,-0.020518950910140003,0.16478688225319998
175,87.74962366,-0.06032900546020001,0.07677959447178,0.112509074438
176,88.24962366,-0.02207665281656,-0.016939279933378,0.008234457120888
177,88.74962366,0.1222218225974,0.06960804216556,0.07991027728854
178,89.24962366,-0.025631885636022,-0.010748165897,-0.049153234136611997
179,89.74962366,-0.008808669541780001,-0.02403752815852,-0.058410890157980004
180,90.24962366,0.23567163380419998,-0.010598500758799995,-0.03240026840482
181,90.74942365999999,-0.15255737050596602,-0.06035954899273999,-0.12583814422014
182,91.24962366,0.1161742666582,0.004086684920642001,-0.04580264034632
183,91.74962366,0.04783070893868,-0.08198416213876002,-0.09815375298479999
184,92.24962366,-0.024251332355399998,0.0417159550666,-0.04871035679204
185,92.74962366,-0.0052656549189940005,0.0136039586691,0.0002932152320680001
186,93.24962366,0.0052412197841800005,-0.013432915761238,0.0244712422966
187,93.74962366,-0.004899136079260001,0.026004513378368,0.0637742830238
188,94.24962366,0.09112880784090599,0.0479834283826,0.08293100235348
189,94.74962366,-0.013170242347599998,0.01306639858788,0.02269973514192
190,95.24962366,0.0355401124422,0.08914349757405998,-0.005070178189552001
191,95.74962366,-0.017715078488614,-0.01075732886788,-0.01286481214862
192,96.24962366,-0.023029601560020003,-0.012748748587079998,-0.027220134121520002
193,96.74962366,0.006805033806182001,-0.014398082609420002,-0.00594982282222
194,97.24962366,0.005094612850339998,0.01932165336882,-0.02483776242034
195,97.74962366,-0.011520909802846,0.005589412818122,-0.01484401408354
196,98.24962366,0.013280200627000006,1.8325705439998786e-05,-0.045045166656399994
197,98.74942365999999,0.021563526387305996,0.0054183701110619995,-0.02483776211738
198,99.24962366,0.018973460102066003,-0.040469791078258,0.0226508656559
199,99.74962366,-0.025216497978306,0.0038789906260640007,-0.004190532398468
200,100.24962369999999,-0.03560119938452,-0.045796532175199994,0.011032217987
201,100.74962369999999,-0.07037162101624,-0.05542376273019999,0.10791537091896
202,101.24962369999999,-0.014110977960220001,0.02841132109486,0.08315091279836001
203,101.74962369999999,0.001490510815400001,0.02351218599508,-0.02679252952694
204,102.24962369999999,-0.020769402174699997,-0.0068600114300960005,-0.005681042460159999
205,102.74962369999999,-0.05908284288085999,0.00332921248922,0.013756674951780002
206,103.24962369999999,0.014025455331192,0.0008857539053060002,0.003701840538676
207,103.74962369999999,0.021624612963006,-0.003817904836198001,0.00037873610271199994
208,104.24942370000001,-0.011081087000426,0.006383537110002,-0.004544833922607999
209,104.74942370000001,0.017580688733016,0.0030604320684999996,0.013829978603588
210,105.24962369999999,-0.006120865002840001,-0.015583160858958,0.002663370289152
211,105.74962369999999,-0.0001221733469599995,0.0306104336758,-0.00453261639008
212,106.24962369999999,0.022394302853286,-0.025332562847740003,-0.006707295251376
213,106.74962369999999,-0.043249225428419996,0.0520151364202,-0.0130358545365
214,107.24962369999999,-0.00648738381912,-0.033163849095134,0.0009407317310200003
215,107.74962369999999,0.0031154103920400006,-0.013286309335800002,0.00252898010168
216,108.24962369999999,-0.001111773942794,0.017928881350204,0.0005619956550280001
217,108.74962369999999,0.019730932210231998,0.007324268473222,-0.0023945899596280002
218,109.24962369999999,0.05264432623226,0.046981610088260004,-0.0038117961680199995
219,109.74962369999999,0.05695703172403399,0.053322385571139996,-0.00431270535816
220,110.24962369999999,-0.0005009092838399995,0.022583670718544,0.00811228419218
221,110.74962369999999,0.16931949965162002,0.14217877871844,0.074916457899272
222,111.24962369999999,-0.2580170671668,-0.33087490804864006,-0.024654502681584
223,111.74942370000001,0.0019914184895800002,0.071122986449,0.03193601082644
224,112.24962369999999,0.02021962438056,-0.07499586920502,0.02503323831306
225,112.74962369999999,-0.0559185638428,-0.09762229976238,0.131580273112
226,113.24962369999999,0.0329989196814,0.066749193961,-0.01957210752358
227,113.74962369999999,0.006291907694599999,-0.00459981192426,0.041575456675188
228,114.24942370000001,0.047806277306822,0.02689637574322,-0.010763437687640001
229,114.74942370000001,0.030054547492014,-0.03597382835518001,0.02916268433584
230,115.24962369999999,0.0828210478159,-0.02519817759488,0.011814124376179999
231,115.74962369999999,0.12804947434476,0.02423300575938,-0.0006963848446199994
232,116.24962369999999,-0.0668652556685,0.11274730995443999,-0.009468403680420002
233,116.74962369999999,0.01733023300894,-0.033808312206259995,-0.07136427896474
234,117.24962369999999,0.01030528868003,-0.00047342069522000207,-0.0589576138546
235,117.74962369999999,0.006841684839319998,0.046663959905399996,-0.04113563436157999
236,118.24962369999999,0.022272128966199997,-0.07144063693160001,-0.0717155259757
237,118.74962369999999,-0.025570798820239996,-0.0971091743166,-0.027036875471580003
238,119.24962369999999,0.007745763544199997,-0.010207547565800003,-0.02484997911312
239,119.74962369999999,0.0231151223046,-0.0546052033422,-0.026083925913692
240,120.24962369999999,0.09961982382659999,0.05021919418242,0.049089093677531996
241,120.74942370000001,-0.03463603641599999,0.02134972523804,0.017690644494139998
242,121.24962369999999,-0.042076367806880004,-0.13405428072024,-0.043505789650692
243,121.74962369999999,0.090236944137254,0.0036102135581820016,-0.00649960140504
244,122.24962369999999,-0.0859975447598,0.0442327172528,-0.011985167102420001
245,122.74962369999999,0.03889986869492001,-0.028594579882398,-0.006010909467708001
246,123.24962369999999,-0.0376903547352,-0.04467254135579999,-0.006071995720219999
247,123.74962369999999,-0.005290090442400004,-0.04534449251842,-0.013402373224648
248,124.24962369999999,0.005546651080500002,0.0804570005329,-0.0038606656644600006
249,124.74962369999999,0.062112731228359995,-0.005149590785800001,0.05242441498502
250,125.24962369999999,-0.027085745873640005,0.04379289644992,-0.01711643124616
251,125.74962369999999,-0.018264856465,0.0674089302054,0.02591288427988
252,126.24962369999999,0.07351146588940001,-0.015228858962,0.010238093747480002
253,126.74962369999999,-0.028246387192800003,-0.28923836309803996,-0.048759226848959995
254,127.24962369999999,-0.023029602406794,0.055118328154820005,0.008967494683220001
255,127.74962369999999,0.044593128509739996,0.2857808693046,-0.059840311266
256,128.2496237,-0.24520112255249998,-0.34975062981242,-0.026352706705099996
257,128.7496237,0.23358247478071997,0.0892168007798,0.09177632461534
258,129.2496237,0.059693707012599996,0.016584977614599997,0.0055100006748600005
259,129.7496237,-0.1063026866312,0.00012828408112199597,0.007000510249303999
260,130.2496237,-0.075673929163018,0.043768463179240005,-0.002247982485239999
261,130.7496237,0.137200227718514,0.0396512333054,0.01262046628412
262,131.2496237,-0.003970619770600001,0.07233250090116,0.01855807209148
263,131.7496237,0.0023212851411399996,-0.0307936938912,-0.002761108862692
264,132.2496237,0.06437293041366,0.18456057631298,0.00423940154918
265,132.7496237,0.005619955660200001,-0.1152029906582,-0.01798385888516
266,133.2496237,-0.04612028947534,0.020689984824160006,-0.025778493862079997
267,133.7496237,-0.10983348549079999,0.027238462577420002,-0.01464853709774
268,134.2496237,0.0770789147896,0.00037262464653999407,0.010824523562319999
269,134.7496237,0.09136093399831999,0.031221302481363997,-0.009419534793540001
270,135.2496237,-0.2162216984874,-0.1197111762,-0.0683068991607
271,135.7496237,0.11074978590040001,0.08972992531920002,-0.026242750995272002
272,136.2496237,0.0835907368634,-0.026823072881160002,-0.05094612263486
273,136.7496237,-0.10420131277639999,-0.02415970213368,0.001905897790559999
274,137.2496237,-0.015870267527799995,-0.04059196656684,0.004960221841032
275,137.7496237,0.01764177558592,-0.02354883382,-0.0016493346687400006
276,138.2496237,-0.006084214526399996,-0.024489570482000015,0.005009090861072001
277,138.7494237,-0.0609154348106,0.02095877095202,0.018826852400624
278,139.2496237,-0.0139155009364,-0.081532121712,0.00824667456552
279,139.7496237,-0.050127562986200004,0.029449791451419998,0.006304124573572
280,140.2496237,-0.022944081800000005,0.006798927062840002,0.015369357646119998
281,140.7496237,-0.020048580335260004,0.1630825710622,0.08957721034422
282,141.2496237,-0.02436128429248,0.038967064973139995,0.10346827755995999
283,141.7494237,0.10271080593681998,-0.11809848440739999,-0.05696925000196
284,142.2496237,0.006585122517400002,0.0007147119990599942,-0.02450789453384
285,142.7496237,0.052607672441599994,-0.0805180879736,7.330323761599978e-05
286,143.2496237,-0.1817322705866,0.019419388689700005,0.023493860190040003
287,143.7496237,0.10263750230740001,-0.12076186478564001,0.021429136047040002
288,144.2496237,0.03533241323539999,-0.0108672825192,0.0203784491059
289,144.7496237,-0.039498516708339995,0.017867793013,-0.01629787269836
290,145.2496237,-0.023970331230679997,-0.035558435954835994,-0.029895722477380003
291,145.7496237,0.0050090869747999945,-0.013347394134419998,-0.045497209511876
292,146.2496237,0.09491616841544,-0.0753868213076,0.0596448369176
293,146.7496237,0.044483172490740006,0.16249613575439997,-0.1022098953658
294,147.2496237,0.04375013639400001,0.0285334935223,-0.05892401763724
295,147.7496237,-0.0010506870359000041,0.00830165328256,-0.01494175234052
296,148.2496237,-0.010506874381460004,0.0014355319947600015,-0.010885610273700002
297,148.7496237,-0.0052778742382,-0.0276660684552,-0.017079779153756
298,149.2496237,0.008491020998119998,0.041960300835800005,-0.02282190802866
299,149.7496237,0.04969996273380001,-0.0506223661514,-0.010531308688359999
300,150.2496237,-0.024141374694599996,0.021325291943959997,-0.01991419086918
301,150.7496237,0.019963055698999997,0.081996378095,-0.003225365968100001
302,151.2496237,0.0947695643,-0.22952022408485998,0.019694280625859997
303,151.7494237,-0.019071200428794004,0.011734714239239998,0.013597850184811999
304,152.2496237,0.058423108108000006,0.16015041879519998,0.07902146718826
305,152.7496237,-0.16181807787619998,-0.1003956258542,0.01397658671796
306,153.2494237,0.1583483635512,-0.0159252439838,0.01200960124718
307,153.7496237,-0.0365907968448,0.0009468375710800014,0.014135410857471999
308,154.2496237,-0.0081000687004,-0.035534000726680004,0.02195447986598
309,154.7496237,-0.02715904770658,-0.02632216229488,-0.01319467909214
310,155.2496237,-0.05836202198903999,0.06542972535218,-0.006695078050720001
311,155.7496237,-0.0421985393062,-0.059699815288,-0.03729940403612
312,156.2496237,0.013720021398000007,0.044367110889540005,-0.01595578785332
313,156.7496237,0.1504926474404,0.027409503015502,-0.011765255386020001
314,157.2494237,-0.049223480551799995,-0.15125622764196,-0.03539350534374
315,157.7496237,0.09356004868012001,0.32559703718099997,-0.029113815531412
316,158.2496237,-0.0677571176351,-0.1476765604218,-0.0140254552972
317,158.7496237,-0.057861106910034,-0.1242071358776,-0.00069638636772
318,159.2496237,0.08031649686358801,-0.0007269279960000219,-0.081733705917
319,159.7496237,0.0979827051268,-0.004929680284196001,0.0023823722331600006
320,160.2496237,0.010286963089199987,0.10281465040896,0.03050658735374
321,160.7496237,0.11032217976040001,0.024428483460580006,0.0047769629973400006
322,161.2496237,-0.053853838580080006,-0.045234535603876004,-0.014929534956599998
323,161.7496237,-0.009810488822,-0.03125794984704,-0.011924080398764
324,162.2496237,0.032791220899859995,0.03129460206794,-0.006181952005732
325,162.7496237,-0.02030514583684,0.018099924218181997,0.0044348783556599995
326,163.2496237,-0.004630358069800002,0.005907061997719998,0.0075991580106720006
327,163.7496237,-0.04549720874098,0.024171919571120002,-0.009211841006080001
328,164.2496237,-0.008869758480639998,0.02583347336514,-0.03077536737176
329,164.7496237,-0.02117257470046,-0.011453716013799999,-0.044519825155540003
330,165.2496237,0.0497488270806,0.1269926803804,-0.04625468070406
331,165.7496237,-0.11165386394496,-0.1344207951814,-0.08365182296398001
332,166.2496237,-0.0883676991692,-0.001105667014999998,-0.023176209274580004
333,166.7496237,-0.0029687998032399943,-0.07646194180273999,-0.017605124108320002
334,167.2496237,-0.09514829553240002,0.15206256294107998,-0.0798888955814
335,167.7496237,-0.05855750196999999,-0.022070542668599997,-0.042259625945339996
336,168.2496237,-0.0007208196124400001,-0.015021164533419997,-0.050604038055552004
337,168.7496237,0.07568614591485401,0.05069566730106,-0.030689846246799997
338,169.2496237,-0.141183069923738,-0.03960236383506,0.06018239814062001
339,169.7496237,-0.041477720195419995,-0.13923440883748,-0.005326741086648001
340,170.2494237,0.12406663736092,0.015509856108841995,-0.027134613375408
341,170.7496237,-0.15215419740054,0.030732604785080008,-0.020415101438159996
342,171.2496237,-0.014611884704340002,0.028460189476722002,-0.0010995565132600003
343,171.7496237,0.07406124517628,0.002437350149539999,-0.025265367295879998
344,172.2496237,0.04912574626556,-0.024171920423779997,0.01425758415308
345,172.7496237,0.09093333231156599,-0.03634034590192001,0.1088683204058
346,173.2496237,0.027220122542459983,0.126858282064,0.0003420824397199995
347,173.7496237,0.042577276754000026,-0.3055606706198,0.2390924733872
348,174.2494237,-0.36352564173240004,0.12314422902582,-0.14406634999762
349,174.7496237,0.207803987192,0.07332209698619999,0.06965080195272
350,175.2496237,-0.14499486487660002,-0.0588812568974,0.00599869198842
351,175.7496237,0.005314523904880003,-0.06986460427388,-0.06037787500668
352,176.2496237,-0.003164280867239998,-0.009425642839859997,-0.08213687821816
353,176.7496237,-0.07120239986903999,0.012076797702599998,-0.07787304284134
354,177.2496237,-0.0415388039472,-0.03023169868804,-0.0322414435134
355,177.7496237,-0.0281119966506,-0.04269334179936,0.05245801305968
356,178.2496237,-0.038936516108700005,0.008057308523979997,0.03756207592176
357,178.7496237,0.01712864898299999,0.060359549591380006,0.09779334213100001
358,179.2496237,0.118238982638,0.04998706592338,0.06894830800504
359,179.7496237,-0.11436609735080001,0.052479389984800014,0.020567816299615998
360,180.2496237,0.155990426995406,-0.0016310031401199987,-0.06707906026838
361,180.7496237,-0.047671886348976004,-0.04551553517239999,-0.052723739106081996
362,181.2496237,-0.012437206071000002,0.0330783256118,-0.02481943576382
363,181.7496237,0.024740023037659997,0.015460987670603998,-0.012333359796480002
364,182.2496237,-0.016261221533433998,-0.10224043701166,-0.01549763928418
365,182.7496237,0.0344039045674,0.10089652981481999,-0.025247041232164
366,183.2496237,0.17283808042980003,-0.016157373220698,0.0035979934829000002
367,183.7494237,-0.11970506404773999,-0.0274461488392,-0.0034269503992800016
368,184.2496237,0.0691987632868,0.054128730383179995,0.034617706561298
369,184.7496237,-0.06706073656919999,0.0864801272835,-0.073639748945728
370,185.2496237,-0.0656068767646,-0.06673697619166,0.03263850514786
371,185.7496237,-0.01528383770538,0.00704327080016,0.047409215069034005
372,186.2496237,0.0943541735038,0.00637131947278,-0.033310456756161996
373,186.7496237,-0.017250820024600003,-0.069107131998,-0.005723803325159999
374,187.2496237,-0.038191266524800004,0.0357294809052,-0.0292298797503
375,187.7496237,0.041673194096599996,-0.024489569769599998,-0.0951788407984
376,188.2496237,0.12167204938939999,0.08489187807080001,-0.11815957463434
377,188.7496237,-0.0624792577486,-0.21975860529820002,-0.2639119112528
378,189.2494237,0.13729796767539998,-0.03596160770679999,-0.3137462581632
379,189.7496237,0.013988804359193998,-0.10077436462278,-0.40879681945400004
380,190.2496237,0.029113817815199998,-0.1440480231902,-0.37144854754400003
381,190.7496237,-0.006279691080519998,-0.06816640099162001,-0.320795637376
382,191.2494237,-0.007562510309,-0.0985263825226,-0.27043594598599996
383,191.7496237,0.019278892823319998,-0.1168401074338,-0.1624961386604
384,192.2496237,0.004056141750312001,-0.016206242852120002,-0.008839213247608
385,192.7496237,-0.023542729557379998,-0.10827578241438002,0.1339931902908
386,193.2496237,0.04652346146082,-0.07249132263668001,0.18426736101
387,193.7496237,-0.07160557010719999,0.09120822005160001,0.21378434545358002
388,194.2496237,-0.030921977290433996,-0.013555089572600001,0.263924124984
389,194.7496237,0.1762222736388,0.019260566138640002,0.2066005788742
390,195.2496237,-0.05560091399800001,0.11523964101605999,0.1793560081718
391,195.7496237,-0.02383594389976,0.05061014636538,0.1230953622636
392,196.2496237,0.012974767627019998,0.080102698266,0.05829482589908
393,196.7496237,-0.002504546140859998,0.049156288441160004,0.026090034727298
394,197.2496237,0.12725535362100002,0.08126333974493999,0.02673755204492
395,197.7496237,0.11704168727999999,0.07558229356394,-0.002290743440760001
396,198.2496237,-0.28015481276040005,-0.399963722451,0.042216867572399994
397,198.7496237,-0.19503691463499997,0.34537683294242,-0.00039706296903999836
398,199.2496237,0.083859516609,-0.11831840537000002,0.029559746435560003
399,199.7494237,-0.030262240140600007,0.16665002289179998,-0.040934049746219996
400,200.2496237,-0.0413921974432,0.004440988441200003,-0.008020654676139998
401,200.7496237,-0.030543238727860002,-0.06073828435116001,0.028203626766638
402,201.2494237,0.06310233324696,0.0474336498058,0.0068600113422300005
403,201.7494237,0.016016875063534,-0.003109301806539999,0.009755510554496
404,202.2496237,0.0668163904228,0.095606446262,-0.010085377327124
405,202.7496237,-0.019682062756946,-0.050231411018,0.04326755227414
406,203.2496237,0.007391465578354,0.06149575635882,0.049999283216199994
407,203.7496237,0.041896160222,-0.0861074996616,0.0098074340643
408,204.2496237,0.035222462960634,0.04381733025758,0.045735446027920006
409,204.7496237,-0.05550317322808,-0.04679835155540001,0.06737227686084
410,205.2496237,0.030127851105599998,0.09889289887586,0.04753138846194
411,205.7496237,-0.04636463552760001,0.060933763192,0.14994897752348
412,206.2496237,-0.02692692025034,0.0720759345146,0.04837438188604
413,206.7496237,2.4437256799994535e-05,-0.016230676264419992,0.10787261124316
414,207.2496237,-0.02098930983319999,-0.09494671003840001,0.16059024250059997
415,207.7496237,0.007208206723700008,0.15688840571558202,-0.0020097447850999993
416,208.2496237,-0.003494146896279997,-0.010317505960340001,-0.006065887352724
417,208.7496237,0.01362228518516,-0.00595593150042,0.0004825832660579998
418,209.2496237,-0.03280343887262,0.00881477940952,-0.020653338032784
419,209.7496237,0.004214966353720001,-0.031844380117800004,-0.0018753551596200008
420,210.2496237,0.0005619953679800022,0.003524689943079999,0.01577863716854
421,210.7496237,0.005351174967400002,0.013090831701519999,0.01680488987286
422,211.2496237,-0.01277929113556,-0.0037934709834,-0.001166751769682
423,211.7496237,-0.014587450542092002,-0.009743293308556002,-0.009034690169694
424,212.2496237,0.00581543276974,-0.0216185042455,-0.01047633084299
425,212.7496237,0.01299920225284,0.009364557164699997,-0.017562362496544
426,213.2496237,-0.0385822187932,-0.0214474628604,-0.028936664602964002
427,213.7496237,0.019107849279133997,-0.11619259031368,-0.024294092351263997
428,214.2496237,-0.006841685594606001,0.0537622098293,-0.03834398218886
429,214.7496237,-0.00289549750112,-0.026346597574200003,-0.025198172024084
430,215.2496237,0.034440557632780006,-0.05414094500132,0.010757328465936
431,215.7496237,-0.0612819550684,-0.13427418828496,0.056743229702080004
432,216.2496237,-0.171762950626746,-0.014361434433239999,0.05906451479598
433,216.7496237,0.3316507071836,0.28095503628796,0.1029734753334
434,217.2496237,0.13638167148076602,-0.035741701414,0.05161196365682
435,217.7496237,-0.00717155329572,-0.03228420326862,-0.0989051166938
436,218.2496237,0.00744033411864,-0.079943871938236,-0.030622651405063997
437,218.7496237,-0.019657627545879994,-0.049718283968056005,-0.038075201834721996
438,219.2496237,-0.07318160023142001,-0.127615759138618,0.0009315688487400004
439,219.7496237,0.02481332600660001,0.1316841173212,-0.016841541880724
440,220.2494237,0.1474138882998,0.051318750062800005,0.0004214968906600025
441,220.7496237,-0.03362199667040601,-0.056083496171999994,-0.016902628876199997
442,221.2496237,-0.045179557794054005,0.02948644621366,-0.0008979711547920001
443,221.7496237,-0.051007209107200004,-0.10007797852528,-0.04486801761430399
444,222.2496237,0.06311454772568,0.11993108380966,-0.085930348485
445,222.7496237,-0.1588859282516,0.0484721189364,0.07041438264836
446,223.24922370000002,-0.10084155662214,-0.0378552894238,0.02098320515902
447,223.7496237,0.037751441564799995,-0.0062857972974000005,-0.008069523276520002
448,224.2496237,0.018313723089599995,0.0157542010284,0.01846644226584
449,224.7496237,0.187230057326774,0.19186651592322002,-0.01559537797864
450,225.2496237,-0.1136330645512,-0.10214269697643999,0.008081740907919998
451,225.7496237,-0.04064694270778,-0.05803826326642,0.002779434882140001
452,226.2496237,0.00019547731888000159,-0.011624755491,-0.013310743545400001
453,226.7496237,-0.138764040774,-0.0627174869116,0.01976147590746
454,227.2496237,0.0983247945466,0.26744270733122,0.05368890532474
455,227.7496237,-0.050640690343340004,-0.0957774881232,-0.012687661259302
456,228.2496237,-0.0008552114446400039,-0.0585880409554,0.023695444911779998
457,228.7496237,-0.016841545109060004,-0.07056404628599999,0.07463240459042
458,229.2496237,-0.0852889410321,-0.009046907631000002,0.03497200808888
459,229.7496237,0.021490221926339998,0.020506726505140002,0.04957167749414
460,230.2496237,0.0020402882977059995,0.0368046022982,0.03919919278328
461,230.7496237,0.017043127848039998,0.04970606616174,-0.004074467968923999
462,231.2494237,0.0023090690386200013,0.06788540351642,-0.061214760187
463,231.7496237,0.110554307736,0.1039875127328,-0.12922844372276
464,232.2496237,-0.03815461375162,-0.03233307251208,-0.1106337209066
465,232.7496237,0.019694280530165996,-0.01722027822394,-0.0762786848842
466,233.2496237,-0.0216123955551,-0.07847779977402,-0.0192605664409
467,233.7496237,-0.0029810196993599967,-0.03941910261086,0.012699878814916
468,234.2496237,0.014233148715399999,-0.097707821539998,0.03900371639066
469,234.7496237,0.033890775210880006,0.0005681037992000027,0.030610434269220003
470,235.2496237,-0.055881910990000006,0.1079581324772,0.05114770795362
471,235.7496237,-0.008833107192699991,-0.039358021155559995,0.022803581814019997
472,236.2494237,-0.0958446886382,0.025906777534,-0.0307814766006
473,236.7496237,0.041795369958600004,-0.024623958859500004,-0.00175318229148
474,237.2496237,-0.014538582790679998,0.0006047547915999995,-0.0074830935100399995
475,237.7496237,0.03591884975,-0.013225223299240004,-0.002156352608904
476,238.2496237,0.0515447699518,0.012687661227199998,-0.007263182409165999
477,238.7496237,0.01568701039788,0.006298016651942002,0.0009712750713979993
478,239.2496237,0.02994459126158,-0.004905243775460001,-0.01073289416488
479,239.7494237,-0.0026511536279399993,0.0132374408102,0.03885710842318
480,240.2496237,0.0622226864478,0.045454448237860004,0.032076509333838
481,240.7494237,-0.018912374049006,-0.08360906342744,-0.04813003579272
482,241.2496237,-0.04276053382154601,0.016963714459082,-0.037085600694464003
483,241.7496237,-0.0382401348836,-0.019602651779260002,-0.0033536471232199993
484,242.2496237,-0.00025656271151999863,0.010366376536988,-0.0032559093284019996
485,242.7496237,0.007721330673733999,-0.0019242235612000017,0.005418370643472
486,243.2496237,0.00922405809534,-0.05516719796318,-0.004844157609002
487,243.7496237,0.010177007488260002,-0.08657786542042001,-0.037158904385098
488,244.2496237,-0.2293552891162,-0.024562871417219995,-0.016328415649581998
489,244.7496237,0.09876461787308001,0.05543597903874,-0.011197151610802002
490,245.2496237,0.012510512032399999,0.023487750639280002,-0.016047417785862
491,245.7496237,-0.054073749553999996,-0.2123182706715,0.004367681565120002
492,246.2496237,0.085117899482,0.55010206414814,0.28940940859118003
493,246.7496237,-0.30298893002216604,-0.39210799521166,-0.0342511892118
494,247.2496237,-0.16246559619780002,0.42433721485820003,0.1864664752792
495,247.7496237,0.3885099972866,-0.62422439059186,-0.656588007468
496,248.2496237,0.143993045250494,-0.03852724025424,0.0065057101085
497,248.7496237,-0.18736444488446,0.07372526893360001,-0.08546609108378
498,249.2496237,0.010250312405000002,0.06007855191462,-0.071538374636682
499,249.7496237,-0.05045743075282,0.015558726418999998,0.02587012270722
500,250.2496237,-0.007623592380579999,0.0156442465681,-0.010647373062646
501,250.7496237,-0.0027000223045180005,-0.021801763661739998,-0.006444623391648
502,251.2496237,-0.001221729742133999,0.007092140340941999,0.015302162685498
503,251.7496237,-0.016261220177025998,-0.017183626442200003,0.0021197005333480007
504,252.2494237,-0.039229736290654,0.027653848516664,0.0151922069655
505,252.7496237,0.03230252973624,-0.011013892061900002,-0.000873536589588
506,253.2496237,0.020916011123739996,-0.014068215083800002,-0.03306611035756
507,253.7496237,0.018936808382794,0.025137085376480003,-0.0031948225337840004
508,254.2496237,0.01621235064952,0.02042121011146,0.0020708317069560002
509,254.7496237,-0.021197009917405998,-0.0007024946627880005,-0.0016432261417799999
510,255.2496237,-0.003408625222292001,-0.01504559976334,0.0051495901448
511,255.7496237,-0.010616830451153999,-0.0026450448219599997,0.0001282815671520003
512,256.2494237,-0.0021258101754599995,0.010561851712439998,0.00490524428702
513,256.7494237,0.012315032167500002,-0.03109912547186,-0.003219257466543999
514,257.24962370000003,-0.006524039647393986,0.04552775022396,-0.02589455829504
515,257.74962370000003,0.005656605875999999,-0.008350520554580004,-0.042033605750118
516,258.2494237,-0.046877763516700005,0.01825874819202,0.026419901841780002
517,258.74962370000003,-0.009053015291599999,-0.00864373647294,0.01083063273698
518,259.24962370000003,0.020977095999760005,-0.0008857536532200005,-0.00760526664756
519,259.74962370000003,0.017458515744659998,-0.00481972313476,-0.002657261745464
520,260.24962370000003,0.0684535070944,-0.05955320820006001,-0.007751874098139999
521,260.7494237,0.13690701200521999,0.1235229646026,-0.0562911893068
522,261.24962370000003,-0.3334955176708,-0.2866849507808,-0.12311979466180001
523,261.74962370000003,0.25137086100760003,0.1426308168702,0.028350233011654
524,262.24962370000003,-0.06269915997186,-0.0263465992374,0.067531101728818
525,262.74962370000003,0.024642284998599998,0.06700575383926,0.0469205232502
526,263.24962370000003,0.10438457312838001,-0.0177089692244,0.054348639122888
527,263.7494237,0.0004398236513399989,0.08285158600340001,-0.018930699212340002
528,264.24962370000003,-0.2034790581406,-0.13521491928357998,0.05990750783988
529,264.74962370000003,-0.017348557477800005,-0.1494236328992,-0.01692706347592
530,265.2494237,0.05188685407504,0.06059167736076201,-0.025906775129824
531,265.7494237,0.042613926791,0.01528994469904,-0.024904957033063998
532,266.24962370000003,0.006670638267700004,0.033994624548722,-0.018857395296884
533,266.74962370000003,-2.4434767153999892e-05,-0.030305001902052,-0.018613049442006
534,267.24962370000003,0.002895499665793999,-0.00970664136246,-0.018393138598762
535,267.7494237,0.005082394552826002,-0.005393935814718,-0.014483603677026
536,268.24962370000003,-8.552097302000083e-05,0.004636463354780001,-0.01332296087658
537,268.74962370000003,-0.032717917924814,0.006798925659084,-0.006517927262744
538,269.24962370000003,0.004581487241206,-0.005320632641100001,-0.004612028933459999
539,269.74962370000003,0.01679878144132,-0.009144645599778001,-0.016084069696123998
540,270.2494237,0.0590584048722,0.020543382121902,-0.01715919167324
541,270.74962370000003,-0.006563742194474,-0.010864229599999999,-0.03769951962014
542,271.24962370000003,0.009841031843999998,0.00390953501708,-0.07575334067948
543,271.74962370000003,-0.020525056196799996,-0.01759901470674,-0.1278356714628
544,272.24962370000003,0.0076724612518,-0.015228858552959999,-0.20542771697599999
545,272.74962370000003,0.05229002680290001,-0.01460577706766,-0.259782465098
546,273.24962370000003,0.019901974129799996,-0.0166216308812,-0.286770468958
547,273.74962370000003,0.0375926175697,-0.004550943276120003,-0.307894176242
548,274.24962370000003,0.0207327520489,-0.06456229823120001,-0.297558341914
549,274.74962370000003,0.10482439713910001,0.005797106310859997,-0.325792514092
550,275.24962370000003,0.0036163200368000024,-0.09627839837572001,-0.305169717958
551,275.74962370000003,0.041245589562633994,-0.04610196486622,-0.28233559250199997
552,276.24962370000003,-0.0017837288963999999,-0.099296069487216,-0.24782173156999998
553,276.74962370000003,-0.022834126793999997,-0.042839948597498,-0.19057148427
554,277.24962370000003,0.06417745553849999,-0.018857396670098,-0.11604598193839999
555,277.74962370000003,0.044593124836399996,-0.03850280746008,-0.05653553406628
556,278.24962370000003,-0.06261363950206,-0.03513083364686,0.02747058906438
557,278.74962370000003,0.038081308178600004,-0.089839880574998,0.03338376035872
558,279.24962370000003,0.06477610198738,0.05254047954464,0.030402739883352
559,279.74962370000003,-0.044837474962165995,0.00612697350744,0.026810855441116003
560,280.24962370000003,-0.020463970343459995,0.00958446871452,0.008570432859876
561,280.74962370000003,0.023420555248999993,0.01596189737478,0.004905244221038
562,281.24962370000003,0.0038606658727199992,0.006017018164719998,0.003805687662478
563,281.74962370000003,0.0005986481857000048,-0.006994401475040001,-0.004416552453984
564,282.24962370000003,0.0286617781128,0.01433699647046,-0.002559523430328
565,282.74962370000003,-0.020964878101386003,-0.006542361344575999,0.0012889249045159997
566,283.24962370000003,-0.0050823935864,0.015424335772119999,-0.00534506681136
567,283.7494237,-0.006853904101500002,-0.0038056876338,0.005467239958658
568,284.24962370000003,-0.022284347483600003,-0.01151480151862,-0.00263282717584
569,284.74962370000003,-0.021270311345414003,-0.01410486760018,-0.0014844011878599997
570,285.24962370000003,-0.04709767429628,0.00963333799092,-0.006249146659024
571,285.74962370000003,0.028221950649000002,-0.004196641447199999,0.00423329306334
572,286.24962370000003,0.0186558057322,0.012907572908939997,-0.0004948004022799991
573,286.74962370000003,0.09661436625899998,-0.05669435950942,-0.012614356426539998
574,287.24962370000003,-0.07045714574412601,0.01300531170856,-0.0006169734048399998
575,287.74962370000003,0.04499629369740001,-0.012186751007480002,-0.014520256127760001
576,288.24962370000003,0.00795346114179999,0.013213004681959996,0.009621120243438001
577,288.74962370000003,-0.019413282311400007,-0.000299323164880001,-0.01265100976446
578,289.24962370000003,-0.15993660900158,-0.013665045797200001,-0.004147771639042
579,289.74962370000003,0.0052167906463999915,0.001948658429600002,-0.005552761342999998
580,290.24962370000003,-0.01555261740449998,0.02202167547822,-0.02266919248838
581,290.74962370000003,0.027623301305000014,-0.0433775110586,0.0170981051577
582,291.24962370000003,-0.0766513183738,-0.029462007982580002,-0.032381941134262
583,291.74962370000003,-0.014697401051800008,0.04975493526408,-0.015363248806924
584,292.24962370000003,-0.03285230720496,0.03488648675338,0.004721984923338001
585,292.74962370000003,-0.027293436084566008,-0.005736021180020002,-0.005943714425564
586,293.24962370000003,-0.026364926257200008,-0.019040655499980002,0.000470366107180001
587,293.74962370000003,0.022504258751600004,0.02417191985932,-0.007373138007622
588,294.24962370000003,0.1106520466824,-0.006383538915239997,0.0095722510676
589,294.74962370000003,-0.04554607925006,-0.01830761843056,0.004221076317016
590,295.2494237,-0.0030176732954399965,-0.047006045826500004,0.002755000057536
591,295.74962370000003,-0.147694881662,0.16186083926439998,0.12744471851938
592,296.24962370000003,-0.1007926934212,0.00871704393232001,0.06502655756388
593,296.74962370000003,0.07126348528780001,-0.14486658284356,0.05582693321658
594,297.24962370000003,0.045277295678200005,-0.006554580293000012,-0.01972482332904
595,297.74962370000003,-0.148305752769,-0.152722302668,0.011869102562239999
596,298.24962370000003,0.3309421008968,0.220442765156,0.0932851585012
597,298.7494237,0.014306454965799997,-0.007996217830000006,0.004795287324600002
598,299.24962370000003,0.013903280979399994,-0.02579681955502,-0.01458134252232
599,299.74962370000003,-0.10582621588768001,-0.0692415230526,-0.02128863730718
600,300.24962370000003,0.061062044269940004,0.003940069677579994,-0.03214981276586
601,300.74962370000003,0.08646180346539997,0.016181808550600012,-0.02533256288358
602,301.24962370000003,0.008881978015200026,0.054922843537400026,0.008240566506055999
603,301.74962370000003,0.027452265063399997,-0.03146564487193999,0.03904036737964
604,302.24962370000003,0.0136467170292,-0.03764759963467999,0.002376263005018
605,302.74962370000003,0.049357869718800004,0.0704143812332,-0.0010445791185699986
606,303.24962370000003,0.012547161223599996,0.013665046291540002,0.008460476562400001
607,303.74962370000003,0.1232847373366,0.1339198827598,0.010207548893377999
608,304.2490237,-0.11986389042680001,-0.1431561610136,-0.046163051206
609,304.74962370000003,-0.14679080586379997,-0.06904604840981998,0.005552760993579997
610,305.24962370000003,0.1510912939692,0.014275910625839995,0.002864957838140002
611,305.74962370000003,-0.1551230083674,0.03790416270447999,-0.007312051071780001
612,306.24962370000003,-0.12953998473,0.341821605676,-0.06725010318696
613,306.7494237,0.0221499577301,-0.19109683149319998,0.048484339194920005
614,307.24962370000003,0.3085477976916,-0.4321318596720001,-0.1648418603581
615,307.74962370000003,0.14432291442579998,-0.26973956278,0.011795798981895998
616,308.24962370000003,0.0068416854514000034,0.22217763411,0.015949680010658
617,308.74962370000003,-0.17109100490620002,-0.025491386090739993,-0.008399390058199998
618,309.24962370000003,0.010348042508599992,-0.027079634707239994,-0.014190388591979998
619,309.74962370000003,0.07294948468640002,-0.1013119212718,-0.01218675177792
620,310.24962370000003,0.084372636927,-0.04329198686224001,-0.0015943565215199983
621,310.74962370000003,-0.0313495841724,0.0346665764274,-0.0099632051844
622,311.24962370000003,0.034245078765800005,-0.017379101915098,-0.010317506111779997
623,311.74962370000003,-0.04710988872360001,0.011343758259920001,0.0068966629665800005
624,312.24962370000003,0.016383387106599995,-0.09081726873935998,-0.02985296104696
625,312.74962370000003,0.043530219498400004,0.007812960480399998,-0.013005311293740001
626,313.24962370000003,-0.1545243598345,0.0031948241558000003,0.04893637739532
627,313.74962370000003,-0.004605921858486004,0.03392132226776,-0.0003359755124999997
628,314.24962370000003,-0.04811170938936,-0.0038423394644360002,0.013310743589580001
629,314.74962370000003,-0.033450961247834,0.01185688592602,-0.002315177655800001
630,315.2494237,0.061721774484794,-0.059699815954,-0.008289434922103999
631,315.74962370000003,-0.020402889107300003,-0.015179989428359996,-0.0249782610859
632,316.24962370000003,-0.0312274067358,0.11487312295684,0.003353647333340001
633,316.74962370000003,-0.058276501343600004,0.012284491261839996,-0.037867508101519995
634,317.24962370000003,-0.0708358826206,-0.06953473928802,-0.025185953702482
635,317.74962370000003,-0.15613702013119996,-0.05214952380799999,0.020018039580120002
636,318.24962370000003,0.2705031386412,0.10316894922366,-0.002498437366739999
637,318.74962370000003,0.005754354633000006,0.018197662088600002,0.0342145363382
638,319.24962370000003,0.3740325276648,-0.10859343426206002,0.014227040500020001
639,319.74962370000003,-0.0861685842722,0.0297307895824,-0.0011911854944599994
640,320.24962370000003,0.097445139067006,0.07396961669378001,0.0207144244706
641,320.7494237,-0.14580119526780003,-0.05073232163826,0.0024984368922140003
642,321.24962370000003,0.0536950070718,0.01496007784604,-0.008045088912509999
643,321.74962370000003,-0.1025031000856,-0.03726885976454,-0.015241076852119999
644,322.24962370000003,0.18273409267779997,0.1154106796484,-0.00869260579752
645,322.74962370000003,-0.1462898991794,-0.08661451954810001,0.023451099218958
646,323.24962370000003,-0.03479485719200001,0.0354851350494,-0.010635156282979999
647,323.74962370000003,0.12025484565979998,-0.0483988151018,0.0020952664716400006
648,324.24962370000003,0.0652525772496,0.047714646116106006,-0.00495411329282
649,324.74962370000003,-0.1136330668302,-0.02472169554294,-0.007556397559008
650,325.24962370000003,0.036688539164,-0.0036468627606600023,0.009743293210734002
651,325.74962370000003,-0.012681552842268,0.0029382595813719995,0.0062247120328200005
652,326.2494237,0.010201441790499999,0.005699367746779998,0.018808526641736
653,326.74962370000003,-0.03172831607488,-0.057977176435400006,-0.000812450106596
654,327.24962370000003,-0.0060475612799599995,-0.010073160175239999,-0.0027550000361339995
655,327.74962370000003,-0.00935844836568,-0.007996220050496,-0.0033047784516579996
656,328.24962370000003,-0.001099556563468,-0.00208304900932,-0.00398894697648
657,328.74962370000003,-0.01297476779484,0.015289945455984,0.002828303870028
658,329.24962370000003,-0.065142619722682,0.023377795355919998,-0.0036346454088439996
659,329.74962370000003,0.0197675843978,7.941235289999932e-05,0.002974911482992
660,330.24962370000003,0.0303477627732,0.00635910233578,-0.002840521230692
661,330.74962370000003,0.057580114658046,0.008668171132699999,-0.005051851518344
662,331.24962370000003,-0.0160901791294,-0.01394604270261,-0.0022296564138519995
663,331.74962370000003,0.006597339814299995,0.00651792747398,0.0022174391157079995
664,332.24962370000003,-0.0006352999736400005,-0.040784386677186,0.003353647691018
665,332.74962370000003,-0.009199623520719997,-0.02168569989582,0.0015210534347980004
666,333.24962370000003,-0.007159334896280001,-0.00638964538438,0.0027183483449939997
667,333.74962370000003,-0.05883849494156,0.1200837972483,-0.066455979013124
668,334.24962370000003,0.026902484908165998,-0.1426247098294,0.07236915028384
669,334.74962370000003,0.0570059020342,0.5067612068014,-0.090548488017024
670,335.24962370000003,-0.12109782579839999,0.18259970314180599,0.1186604836288
671,335.74962370000003,-0.2527391956034,-0.1345490703108,-0.1023626062788
672,336.24962370000003,0.83536979441268,-0.17244713076780002,0.254211378418
673,336.74942369999997,0.0932790519518,-0.1188742849592,-0.060518374326400004
674,337.24962370000003,-0.117505948385394,0.1014768558464,-0.39341524630347996
675,337.74962370000003,0.1575542419392,-0.10156237780119999,0.034410013949759996
676,338.24962370000003,0.086559540736,0.0570914237432,-0.056230102719259996
677,338.74962370000003,0.020146319343300002,0.0171530823378,0.056132364520118
678,339.24942369999997,0.062442598033966006,-0.039950555050739994,0.0260900341366
679,339.74962370000003,-0.04663341636098,-0.0437012677242,0.00650571013408
680,340.24962370000003,0.004984658104800002,-0.06698743142447999,-0.051636400269142
681,340.74942369999997,-0.022174390459739998,-0.052167850123558,-0.06706684376658
682,341.24962370000003,0.00386066538114,-0.013622284301759999,0.01008537720956
683,341.74962370000003,0.0562728618116,-0.16672943266526002,0.005601631358520002
684,342.24962370000003,-0.000256560550399999,0.2686827641686,0.057855003782139994
685,342.74962370000003,-0.117994642019606,-0.027452262095106,-0.02995070053978
686,343.24962370000003,0.1644692333378,-0.03178940339566,0.0062124947365599995
687,343.74962370000003,-0.2202411834138,-0.026450445978646,-0.047201521138903996
688,344.24962370000003,-0.0487103571816,-0.014159845285834001,-0.00045814860736
689,344.74962370000003,-0.05739685473256,-0.014489712611560002,-0.0032559092190620003
690,345.24962370000003,0.0024923282272000004,0.007880155238840001,-0.0040133814285039995
691,345.74962370000003,0.009822705435885998,-0.0013805543508259987,-0.0019364412687000005
692,346.24962370000003,0.010934479603733999,0.01804494539092,-0.008326086895226001
693,346.74962370000003,-0.010445787404712002,0.0038973169762999992,-0.002144135279524
694,347.24962370000003,-0.006218603405886001,-0.008161153458040001,-0.00023823724122000006
695,347.74942369999997,0.007696896141019998,0.0023945902591859997,0.00447763881216
696,348.24942369999997,-0.017470733014894,-0.00758694081246,0.00383012208186
697,348.74962370000003,-0.005461131155234,0.0012828160586399997,-0.003060432567202
698,349.24962370000003,-0.011472040812219999,-0.004251618889168,-0.0032192572803739997
699,349.74962370000003,0.05858193249113999,0.054941177585246,-0.004587594519503999
700,350.24962370000003,-0.052839803813479996,-0.034745989627034,-0.0015577049789440001
701,350.74962370000003,0.019254457898646,0.0008796457105059999,0.009425643499676001
702,351.24962370000003,-0.005827650039833999,0.005571086438400001,0.003524689826874
703,351.74962370000003,-0.001356119644160001,-0.01340237216694,-0.0023151776488480004
704,352.24962370000003,0.031410667248740004,-0.0013316848602400006,0.01437364826968
705,352.74962370000003,0.03748266225652,0.00489913572392,0.0022663082490999996
706,353.24962370000003,-0.024581196655000005,-0.017006474240206,-0.0036468627571819997
707,353.74962370000003,0.05442805065336,0.0496388725343,-0.021361941085064
708,354.24962370000003,0.026499312968828,0.0305310204809,0.015436552357419999
709,354.74962370000003,-0.0838106479054,-0.0821979672276,0.013775001132580001
710,355.24962370000003,-0.0434813553916,-0.0018936798450600028,-0.023096796918464
711,355.74942369999997,0.0742689403314,0.08190474940452001,-0.03952906082818
712,356.24962370000003,0.0477207579882,-0.034843726890132,-0.026419901278379995
713,356.74962370000003,0.062283780401199994,0.069064374077766,-0.05104996878992
714,357.24962370000003,0.14679080765944,0.1078909382183,-0.033835797685
715,357.74962370000003,-0.163919452655,-0.10459226631168,-0.00379347070774
716,358.24962370000003,0.128635901795,0.041282243869800006,-0.0048441580518999985
717,358.74962370000003,-0.0663521329306,-0.0761870538668,0.004575378074600002
718,359.24962370000003,-0.009688315800600002,0.021123705373834,-0.0201646450514
719,359.74962370000003,-0.01918115870540001,0.04537503610940001,-0.052393872608759995
720,360.24942369999997,0.06450731884659999,-0.0026389345687999966,-0.0238664852412
721,360.74962370000003,-0.07583275242518,-0.08513011882588,-0.011563670641999996
722,361.24942369999997,0.028185300342799993,0.009321797361600001,0.018979569067836002
723,361.74962370000003,-0.1472794991114,-0.004422661479799989,0.0422535147265
724,362.24962370000003,0.034712387481080006,-0.0023793197343939965,0.02671922435124
725,362.74962370000003,0.10447925923439999,-0.0550022659462,0.10313841167242
726,363.24962370000003,-0.1145737961068,-0.12776847995832,0.18972849175112
727,363.74962370000003,0.0410989823192,0.21716243181,0.022327108848640007
728,364.24962370000003,-0.10328501899159999,-0.067011864847,0.08191085770716
729,364.74962370000003,-0.051691382695799995,0.2252502758594,0.12392614308580001
730,365.24942369999997,-0.045961465571,0.1479881052668,0.002583958081399999
731,365.74962370000003,-0.046266898251,0.017434082184799995,0.1109147177292
732,366.24962370000003,0.1422581882153,0.06151408328692,0.0397978415426
733,366.74962370000003,0.18472550760960002,-0.25564691183377997,-0.31107067182298
734,367.24962370000003,0.055613129247119995,-0.08840434884436,0.08855706676236
735,367.74962370000003,-0.022406520335179998,-0.04730536892678,0.017989967895534
736,368.24962370000003,-0.022027783100314,-0.030958628084306,0.01511890340646
737,368.74962370000003,-0.04659676465434,-0.0323025301852,0.0050640690870180005
738,369.24962370000003,0.0024434590709800025,0.007574723417199999,0.005882627807338
739,369.74942369999997,-0.02809977985972,-0.02494771775062,0.0020952662560580005
740,370.24962370000003,0.01348789584372,0.0019058991917999962,0.008069523653036
741,370.74962370000003,0.016639959464,0.000525345098599998,0.0026572618340200004
742,371.24942369999997,0.024605634496834002,0.016554434926660005,0.002828303605600001
743,371.74962370000003,0.029187118424365995,0.004190533648200001,-0.0032436920884799996
744,372.24962370000003,0.034012949338206,0.046987718765280004,-0.00386677417816
745,372.74962370000003,0.034648249993034,0.015980221627866,0.0031581706417980002
746,373.24962370000003,-0.094464132858,-0.1044090114534,0.00934012382918
747,373.74962370000003,0.003530799395679998,-0.011044435591265995,0.0181854443546
748,374.24962370000003,0.03784918162407999,-0.023212860414199996,0.01620624206602
749,374.74962370000003,-0.14565459564158,0.03576002276722,-0.018808526301842
750,375.24962370000003,-0.3614853434268,0.044006698972720006,0.057451832911759995
751,375.74942369999997,-0.01578474588368,-0.05020086578726,-0.007971785200864001
752,376.24962370000003,0.05858193163928,-0.00905301656698,0.06422021370814
753,376.74962370000003,0.05277871776219999,0.030531023211894,-0.02875340472624
754,377.24962370000003,0.18505537675230002,0.019193371433159998,-0.061727885530039994
755,377.74962370000003,0.04399448339478,0.03643197719734,-0.006823359522959999
756,378.24962370000003,-0.03850891456564,-0.038276787758913994,0.021239768241180002
757,378.74962370000003,0.0057299114482,-0.007220422670940001,-0.007055487939659999
758,379.24962370000003,0.047268717547580004,0.028197517331340002,0.0063713199994000005
759,379.74962370000003,-0.030640976578199995,-0.004532616655894001,-0.006004800846339999
760,380.24962370000003,0.0706404019342,0.11448827630135999,0.04141052456706
761,380.74962370000003,-0.1760390122792,-0.14323557340728,-0.024795001035682
762,381.24962370000003,0.018558070472359994,0.026499315224559998,-0.009547816082102001
763,381.74962370000003,0.022211043132120002,0.016908738156334,0.010439678784219999
764,382.24962370000003,-0.031850489764600004,-0.013756674488020003,0.002669479134400001
765,382.74962370000003,0.045497209678059994,0.007831285477299993,0.0207266412115
766,383.24962370000003,0.046621199240700004,0.0502375224592,0.00573602076532
767,383.74962370000003,0.0928025759414,-0.037103930556,-0.131232079541
768,384.24962370000003,-0.36246272174842,0.1034071903496,0.111476712316238
769,384.74962370000003,0.5175979522788,-0.11713943149959999,-0.0010079281351199998
770,385.24962370000003,0.1804983212074,-0.200436947842406,-0.1130893976964
771,385.74962370000003,-0.025644103210200005,-0.1295522053954,0.06905826539826
772,386.24962370000003,-0.0718865674722,0.0682091608616,0.04499019108392
773,386.74962370000003,0.00596204158662,-0.02498436940364,-0.0156808984316
774,387.24942369999997,-0.030689846583086,0.003872882126114,-0.0063957546511999985
775,387.74962370000003,0.0173119108376,-0.0014782927125600025,0.0030604320773999993
776,388.2492237,0.037543750401965996,-0.03251022357288,-0.011392628144563998
777,388.74962370000003,0.037372708931440006,0.08625410717256601,-0.018613049946060004
778,389.24962370000003,0.040036075696964,-0.13691923648659998,0.0782090158726
779,389.74962370000003,-0.06070774103262,0.0074281163271659985,-0.0269574626833
780,390.24962370000003,0.0657534849656,-0.023225077970319998,-0.01362839342922
781,390.74962370000003,0.041062328561800004,-0.02869842723952,-0.0045875947152020004
782,391.2492237,0.036187629799454,0.038643307275120005,-0.0170614533206
783,391.74962370000003,0.027330090532580002,-0.0272934370293,-0.031477862127982
784,392.24962370000003,0.005375609954999998,0.087549138564,0.024086397990198002
785,392.74962370000003,0.027244568476894,-0.12290599553964,0.05863690986092
786,393.24962370000003,-0.05889958063825999,-0.027317872219980003,-0.01598633223552
787,393.74962370000003,-0.073487032745,0.11705390899217999,0.004404335025120001
788,394.24962370000003,0.11726160481619999,-0.09830035919976,-0.03129460267236
789,394.74962370000003,0.0009773836916239997,-0.02408029046004,0.0015699228231379997
790,395.24962370000003,0.018533637942420002,0.012999203580800001,-0.011074978596800001
791,395.74942369999997,0.012009602728439999,-0.0525099369152,-0.019504912285502
792,396.24962370000003,-0.00657290524172,0.015283836865340001,-0.00478307085018
793,396.74962370000003,-0.007110466425354,0.02208887036908,0.022803582413898002
794,397.24962370000003,0.006524035756660003,-0.099204437863826,0.012993094022538001
795,397.74962370000003,0.00020769594433200228,0.028673995382299998,-0.011478149031599999
796,398.24962370000003,0.024092507417200003,0.060402310450300006,0.03588830622824
797,398.74962370000003,0.008759801222140004,0.06295572459224,0.007483093870480001
798,399.24962370000003,-0.0505918208005,0.015564834435700002,-0.014129302170064
799,399.74942369999997,-0.166656128207994,-0.012034035881399998,-0.012870921007139999
800,400.24962370000003,-0.04247953601048,-0.018619158374,0.00010384706070000013
801,400.74962370000003,0.005106829632087999,-0.010543526774680002,-0.009706641025648
802,401.24962370000003,0.00028099801479999925,0.0019181151873799997,0.000959057705136
803,401.74962370000003,-0.014978404247262,0.01585804933798,-0.00797178547612
804,402.24962370000003,0.004190532417840001,-0.004703658849922,-0.004306596624442
805,402.74962370000003,0.015283836357658,0.034269514181874,-0.023451098986924
806,403.24962370000003,-0.022760821441006,0.0308975401576,-0.019260566197679997
807,403.74962370000003,0.071410091789434,0.02764774018488,0.004477639003118
808,404.24962370000003,0.042003062981060005,-0.05959596876422,0.01681710723924
809,404.74962370000003,0.03876547908656,0.0056932602315,-0.01897956871521
810,405.2492237,-0.009908226125060003,-0.029016077832986,0.010855067052380001
811,405.74962370000003,0.0724729986432,-0.01117882500326,0.09012088070186
812,406.24962370000003,0.01175303778266,0.0259617530656,-0.014080433044302001
813,406.74962370000003,0.03357312657000001,-0.030017894613919998,-0.022375976501619998
814,407.24942369999997,-0.014196497499379998,-0.0017104209323600007,-0.02955974681248
815,407.74962370000003,-0.04966330541728001,0.0499320866186,-0.01961486910844
816,408.24962370000003,-0.03064098023092,-0.025485276613599995,0.0061269734954599985
817,408.74942369999997,0.022736385031799998,-0.010677914947299997,0.005039633566259999
818,409.24962370000003,0.056223994237,-0.03369530132259999,-0.004612028728939999
819,409.74962370000003,-0.0260106223792,0.005754344747399998,-0.0062247119009520005
820,410.24962370000003,-0.008772017416700001,0.008002330290959998,-0.000788015077179999
821,410.74942369999997,0.071935436199276,-0.03991390359820599,-0.005015199462301999
822,411.24962370000003,-0.019364414075040002,-0.06488605655524,-0.030757042429322
823,411.74942369999997,0.0502497385613,0.06548470328514,-0.01950491270938
824,412.24962370000003,-0.041893106755388,-0.1087705833802,-0.03371362735918
825,412.74962370000003,-0.035845546636459995,-0.01855807254306,-0.08073799918105999
826,413.24962370000003,0.04300487922404,-0.01390328270198,-0.083584628272
827,413.74962370000003,-0.037165009097599996,-0.023982551261485997,-0.10426850830755999
828,414.24962370000003,0.0389609549644,0.0019792004178000046,-0.08553939429174
829,414.74962370000003,-0.032815653116,-0.027977603502559997,-0.140162921311222
830,415.24942369999997,-0.1091248853414,-0.14467721584064,-0.11046267860322401
831,415.74962370000003,0.045863722857399994,-0.16196468558500002,-0.06965691214516
832,416.24962370000003,0.019535455090959997,0.07170330687006,-0.0263343805812
833,416.74962370000003,-0.018179335669799998,0.0686489832164,0.03825846093228
834,417.24962370000003,-0.036493062394099995,-0.005790997879639999,0.086504561888256
835,417.74962370000003,0.1560637329775,-0.1702846652314,0.059797554380899995
836,418.24962370000003,0.006780597607399996,0.019987494721200004,-0.06834965970418
837,418.74942369999997,0.07340151153919999,0.1204381008034,-0.013884955543680001
838,419.24942369999997,0.11261903412916001,0.2113958692224,-0.008008438198404
839,419.74962370000003,-0.09892344327474,-0.091238763749766,-0.023243404828061996
840,420.24962370000003,-0.1145371494572,-0.0655091369566,-0.0006902770791399998
841,420.74962370000003,-0.06853902817728,-0.0730349924924,0.003634645825199998
842,421.24962370000003,0.0676593825772,0.029321507780366005,-0.059284426598279996
843,421.74942369999997,0.0010506860930000017,-0.18842734904456002,0.0016065738681200015
844,422.24962370000003,-0.041636544617200004,0.0811594972012,0.008326087185220002
845,422.7492237,0.07437889668968,0.1731679454992,-0.007287615738839999
846,423.24962370000003,0.01081230556859999,0.0644951038266,0.014776820500999998
847,423.74962370000003,-0.0555398210958,0.08385952507000001,-0.07506917181578
848,424.24962370000003,0.0024556749067000034,-0.03177718604486,0.008985820643516001
849,424.74962370000003,-0.14983291227776,-0.059913618931680006,0.00517402434824
850,425.24962370000003,0.06913767538920002,0.0024190247103400035,-0.007739656308180002
851,425.74962370000003,-0.0756983646096,0.0240680711801,-0.02329227410558
852,426.24962370000003,0.1028818410042,-0.13580745649940001,0.05607127724844
853,426.74962370000003,0.261425691228,-0.07897259913160001,-0.0035124730497800016
854,427.24962370000003,-0.29501103526280004,0.0334143021702,0.06494103520288
855,427.74942369999997,-0.35976270763,0.19963060599640003,-0.02637103173856
856,428.24962370000003,-0.0978238843908,-0.0684412876452,0.016267328823360003
857,428.74942369999997,-0.04867370646099999,-0.0468899806226,-0.019223914527484
858,429.24942369999997,0.0001588264673999995,0.045692685207999996,-0.01856418027532
859,429.74962370000003,0.0011117721843660027,-0.07501419305019401,-0.009816596830461998
860,430.24962370000003,-0.031141884629999995,-0.0018692467020000015,-0.006126973260402
861,430.74962370000003,0.004153880852600006,0.003090977928600003,-0.02567464675752
862,431.24962370000003,0.019511019287399997,-0.02607170811376,-0.010806198204026
863,431.74962370000003,-0.021025967526626003,0.00856432440758,-0.005137372231140001
864,432.24962370000003,0.0083321937836,0.001417206713900002,-0.0013133589957239995
865,432.74962370000003,-0.0056932597427999995,-0.0190345458724,0.004416552450057999
866,433.24942369999997,-0.014098759214599998,0.01031139758458,0.009046907665657999
867,433.74962370000003,-0.001563815119399996,0.01121547803424,-0.0007391463906399995
868,434.24962370000003,0.036517497016560006,-0.0638964551819,0.01305417992418
869,434.74962370000003,-0.04676780380092001,0.06978519312668001,-0.012162317660562002
870,435.24962370000003,-0.1027474544222,0.031703882993400004,0.010415244873260001
871,435.74962370000003,0.03854556690912,-0.018887942755266004,0.000934622904496
872,436.24962370000003,0.024116941563340002,0.03236361610212,0.0024617852729100003
873,436.74962370000003,-0.030604325628066,-0.029932373468666,0.0006169732134360003
874,437.24962370000003,-0.016884300821900008,0.010653481730006003,-0.001777616480404
875,437.74962370000003,0.0091018861564,0.0046914400217,0.005711585524938
876,438.24962370000003,-0.006695079242439998,-0.0005986478642199994,0.004355466025978
877,438.74962370000003,0.003848448248679999,0.013121375624,-0.00463646363167
878,439.24962370000003,0.005424479002540001,0.00526565458088,0.0006658426404979998
879,439.7492237,0.0025534147392339995,0.0007208205355539994,-0.001948658652452
880,440.24962370000003,-0.001221729402846,-0.008283326411868,-0.005027417189999999
881,440.74962370000003,-0.0020036364246460003,-0.004031707602526,0.002034179742266
882,441.24962370000003,-0.004349357163304,-0.005485565660798,-0.00038484481895400006
883,441.74962370000003,-0.00359188490503,-0.00389731722776,-6.108591338000043e-06
884,442.24942369999997,0.0005497783323939999,-0.0037507096775819997,-0.000800232839548
885,442.74962370000003,0.003310887184656,0.002003636407266,-0.00042149669556999997
886,443.24962370000003,-0.0008796452165100001,-0.00340862546326,-0.0012400554781519999
887,443.74962370000003,-0.004129446016926,-0.0036041021845620003,-0.0009590576970139999
888,444.24962370000003,-0.002431241839944,0.00029321507513999995,0.0007147118581039999
889,444.74962370000003,0.00012217297601999996,0.0069638585352640005,-0.005870410535590001
890,445.24962370000003,0.0008552106307220001,-0.009248492832788,-0.000983492241704
891,445.74962370000003,-0.0005986474728179999,0.0006719512239799999,0.000690277212628
892,446.24962370000003,-0.002040288347116,-0.006524035858748,0.001044578812672
893,446.74962370000003,-0.002675587746846,-0.009309579360897999,0.0013744457941640002
894,447.24962370000003,-0.007513636834896,0.0007941241867400001,0.00131335932671
895,447.74962370000003,-0.01325576562644,-0.0037262752898540004,-0.00142331492234
896,448.24962370000003,0.00141720635584,-0.004532616787446,-0.005601630063328001
897,448.74962370000003,0.0024312418320859997,-0.0005009091159339998,-0.005894845076494
898,449.24962370000003,0.003506363753206,-0.02505767328612,-0.006224711974988
899,449.74962370000003,0.01232725116556,0.021624613055499998,-0.002376263982606
900,450.24962370000003,0.0038851002622000037,0.005742129094140001,0.019223914468616
901,450.74962370000003,-0.01066569896421,-0.046462374894056,0.002131918263058
902,451.24962370000003,-8.552241994000509e-05,-0.0023212865222299994,0.00973107592752
903,451.74962370000003,-4.886796975999752e-05,0.004948005455999998,-0.0001527161240499997
904,452.24962370000003,-0.044080002383,0.01420871572048,-0.0009468404589900001
905,452.74962370000003,0.0017226399501400014,-0.024996586940999998,0.005577195367928
906,453.24962370000003,0.046010335194199996,0.005839866331000001,-0.004770853911040001
907,453.74962370000003,0.03975507997726,-0.12360237875004,-0.02196058897412
908,454.24962370000003,0.028026476248599996,-0.022052219015194,-0.02679863775642
909,454.74942369999997,0.0024312398992000013,0.1924346223066,0.020616685998936003
910,455.24962370000003,-0.0248621947688,0.009248493442059998,-0.0001404987849799997
911,455.74942369999997,0.0021380258400000005,-0.021905610275626,-0.0058459760818039995
912,456.24962370000003,0.0336830857232,0.024141375681600002,-0.0005925388299200001
913,456.74962370000003,0.025619672437139994,-0.020683881560315996,0.0006658426646739996
914,457.24962370000003,-0.0031276263503999995,0.006585122813384001,0.00025045454544000056
915,457.74962370000003,-0.008747583640211998,0.0561995588,-0.018759656363239997
916,458.24962370000003,-0.1528139306214,0.06763494897720002,-0.022754712595639996
917,458.74942369999997,0.10378592012399998,-0.062357075320720004,0.004770854078240001
918,459.24962370000003,-0.0212947464779,0.030347763438834,0.00302378048256
919,459.74962370000003,-0.0519723754352,-0.003017670783626001,0.0116858430495
920,460.24962370000003,0.021160351903400012,0.00812450200934,0.00594371455682
921,460.74962370000003,0.040500334510133996,0.013744456600080002,0.007177661251398
922,461.24962370000003,0.0016615530163200023,-0.01739742916,-5.497785492000019e-05
923,461.74942369999997,0.019486586289279996,-0.001918114776599999,0.003365864889866
924,462.24962370000003,-0.057384637630280004,0.005717694193940002,0.0016310088176599998
925,462.74962370000003,0.0242391132416,0.00202807068946,-0.009902118040286
926,463.24962370000003,-0.015491529443399998,-0.0066462094381720006,-0.016523892309412
927,463.74942369999997,-0.00828332670768,0.00636521043276,-0.0035246896833
928,464.24962370000003,0.0284540833482,-0.002590067219240002,0.008032871739917999
929,464.74962370000003,0.011643081833199998,-0.0047403112430740016,0.010451896312816001
930,465.24962370000003,-0.048368269677599995,0.003042105866600003,0.005381718483616
931,465.74962370000003,0.011154390103900012,0.06200277590414,0.0037323837916799995
932,466.24962370000003,-0.1470229357786,0.0051801349299000045,-0.01463021157948
933,466.74962370000003,0.0267558690242,-0.08542333378780001,-0.01006094283788
934,467.24962370000003,0.060903219864000005,-0.08206357418166,-0.07134289797238
935,467.74962370000003,0.07535628017307999,-0.14462834631664,-0.05662105605544
936,468.24962370000003,-0.05464796296228,0.12255169138232,0.10269247905422
937,468.74962370000003,-0.0108733926358,0.040695811992158,0.029559747084118
938,469.24942369999997,0.001893681012540004,-0.05133707489478,0.09460462648626
939,469.74962370000003,0.0299323748058,0.064812752733,0.06921708848006
940,470.24962370000003,0.026364923577594,0.01425758447882,0.036816820144858
941,470.74962370000003,-0.027391177155199998,0.037165012654054,0.053652253349880004
942,471.24962370000003,0.06315120013837,0.1369803171492,0.06772657792568
943,471.74962370000003,-0.009224057104799998,-0.045851509885199995,0.033273804016958
944,472.24962370000003,0.025546364563999998,0.05484344119588,0.0473969985882
945,472.74962370000003,0.03246135470012,-0.00933401272456,0.01955378193352
946,473.24962370000003,0.006597339440600003,0.063639890777634,0.011307107130048
947,473.74962370000003,0.040475900437480006,0.0290527287306,0.006786708015527999
948,474.24962370000003,-0.01699425757314,-0.022650866456400003,-0.003255909243104
949,474.74962370000003,-0.0034330602920599994,-0.02140470175398,0.0019486587625499995
950,475.24962370000003,-0.009957095098388,-0.00748920193466,0.009083559246648
951,475.74962370000003,0.0171286483454,-0.012119556937960001,0.009621120440776
952,476.24962370000003,-0.018118249701840002,-0.00886975641914,0.00407446800778
953,476.74962370000003,0.01660330425114,0.0398039490918,0.019883648990772
954,477.24962370000003,0.004996874459580002,0.00571769448158,-0.0029749113967200004
955,477.74962370000003,-0.010458004922240001,-0.0094684048829,0.005002982657178
956,478.24962370000003,0.0051312645053,-0.0009285148051400001,-0.013151918738040001
957,478.74962370000003,0.0440800018896,-0.005045744125606001,-0.00913242853274
958,479.24962370000003,-0.025314236672400004,0.0025167634696000025,-0.0031703883446
959,479.74962370000003,0.0250332381591,0.069577498905534,-0.0056016299480840005
960,480.24962370000003,-0.0159191370804,-0.035442374937,-0.001887572087866
961,480.74962370000003,0.013353504147999996,0.013781109449886,-0.0022540910090439997
962,481.24962370000003,0.03433060169396,-0.018069379798639998,-0.0023640461219239994
963,481.74942369999997,-0.05425701192879998,-0.035466806536400004,0.023817618289059997
964,482.24942369999997,0.07547844972528,-0.092851445800994,-0.005662716249339998
965,482.74962370000003,0.051581421663000004,0.21120038604859398,0.05504502571532001
966,483.24962370000003,-0.2210719645882,-0.03523467940944,-0.00015271434962000217
967,483.74962370000003,0.07646805487828,0.01342680639736,0.0043799008374580005
968,484.24962370000003,-0.039449652578399996,-0.034037385847,-0.0012400548475400002
969,484.74942369999997,-0.028796167199353996,-0.022406519973399996,-0.005479457063619999
970,485.24962370000003,-0.06086656481759999,-0.0393396918219,0.00011606410382000138
971,485.74942369999997,0.04191754218462,0.007904590182,-0.003646863241425999
972,486.24962370000003,-0.013329070404040001,-0.012107340501899998,-0.01527772754898
973,486.74962370000003,-0.010409134682039998,0.010323614639366001,0.004428769752999999
974,487.24962370000003,0.018619160527700004,-0.0031887132163399994,0.003671297628978
975,487.74962370000003,-0.0013805551404999991,-0.006719513065639999,-0.0005070178083239999
976,488.24962370000003,-0.011264347524900003,0.01749516764552,-0.0018020511676199995
977,488.74962370000003,-0.0151127954427,-0.001209512305786001,-0.00204639673692
978,489.24942369999997,0.0014538580092999997,0.01123991154046,-0.0024129158034100003
979,489.74962370000003,-0.008625410780819999,-0.008356630102786,0.0031215191624380002
980,490.24962370000003,-0.01971871505148,-0.010580178080926,-0.003451385961988
981,490.74962370000003,-0.0007819069642800001,0.0009285144136900001,-0.00043371388596600023
982,491.24962370000003,0.0034208428841720003,-0.0008185587217339999,0.00010384703656799995
983,491.74962370000003,-0.00025656318695800004,-0.005864301807505999,-0.002706130921684
984,492.24962370000003,-0.002211330528594,-0.0011117740181060003,-0.0002871064268540001
985,492.74962370000003,-0.0018325943405940002,-0.011276563798957999,-0.0008246674062639999
986,493.24962370000003,-0.012205078443676,-0.013732240296554,-0.003610210746242
987,493.74962370000003,-8.552107529999998e-05,0.00039095351432199985,0.000543669691026
988,494.24962370000003,0.0011484258535,0.00785572087438,-0.0011667516889839998
989,494.74962370000003,-0.005265654389472,-0.01324354863008,0.001863137643678
990,495.24962370000003,0.004960222018048,0.007110466056966,-0.00089797120553
991,495.74962370000003,0.0010506874183800002,0.004935787391314001,-0.00031154099391200003
992,496.24962370000003,0.016114612494266,0.015882483842672,-0.002547306041968
993,496.74962370000003,0.032473571614468,0.028038693146182,0.004037816346416
994,497.24962370000003,-0.018472551235313998,-0.02018908145656,-0.001792888082488
995,497.74962370000003,0.002660316051980001,-0.0075747230998939995,-0.005323686512328
996,498.24962370000003,0.010983348673816,0.025631886295448002,0.004111119907088
997,498.74962370000003,0.105985039948434,0.028038693441126004,-0.035705046892140005
998,499.24962370000003,0.03791026929606,0.05736020438000001,-0.01282205171326
999,499.74962370000003,-0.101867810164902,-0.09820261985458,0.017415754819094
1000,500.24962370000003,-0.011081086930439998,0.02696357114864,-0.002498436914604
1001,500.74942369999997,0.01318246195924,-0.007489201940706001,-0.002583958000296
1002,501.24962370000003,-0.0072815081531999995,0.0114720405483,-0.0003115409839279999
1003,501.74962370000003,-0.010677916112004,0.009773836252514,-0.000360410170594
1004,502.24962370000003,0.0025534150048599994,0.00552221765374,-7.941235893400001e-05
1005,502.74962370000003,0.026413792804046002,-0.0056321735215659995,0.003182605609172
1006,503.24962370000003,-0.013695588711900002,0.0060719957990059996,-0.006126973680546
1007,503.74962370000003,0.00520456786552,-0.010836741153326,0.0025839580833300004
1008,504.24962370000003,-0.01032361495326,-0.00489913543212,-0.002681696304326
1009,504.7492237,-0.007965676805206,-0.013475677061172,0.0009346231394339999
1010,505.24962370000003,0.00888197388735,0.00357966766688,-0.0002993236839919999
1011,505.74962370000003,-0.002370155420006,-0.0033597564227640002,-0.0017776165151360001
1012,506.24962370000003,0.039144214636426,-0.0766757475798,-0.017318016509408
1013,506.74962370000003,0.0386677400177,-0.19050428926246,-0.0841099724164
1014,507.24962370000003,-0.01814268371934,0.19459708439456003,0.050170324122812
1015,507.74962370000003,-0.02030514520888,0.00461813785574,0.0060781046113159995
1016,508.24962370000003,-0.033377650851914,-0.014831796899574002,-0.007116574651306
1017,508.74962370000003,-0.07589383952046,-0.017959424679234,-0.0935050707864
1018,509.24962370000003,0.04695106646922,-0.003738492071320001,0.0628030073232
1019,509.74942369999997,-0.0589851033172,-0.041379980568460005,0.0317710772069
1020,510.24962370000003,-0.035075855775232,-0.041270024037199995,0.0011545346071199997
1021,510.74962370000003,-0.004899135409558,-0.015222750634282,0.0011789690602480001
1022,511.24962370000003,0.01737299421326,0.0265726179808,0.000519235138056
1023,511.74962370000003,-0.001368337148312,-0.0034208427746,-0.001826485608706
1024,512.2496237,-0.003005454614854,0.006108647812648,-0.002217439071908
1025,512.7496237,0.0050335258454260005,0.0026878050823060003,0.002327394885294
1026,513.2496237,0.001319467951838,-0.00017104214043399993,0.001069013389968
1027,513.7496237,-0.0016371176300179998,-0.01673769497134,-0.003952295129542
1028,514.2496237,-0.010384701289966,-0.005766563471614,-0.008741475107064
1029,514.7496237,-0.009126319737694,-0.01039691872828,0.000763581004238
1030,515.2496237,-0.07209426108676001,-0.01901011124224,0.003414733762715999
1031,515.7496237,-0.08965051517539999,0.1050809587548,0.102802432154696
1032,516.2494237,0.0998763921848,0.08185588003859999,-0.0105252004274
1033,516.7496237,-0.0031764955100199986,0.20207406734660002,0.18845789306678
1034,517.2496237,-0.010873391371600004,0.17280142802739998,0.027385068567136003
1035,517.7496237,0.2529346684798,-0.08056084581100001,-0.024648395850400004
1036,518.2496237,-0.13245991829694,-0.22925755003999998,0.07404292144420001
1037,518.7496237,0.2545962217144,-0.05158142008943999,-0.14891050686742
1038,519.2496237,-0.180864845071,-0.08869756631898,0.0378675081214
1039,519.7496237,-0.05178911592916,-0.06748834102920599,0.0055894128509
1040,520.2496237,-0.039962772809099996,-0.0576289836887,0.010732893945247998
1041,520.7496237,-0.010971123423799991,-0.01596800568014,-0.01006094280716
1042,521.2496237,0.1539868002204,0.1133154130848,-0.01882074304524
1043,521.7496237,-0.06612000691980001,-0.049223483283200004,0.007128791151016
1044,522.2496237,-0.008539890903600003,0.07903368726459999,-0.01678045544742
1045,522.7494237,0.164701367772,-0.02521649740624,-0.03598604386754
1046,523.2496237,-0.059461578903919995,-0.011423171091639999,-0.0039034260149999993
1047,523.7496237,-0.1000352159234,-0.043518007274199993,-0.03284619880274
1048,524.2496237,0.061880597475599985,-0.0070982506262999975,0.038722717425656
1049,524.7496237,0.02179565437380001,0.01461188487596,7.941278670000023e-05
1050,525.2496237,0.032436923018799996,-0.05837423847552001,-0.0054305877029419995
1051,525.7496237,0.2184941068542,0.0898337751445,0.0019120069528600007
1052,526.2496237,0.008796447424399985,0.04345692012152,-0.02051894786784
1053,526.7496237,-0.06576569984486,-0.04085463675194,-0.013469568555522
1054,527.2496237,0.01568700751914,-0.015393792415599999,0.007299834637795999
1055,527.7496237,0.016139042957499985,-0.0407202506014,0.030866999144060006
1056,528.2496237,0.22338102647540004,0.032253664864479996,0.042852164318000006
1057,528.7496237,-0.05018866235599998,-0.01710421247532,0.024330745791599995
1058,529.2496237,0.3043328414371,-0.12490963370620004,-0.0679709226262
1059,529.7494237,0.0778363908372,-0.054440267862512,-0.1499856285575
1060,530.2496237,-0.00128281947519997,0.048038408246100006,-0.1949819309344
1061,530.7496237,0.20007042768648003,0.0748187246052,-0.03004843795722
1062,531.2496237,-0.1575175940384,0.010494657272026005,0.024000876877879995
1063,531.7496237,-0.0010873378690000113,0.13596628480894002,-0.031343471128822
1064,532.2496237,0.0176906459092,-0.0334265216056,0.012357794407840001
1065,532.7496237,-0.054855658999166,-0.013610066115234,-0.018686353527720002
1066,533.2494237,0.04560716395208,-0.003946185865400003,-0.003915643835224
1067,533.7496237,0.075344064532,-0.0007574718220000004,0.02831358273542
1068,534.2496237,-0.17374216182600002,-0.0705915340404,-0.014422517538800004
1069,534.7496237,0.025411974049400002,-0.0694797589343,0.016731586421460002
1070,535.2496237,0.050042042510919996,-0.006352993844506001,0.005308415071716
1071,535.7496237,-0.010262529214206005,0.003909534692126001,-0.007043270575901999
1072,536.2496237,-0.00259006643777,0.0006719512800399993,-0.00142331484646
1073,536.7496237,0.03992612298796,0.00861319407834,0.0011301000959400022
1074,537.2496237,-0.013072509409799999,0.0237504228146,0.016462806006600002
1075,537.7496237,-0.03054324011694,-0.00394618754934,0.007544179974536
1076,538.2496237,0.08265000594220001,0.024556763448519998,0.004221075643
1077,538.7496237,0.018875722853059995,0.02287077720884,-0.015424335798922
1078,539.2496237,0.0325468746133,0.03444055590406,-0.004734202072102
1079,539.7496237,0.006695078310000002,-0.009138536954394,-0.010354157614261998
1080,540.2494237,-0.0682091619436,0.018277075060880003,0.004355465796894001
1081,540.7496237,0.010555742987400004,-0.01262046651664,-0.004257727614161999
1082,541.2496237,-0.007782417295000003,-0.016261220315859998,-0.005772672654940001
1083,541.7496237,0.03092197386178,-0.0015027268948200013,-0.00535728384778
1084,542.2496237,0.022553131878900002,0.015699225163639998,-0.0031826049173600004
1085,542.7494237,-0.1545610085554,-0.061733993688066,-0.03817293969582
1086,543.2496237,-0.055222174093999994,0.04497186392792,-0.0219483710383
1087,543.7496237,0.024214681754999995,-0.0170064746178,0.02390313986832
1088,544.2496237,0.030140070887399992,0.029064944971799993,0.00671340421812
1089,544.7496237,-0.025350882741606004,0.005363393421840004,-0.008924735914600001
1090,545.2494237,0.013720017498000003,0.0622471182977,0.03820959152334
1091,545.7496237,-0.01066569928120001,0.002199114167011999,-0.015509857329364002
1092,546.2496237,-0.065948960608,-0.014465277366530001,-0.0154487706685
1093,546.7496237,-0.004679225268679996,0.0311785383114,-0.011148282181691999
1094,547.2496237,-0.007428114928979998,-0.00513126450686,0.005283980293738001
1095,547.7496237,-0.0245323293907,-0.010409135858260001,0.0004581481557940005
1096,548.2496237,0.00216246087404,-0.005412261430102001,-0.004575377160512001
1097,548.7496237,0.009969313492526001,0.0004764743844060004,-0.0006780598375060003
1098,549.2496237,0.011899645762034,0.00486248365634,0.0024251331837539998
1099,549.7496237,-0.00354301555822,0.006389645666882,0.009230166796018
1100,550.2496237,-0.009749401714254,-0.010421353111459999,0.018368704075366
1101,550.7496237,0.010115921362,0.01286481248534,-0.0008368848050399999
1102,551.2494237,-0.00537560990126,-0.000867428020754,-0.001447749510106
1103,551.7496237,-0.005241219796906,-0.005192350793,-0.0003115409885339999
1104,552.2496237,0.007916807832574,-0.010140355203548,-0.0051373728679520005
1105,552.7496237,-0.0019914193569739998,-0.00339640817566,-0.002486219614516
1106,553.2496237,-0.007257073650066,0.0015027274515600003,-0.00017715075543600013
1107,553.7496237,-0.00012217298809399964,-0.010653481881436,0.001044578858028
1108,554.2496237,0.00836884744058,0.011655300148634,-0.002339612071646
1109,554.7496237,0.007794634330572,0.005290089137092,-0.001655443550234
1110,555.2496237,0.0006230818974000006,0.004288270840262,-0.0023273946949820003
1111,555.7496237,0.002846629684298,0.0057299116743019995,0.002779434740618
1112,556.2496237,-0.015173881253306001,-0.00599869219438,-0.001105665268368
1113,556.7494237,-0.0008552107406339998,0.0015760311551999999,-0.00227852560818
1114,557.2496237,0.004092793937407999,0.00019547674735599999,0.000934623142596
1115,557.7496237,0.0018203770002979999,0.001466075448866,-0.0013622284366840002
1116,558.2494237,0.002724456866014,0.00480139718883,0.000897971268372
1117,558.7496237,-0.006817251017812001,-0.008564324305122,-0.002449567689014
1118,559.2496237,-0.011227694853166,0.003005454762912,0.004966330731678
1119,559.7494237,-0.007794634547432,-0.0004520398348119996,0.000641408057604
1120,560.2496237,0.005461131072092,0.0023335033050679997,-0.003756818359832
1121,560.7496237,0.0007941241345900001,-0.002125809519304,-0.000433713939174
1122,561.2496237,-0.0025900667043399998,0.0035307983841800002,-0.0032070400339139996
1123,561.7492237,-0.0036163195570259998,0.005681042496426,0.00214413539567
1124,562.2496237,-0.0010995567578919996,0.013402373379706001,0.00025045456576799983
1125,562.7496237,-0.005277871726579999,-0.0034452773240540003,0.001240055563918
1126,563.2496237,-0.016859867947572,-0.014453061237540001,-0.002339612104168
1127,563.7496237,0.010079269053454,0.011630865356434,0.0020463970389139998
1128,564.2496237,-0.00157603105798,-0.0024556763435540003,-0.0019120067137039997
1129,564.7496237,0.00250454558942,0.0003543014982199999,-0.000922405770602
1130,565.2496237,0.00046425723479400004,0.00113620850498,-0.000555886865304
1131,565.7494237,-0.0084299341108,0.0015149446278659997,-5.497774711200016e-05
1132,566.2496237,-0.007819068231120002,-0.004263836140406,0.001301141908764
1133,566.7496237,0.00453261666042,0.001233946811914,0.00047036587438199995
1134,567.2494237,0.0036407548186800005,-0.00540004464998,-0.0003359755318039999
1135,567.7496237,0.0101525726638,0.002235764999862,0.0013133593452979999
1136,568.2496237,9.773800131999952e-05,0.0034208425439599998,-0.002315177436106
1137,568.7496237,-0.01433088777694,-0.004618137806328,0.008179479359628001
1138,569.2496237,0.00207694029444,0.004618137814568,0.004196641080958
1139,569.7496237,0.0034574949541339994,-0.0016982037459939998,0.004208858327334
1140,570.2494237,0.02464228451872,-0.0011850776682619999,0.00780074317026
1141,570.7496237,-0.0028466294483940014,0.003249800164712001,-0.00611475628215
1142,571.2496237,0.004117226493993996,0.000867427849900001,0.004416552211196
1143,571.7496237,-0.013793327582999998,-0.01811824939434,0.00235182946316
1144,572.2496237,-0.013377938902780004,0.006181951632459999,0.0001527160695600007
1145,572.7496237,-0.004899134493766001,0.0157358767356,0.0034269512167600003
1146,573.2496237,-0.005742130607626,-0.01382997935234,0.008106175325716001
1147,573.7496237,0.014367542121240006,0.016053526424093998,0.002266308319476
1148,574.2496237,-0.0330233503578,-0.00933401347696,-0.003854556331179999
1149,574.7496237,0.00024434507145999263,-0.0049480028974000015,0.00814282786286
1150,575.2496237,0.047879582248899995,0.02812421388852,0.010940588879956002
1151,575.7496237,0.020781618466399997,-0.0193888480832,-0.0021563523884599992
1152,576.2496237,-0.004813613759000001,0.013585632146040002,-0.002412915918762
1153,576.7496237,-0.036260934092,-0.138275350004694,-0.06272970393212
1154,577.2496237,-0.09089667904320001,0.0278798681472,0.114750949703076
1155,577.7496237,-0.0008552127925200004,-0.0040805769004,0.0016554431967600017
1156,578.2496237,0.1016723360506,0.0361876287792,0.003158171090960001
1157,578.7496237,-0.02387259541642,0.022430954455599998,-0.009046907337264
1158,579.2494237,-0.031483969007800004,-0.01624900309132,-0.009816597419719998
1159,579.7496237,0.03362199860120001,0.015296054924725999,-0.00191200681384
1160,580.2496237,-0.035735586279659996,-0.014257584082700002,0.01822209613736
1161,580.7496237,-0.0661566563328,0.039889468738219996,0.01213788435114
1162,581.2496237,0.06772046943634,0.081354971335654,0.08253394109318
1163,581.7496237,0.08774461670948,-0.000757472794034,0.07288227651121999
1164,582.2496237,-0.023823727341520003,0.047965103794379994,-0.0032925605362400003
1165,582.7496237,-0.061135347581600004,-0.031630577710402,0.0031215192052000003
1166,583.2496237,0.044226612113799996,0.0857898509464,0.03480096667398
1167,583.7496237,-0.007122684197800002,-0.012950334770599998,0.028411321177811998
1168,584.2496237,-0.04455647724314,-0.022320999329765997,0.00842382549352
1169,584.7496237,-0.01392771455956,-0.055271045757206,-0.041618217078199994
1170,585.2496237,-0.029174902596992,-0.018362596782799997,-0.03482540134712
1171,585.7496237,-0.075502886188,0.04511847540470001,0.0191628280258
1172,586.2496237,0.18891604133880002,-0.09864244550032002,-0.022351542582782
1173,586.7496237,-0.033402088610400005,-0.0839939108818,0.0022540907235800013
1174,587.2496237,0.029895723530199998,0.01838702789678,-0.007104357324699999
1175,587.7496237,-0.047085457306420005,-0.011068869680440003,0.0007513638204979995
1176,588.2496237,-0.004202750306739997,-0.0305065874953,0.0031215187387960007
1177,588.7496237,-0.05648055212559999,0.0413921949988,-0.002021962284539999
1178,589.2496237,0.069687455978,0.004312706386500002,-0.0021930043051200006
1179,589.7496237,-0.026902485604000003,-0.005119047585266002,0.003035998422718
1180,590.2494237,0.025900665302600004,-0.050701775324965996,0.01108719544774
1181,590.7494237,-0.01384219820928001,0.010152571819000002,-0.007226530499901998
1182,591.2496237,0.019144502076860002,-0.003518581093066001,-0.00997542192512
1183,591.7496237,-0.051312640107660006,0.022174392829,-0.009327905087
1184,592.2496237,0.08701157808639999,-0.03541793880676,0.041044005057158
1185,592.7496237,0.009492834737000001,0.0366885407394,0.0521006571814
1186,593.2494237,0.03637089485779999,0.043456922977900006,-0.022302673522140003
1187,593.7496237,0.03169166661879999,0.021172573248600002,0.04123948081474001
1188,594.2496237,-0.067573861806424,-0.028063128369,0.221212462784
1189,594.7496237,0.02783099814126001,0.007965676918279999,0.351803138256
1190,595.2496237,0.078483909878,0.15170215919691998,0.23121842668037998
1191,595.7496237,0.078716041057006,-0.17121317796020002,0.06778766319864
1192,596.2494237,-0.2749991057978,0.3237338994138,0.010989457656120001
1193,596.7496237,-0.066755303815,0.0126326856862,0.1894841460644
1194,597.2496237,0.047317585005799995,0.0326568319624,0.174945565459
1195,597.7496237,-0.081831447595,-0.039266389136300005,0.249361111636
1196,598.2494237,0.10142798774119999,-0.19128619715822,0.24978871718600001
1197,598.7496237,0.093083576582034,-0.2882304384544,0.213698828042
1198,599.2496237,-0.26346598073196,0.05171580779059999,0.13830589718015998
1199,599.7496237,-0.11085974230432001,0.39685441006242,0.3556271493662
1200,600.2496237,0.226814090718314,-0.1201937547308,0.0005803214846399985
1201,600.7496237,-0.11004118103824,-0.048844746525633996,0.078880963915
1202,601.2496237,0.045888162030314004,0.05081173484516,0.196240311337
1203,601.7496237,0.09342565913619999,0.1327042659432,-0.34788138413340003
1204,602.2496237,-0.27151717282140003,0.31190755044039997,-0.02772715367054
1205,602.7496237,0.199948259611,-0.026584838821659993,0.06395143515074
1206,603.2496237,-0.20014373489739998,-0.0356378529648,0.010793980697280001
1207,603.7496237,-0.18099923303739998,0.00682946747756,-0.21707079846751998
1208,604.2496237,-0.06827024767239999,0.0814160537628,-0.66255004489226
1209,604.7496237,0.1526551071663,0.009896012909200008,0.44153917282599997
1210,605.2496237,0.2048473933952,-0.0755884072212,0.990413392176
1211,605.7496237,-0.051837989087193996,-0.617193337306,-0.03702451105522
1212,606.2496237,-0.307594849392,-0.10024290900765999,-0.43890023816582
1213,606.7494237,0.056480556127360006,0.16663169759486,-0.26984951504894
1214,607.2494237,-0.035161377005006,-0.026731441897300003,0.022058327450399998
1215,607.7496237,-0.1424170133504,-0.003543016099600003,0.23212250764436
1216,608.2496237,-0.10707237920416,0.1208046246624,0.1583056067018
1217,608.7496237,-0.0371772305065,-0.16301537885439998,0.1443778899834
1218,609.2496237,0.1585071933001,-0.060915436577160004,0.10160513813006
1219,609.7496237,0.2831113953512,-0.1891481698638,0.04077522438146
1220,610.2496237,0.2608026114064,0.15650356227672,0.23795016026589
1221,610.7496237,-0.10814749481759998,-0.13551424465812,-0.859431754860702
1222,611.2496237,0.04535060448443999,0.32357507384519996,-0.15566667350042
1223,611.7346236999999,-0.09200013489,-0.07663753629089362,-0.08575826621759575
